time,accel_x_list,accel_y_list,accel_z_list,gyro_x_list,gyro_y_list,gyro_z_list,filename
2018-07-09T13:57:29.694329,0.975,0.009,0.148,14.207,2.256,24.878,10_10_3.csv
2018-07-09T13:57:29.765017,0.962,0.081,0.117,39.573,10.183,48.659,10_10_3.csv
2018-07-09T13:57:29.836708,0.962,0.081,0.117,15.183,7.012,48.354,10_10_3.csv
2018-07-09T13:57:29.895365,0.938,0.062,0.09,1.707,-1.951,26.22,10_10_3.csv
2018-07-09T13:57:29.943493,0.906,0.08,0.073,17.805,0.854,13.11,10_10_3.csv
2018-07-09T13:57:29.996635,0.906,0.08,0.073,13.171,-3.415,1.951,10_10_3.csv
2018-07-09T13:57:30.040251,0.978,0.231,0.043,-6.159,-9.146,-19.878,10_10_3.csv
2018-07-09T13:57:30.100411,1.014,0.305,-0.03,-31.707,-23.841,-81.159,10_10_3.csv
2018-07-09T13:57:30.166588,0.709,0.317,0.111,-28.171,-29.756,-135.366,10_10_3.csv
2018-07-09T13:57:30.225745,0.709,0.317,0.111,-22.256,-22.439,-136.463,10_10_3.csv
2018-07-09T13:57:30.274877,0.463,0.33,0.263,-51.098,-31.28,-138.476,10_10_3.csv
2018-07-09T13:57:30.321501,0.463,0.33,0.263,-138.781,-36.463,-140.488,10_10_3.csv
2018-07-09T13:57:30.373640,0.919,0.161,0.31,-34.085,9.024,-125.122,10_10_3.csv
2018-07-09T13:57:30.507093,1.84,1.596,-0.75,287.927,253.415,-170.732,10_10_3.csv
2018-07-09T13:57:30.562741,1.84,1.596,-0.75,304.695,287.866,-119.878,10_10_3.csv
2018-07-09T13:57:30.615382,-1.042,1.153,-0.373,-120.976,45.244,-4.024,10_10_3.csv
2018-07-09T13:57:30.670528,-0.608,-0.049,-0.161,-289.146,-52.866,-7.866,10_10_3.csv
2018-07-09T13:57:30.733697,-0.204,-0.467,0.031,-157.317,-71.159,-59.146,10_10_3.csv
2018-07-09T13:57:30.775809,-0.204,-0.467,0.031,-27.5,-47.256,-55.488,10_10_3.csv
2018-07-09T13:57:30.822434,-0.201,0.113,0.324,0.061,-19.024,-51.463,10_10_3.csv
2018-07-09T13:57:30.874573,-0.201,0.113,0.324,-50.61,-9.878,-46.768,10_10_3.csv
2018-07-09T13:57:30.928216,0.446,0.874,0.327,-86.89,-20.915,-51.159,10_10_3.csv
2018-07-09T13:57:30.976344,1.996,2.079,0.687,20.061,13.354,-89.207,10_10_3.csv
2018-07-09T13:57:31.021965,1.996,2.079,0.687,142.012,92.5,-78.841,10_10_3.csv
2018-07-09T13:57:31.068590,0.71,2.653,0.246,239.573,172.988,23.902,10_10_3.csv
2018-07-09T13:57:31.119225,0.71,2.653,0.246,115.915,105.976,130.061,10_10_3.csv
2018-07-09T13:57:31.163342,-0.971,1.228,0.193,-110.549,-6.707,117.683,10_10_3.csv
2018-07-09T13:57:31.213476,-0.528,-0.363,0.085,-57.134,-70.976,-19.756,10_10_3.csv
2018-07-09T13:57:31.261103,-0.528,-0.363,0.085,8.72,-36.829,-55.976,10_10_3.csv
2018-07-09T13:57:31.308730,-0.311,-0.208,-0.067,-7.561,-14.878,-47.927,10_10_3.csv
2018-07-09T13:57:31.353349,-0.311,-0.208,-0.067,-2.561,-15.671,-38.11,10_10_3.csv
2018-07-09T13:57:31.410501,-0.171,0.104,0.184,-17.744,-21.951,-60.366,10_10_3.csv
2018-07-09T13:57:31.457627,0.756,0.504,0.159,-82.256,-66.22,-4.634,10_10_3.csv
2018-07-09T13:57:31.530321,1.922,2.695,0.395,107.866,-65.366,54.512,10_10_3.csv
2018-07-09T13:57:31.636606,0.73,2.847,0.464,81.463,1.829,-26.402,10_10_3.csv
2018-07-09T13:57:31.679721,0.73,2.847,0.464,75.122,21.768,-16.037,10_10_3.csv
2018-07-09T13:57:31.727852,-0.186,1.168,0.447,9.146,33.72,-11.951,10_10_3.csv
2018-07-09T13:57:31.877255,-0.258,-0.477,0.077,-21.951,17.622,-37.5,10_10_3.csv
2018-07-09T13:57:31.939424,-0.088,0.064,-0.081,90.366,41.585,10.183,10_10_3.csv
2018-07-09T13:57:31.999086,-0.088,0.064,-0.081,-2.5,34.634,18.963,10_10_3.csv
2018-07-09T13:57:32.068271,0.19,0.682,-0.097,-214.695,29.085,26.463,10_10_3.csv
2018-07-09T13:57:32.113391,0.718,1.892,0.592,-142.317,7.195,15.732,10_10_3.csv
2018-07-09T13:57:32.163023,0.718,1.892,0.592,-132.561,18.049,-13.415,10_10_3.csv
2018-07-09T13:57:32.208644,1.227,2.691,1.281,-109.268,-53.78,12.5,10_10_3.csv
2018-07-09T13:57:32.273818,0.354,1.511,0.793,215.427,-110.549,-33.963,10_10_3.csv
2018-07-09T13:57:32.323952,0.354,1.511,0.793,96.22,-127.866,-41.402,10_10_3.csv
2018-07-09T13:57:32.369072,-0.07,-0.253,0.648,85.61,-62.195,-49.329,10_10_3.csv
2018-07-09T13:57:32.427227,-0.068,-0.506,0.336,-60.244,39.329,-31.341,10_10_3.csv
2018-07-09T13:57:32.478366,-0.068,-0.506,0.336,-133.11,121.646,-2.744,10_10_3.csv
2018-07-09T13:57:32.526494,0.003,-0.035,-0.478,77.317,166.707,47.805,10_10_3.csv
2018-07-09T13:57:32.582649,-0.059,1.152,-0.159,-109.451,120.976,48.598,10_10_3.csv
2018-07-09T13:57:32.633785,-0.059,1.152,-0.159,-214.512,50.488,49.024,10_10_3.csv
2018-07-09T13:57:32.675901,0.547,2.72,0.876,-8.049,42.5,-18.354,10_10_3.csv
2018-07-09T13:57:32.722024,0.547,2.72,0.876,21.524,44.39,-86.098,10_10_3.csv
2018-07-09T13:57:32.773163,0.462,2.343,0.605,-23.354,-99.573,-71.402,10_10_3.csv
2018-07-09T13:57:32.816779,0.232,0.89,0.84,127.5,-180.61,-23.171,10_10_3.csv
2018-07-09T13:57:32.876522,0.232,0.89,0.84,63.963,-24.024,6.524,10_10_3.csv
2018-07-09T13:57:32.929663,-0.104,-0.174,0.31,-79.634,-35.976,-2.134,10_10_3.csv
2018-07-09T13:57:32.978797,-0.216,-0.298,-0.321,77.317,62.378,-57.256,10_10_3.csv
2018-07-09T13:57:33.019907,-0.216,-0.298,-0.321,112.439,79.695,-44.268,10_10_3.csv
2018-07-09T13:57:33.072050,-0.144,-0.014,-0.122,75.61,85.976,-48.049,10_10_3.csv
2018-07-09T13:57:33.176080,-0.491,-0.092,-0.529,-20.732,86.646,-2.561,10_10_3.csv
2018-07-09T13:57:33.238245,1.348,3.419,-0.76,223.659,-138.415,177.378,10_10_3.csv
2018-07-09T13:57:33.295402,1.348,3.419,-0.76,140.366,-125.549,218.537,10_10_3.csv
2018-07-09T13:57:33.352056,1.312,3.297,-0.021,-7.683,-97.561,44.878,10_10_3.csv
2018-07-09T13:57:33.414725,0.094,0.733,0.394,-38.72,13.537,-62.805,10_10_3.csv
2018-07-09T13:57:33.461855,-0.125,-0.756,-0.386,-155.61,75.549,-108.476,10_10_3.csv
2018-07-09T13:57:33.504970,-0.125,-0.756,-0.386,49.39,81.159,-117.866,10_10_3.csv
2018-07-09T13:57:33.567140,-0.183,-0.145,-0.169,68.232,64.329,-92.073,10_10_3.csv
2018-07-09T13:57:33.623290,-0.043,-0.208,-0.183,9.268,73.659,-48.476,10_10_3.csv
2018-07-09T13:57:33.695486,-0.043,-0.208,-0.183,2.439,70.976,-28.476,10_10_3.csv
2018-07-09T13:57:33.739604,-0.047,0.985,-0.674,85.427,87.683,12.134,10_10_3.csv
2018-07-09T13:57:33.793753,0.021,3.224,-0.635,247.012,44.695,-47.134,10_10_3.csv
2018-07-09T13:57:33.836867,0.021,3.224,-0.635,181.159,55.854,29.207,10_10_3.csv
2018-07-09T13:57:33.901043,-0.146,2.548,-0.83,-174.146,-44.085,32.439,10_10_3.csv
2018-07-09T13:57:33.948673,-0.073,0.359,-0.272,-146.829,5.549,0.366,10_10_3.csv
2018-07-09T13:57:33.989283,-0.073,0.359,-0.272,-164.451,19.207,25.671,10_10_3.csv
2018-07-09T13:57:34.037412,-0.155,-0.145,0.044,-62.683,0.305,6.098,10_10_3.csv
2018-07-09T13:57:34.085541,-0.155,-0.145,0.044,-4.329,-46.829,-26.098,10_10_3.csv
2018-07-09T13:57:34.128656,-0.236,-0.101,0.072,3.659,-33.72,-33.537,10_10_3.csv
2018-07-09T13:57:34.187313,-0.048,-0.03,0.004,-9.878,-0.793,-20.0,10_10_3.csv
2018-07-09T13:57:34.249981,-0.048,-0.03,0.004,-21.707,2.683,-1.829,10_10_3.csv
2018-07-09T13:57:34.308137,0.075,1.624,0.111,-127.683,4.695,-47.317,10_10_3.csv
2018-07-09T13:57:34.348244,0.07,2.706,0.719,-268.415,80.122,-3.902,10_10_3.csv
2018-07-09T13:57:34.403395,0.07,2.706,0.719,-128.902,92.012,18.659,10_10_3.csv
2018-07-09T13:57:34.442500,-0.393,1.915,0.87,121.22,27.256,40.61,10_10_3.csv
2018-07-09T13:57:34.533748,-0.145,0.59,0.168,16.646,-0.366,28.049,10_10_3.csv
2018-07-09T13:57:34.590402,-0.021,-0.279,-0.151,-17.988,-26.89,-33.659,10_10_3.csv
2018-07-09T13:57:34.631011,-0.021,-0.279,-0.151,-4.512,-29.085,-32.744,10_10_3.csv
2018-07-09T13:57:34.677134,-0.044,-0.03,0.033,11.402,-13.537,-18.841,10_10_3.csv
2018-07-09T13:57:34.732785,-0.044,-0.03,0.033,21.646,12.134,-20.61,10_10_3.csv
2018-07-09T13:57:34.775900,-0.029,-0.018,0.188,-7.561,28.232,0.61,10_10_3.csv
2018-07-09T13:57:34.831061,-0.001,0.727,0.337,-59.512,34.329,84.634,10_10_3.csv
2018-07-09T13:57:34.886210,-0.001,0.727,0.337,-75.976,-5.366,154.634,10_10_3.csv
2018-07-09T13:57:34.928823,0.679,4.313,0.846,121.951,-27.988,177.378,10_10_3.csv
2018-07-09T13:57:34.973442,0.679,4.313,0.846,5.61,-30.915,54.939,10_10_3.csv
2018-07-09T13:57:35.023576,0.198,2.091,0.866,-258.049,-104.817,-84.329,10_10_3.csv
2018-07-09T13:57:35.067192,0.123,-0.314,0.461,33.72,-19.512,-53.476,10_10_3.csv
2018-07-09T13:57:35.125300,0.123,-0.314,0.461,-20.183,0.122,-58.963,10_10_3.csv
2018-07-09T13:57:35.183959,-0.207,-0.454,-0.27,-23.963,-18.659,-77.439,10_10_3.csv
2018-07-09T13:57:35.228580,-0.187,-0.261,-0.23,115.671,-22.5,-9.634,10_10_3.csv
2018-07-09T13:57:35.269689,-0.187,-0.261,-0.23,102.622,-18.537,10.427,10_10_3.csv
2018-07-09T13:57:35.324842,-0.015,0.011,0.013,-2.012,-12.927,30.0,10_10_3.csv
2018-07-09T13:57:35.367956,-0.015,0.011,0.013,-76.89,22.256,54.146,10_10_3.csv
2018-07-09T13:57:35.445166,0.602,1.216,1.031,-398.354,9.207,241.463,10_10_3.csv
2018-07-09T13:57:35.492297,2.102,1.827,2.749,-396.951,-52.866,159.146,10_10_3.csv
2018-07-09T13:57:35.536414,2.102,1.827,2.749,253.781,17.195,-9.878,10_10_3.csv
2018-07-09T13:57:35.581537,0.436,1.473,1.586,298.842,6.402,-72.622,10_10_3.csv
2018-07-09T13:57:35.630367,-0.111,-0.259,0.294,22.866,-25.854,-52.683,10_10_3.csv
2018-07-09T13:57:35.678497,-0.111,-0.259,0.294,183.415,36.646,-43.232,10_10_3.csv
2018-07-09T13:57:35.735652,-0.281,-0.297,-0.082,190.793,60.61,-80.793,10_10_3.csv
2018-07-09T13:57:35.791803,-0.489,0.218,0.001,85.732,79.207,-57.317,10_10_3.csv
2018-07-09T13:57:36.212630,-0.489,0.218,0.001,-91.768,64.573,-149.756,10_10_3.csv
2018-07-09T13:57:36.257750,-0.489,0.218,0.001,-97.805,16.768,-67.561,10_10_3.csv
2018-07-09T13:57:36.306886,-0.089,-0.329,-0.28,-29.451,17.256,-100.305,10_10_3.csv
2018-07-09T13:57:36.348998,-0.089,-0.329,-0.28,-15.366,4.939,-106.037,10_10_3.csv
2018-07-09T13:57:36.421194,-0.09,-0.112,-0.041,17.317,12.195,-58.354,10_10_3.csv
2018-07-09T13:57:36.473333,-0.212,-0.021,0.107,11.829,10.854,-47.561,10_10_3.csv
2018-07-09T13:57:36.541517,-0.109,0.401,0.234,-83.72,-10.366,15.549,10_10_3.csv
2018-07-09T13:57:36.583629,-0.109,0.401,0.234,-124.39,-40.793,59.39,10_10_3.csv
2018-07-09T13:57:36.634766,1.895,3.452,0.773,191.524,-31.402,165.061,10_10_3.csv
2018-07-09T13:57:36.679385,1.247,2.433,1.133,-96.829,-165.976,-21.159,10_10_3.csv
2018-07-09T13:57:36.736036,1.247,2.433,1.133,136.22,-221.281,-99.146,10_10_3.csv
2018-07-09T13:57:36.791183,0.089,0.438,0.86,131.402,-147.317,-43.78,10_10_3.csv
2018-07-09T13:57:36.846832,-0.107,-0.288,0.081,-94.329,-1.22,-44.878,10_10_3.csv
2018-07-09T13:57:36.894960,-0.107,-0.288,0.081,-63.78,26.341,-72.195,10_10_3.csv
2018-07-09T13:57:36.942085,-0.053,-0.237,-0.334,12.439,60.854,-67.256,10_10_3.csv
2018-07-09T13:57:36.991216,-0.053,-0.237,-0.334,113.049,100.122,-65.854,10_10_3.csv
2018-07-09T13:57:37.060529,-0.118,0.099,-0.031,-0.488,89.573,-42.988,10_10_3.csv
2018-07-09T13:57:37.111164,-0.115,0.767,0.14,-112.622,90.976,7.988,10_10_3.csv
2018-07-09T13:57:37.264577,0.84,2.769,-0.137,163.963,-212.5,85.915,10_10_3.csv
2018-07-09T13:57:37.306689,0.84,2.769,-0.137,-133.354,-254.39,124.695,10_10_3.csv
2018-07-09T13:57:37.357827,0.428,0.669,0.292,-70.244,-183.537,44.695,10_10_3.csv
2018-07-09T13:57:37.400945,-0.16,-0.071,0.316,-167.927,40.976,-58.476,10_10_3.csv
2018-07-09T13:57:37.456094,-0.16,-0.071,0.316,-235.61,48.415,-63.72,10_10_3.csv
2018-07-09T13:57:37.506229,-0.082,-0.196,-0.035,-156.159,73.415,-60.0,10_10_3.csv
2018-07-09T13:57:37.550347,-0.082,-0.196,-0.035,-82.256,99.268,-52.988,10_10_3.csv
2018-07-09T13:57:37.598481,-0.061,-0.121,-0.035,-43.354,112.988,-48.902,10_10_3.csv
2018-07-09T13:57:37.665660,0.442,1.844,0.063,1.829,123.354,54.39,10_10_3.csv
2018-07-09T13:57:37.709782,0.442,1.844,0.063,48.659,81.524,158.415,10_10_3.csv
2018-07-09T13:57:37.754902,1.2,3.503,0.213,188.72,27.195,22.927,10_10_3.csv
2018-07-09T13:57:37.810055,-0.155,1.591,0.354,261.342,-173.659,14.146,10_10_3.csv
2018-07-09T13:57:37.851164,-0.155,1.591,0.354,146.89,-154.024,65.549,10_10_3.csv
2018-07-09T13:57:37.900300,-0.217,0.579,1.037,47.134,-56.463,7.012,10_10_3.csv
2018-07-09T13:57:37.943414,-0.217,0.579,1.037,-165.549,-30.305,-47.378,10_10_3.csv
2018-07-09T13:57:37.990543,-0.137,-0.353,-0.125,-234.634,31.22,-62.073,10_10_3.csv
2018-07-09T13:57:38.038672,-0.137,-0.353,-0.125,-177.927,43.476,-24.085,10_10_3.csv
2018-07-09T13:57:38.089309,-0.123,-0.153,-0.107,-124.573,72.805,3.11,10_10_3.csv
2018-07-09T13:57:38.134933,-0.085,0.589,-0.074,-144.39,74.39,25.488,10_10_3.csv
2018-07-09T13:57:38.176043,-0.085,0.589,-0.074,-128.232,69.512,49.146,10_10_3.csv
2018-07-09T13:57:38.227181,0.907,3.091,0.275,-42.683,19.207,65.366,10_10_3.csv
2018-07-09T13:57:38.274307,0.907,3.091,0.275,87.683,7.256,14.512,10_10_3.csv
2018-07-09T13:57:38.318926,0.444,2.635,0.339,241.646,-13.659,-5.549,10_10_3.csv
2018-07-09T13:57:38.369561,-0.104,0.377,1.487,45.183,-161.098,54.207,10_10_3.csv
2018-07-09T13:57:38.425787,-0.104,0.377,1.487,175.0,-22.927,-13.354,10_10_3.csv
2018-07-09T13:57:38.471409,-0.289,0.167,0.457,184.085,110.793,-44.512,10_10_3.csv
2018-07-09T13:57:38.524049,-0.138,-0.065,-0.031,-307.744,3.476,28.232,10_10_3.csv
2018-07-09T13:57:38.620305,-0.138,-0.065,-0.031,-118.293,9.146,68.598,10_10_3.csv
2018-07-09T13:57:38.659410,-0.138,-0.065,-0.031,-200.793,-59.268,68.293,10_10_3.csv
2018-07-09T13:57:38.717066,1.136,1.927,0.325,-239.756,-82.378,73.476,10_10_3.csv
2018-07-09T13:57:38.770208,1.612,3.121,0.914,123.171,30.732,-76.89,10_10_3.csv
2018-07-09T13:57:38.815331,1.612,3.121,0.914,26.524,35.854,-118.476,10_10_3.csv
2018-07-09T13:57:38.862957,0.253,1.098,0.946,-23.11,43.78,-75.427,10_10_3.csv
2018-07-09T13:57:38.929638,-0.363,-0.425,0.416,153.72,60.976,-3.232,10_10_3.csv
2018-07-09T13:57:38.977768,-0.363,-0.425,0.416,290.122,68.232,-3.841,10_10_3.csv
2018-07-09T13:57:39.037930,-0.381,0.165,0.547,266.159,90.427,-41.89,10_10_3.csv
2018-07-09T13:57:39.088567,-0.181,0.04,0.14,-188.476,13.963,1.28,10_10_3.csv
2018-07-09T13:57:39.131184,-0.181,0.04,0.14,-167.744,15.915,3.598,10_10_3.csv
2018-07-09T13:57:39.177810,-0.131,-0.193,-0.394,-90.427,26.037,-8.902,10_10_3.csv
2018-07-09T13:57:39.222052,-0.131,-0.193,-0.394,77.439,53.841,-10.244,10_10_3.csv
2018-07-09T13:57:39.274191,0.432,2.492,0.009,208.354,90.244,14.268,10_10_3.csv
2018-07-09T13:57:39.322324,0.432,2.492,0.009,-40.549,82.195,70.305,10_10_3.csv
2018-07-09T13:57:39.366442,1.067,3.374,1.715,-56.341,-48.476,54.39,10_10_3.csv
2018-07-09T13:57:39.408556,1.067,3.374,1.715,21.28,-90.671,-5.244,10_10_3.csv
2018-07-09T13:57:39.460695,-0.076,1.29,0.57,-46.22,-52.744,-11.829,10_10_3.csv
2018-07-09T13:57:39.502808,-0.144,-0.156,0.122,-82.561,4.451,-59.634,10_10_3.csv
2018-07-09T13:57:39.556453,-0.144,-0.156,0.122,-163.902,22.256,-57.378,10_10_3.csv
2018-07-09T13:57:39.607590,-0.118,-0.295,-0.2,-82.256,52.866,-59.451,10_10_3.csv
2018-07-09T13:57:39.660736,-0.057,-0.072,-0.177,0.549,83.72,-11.098,10_10_3.csv
2018-07-09T13:57:39.705856,-0.057,-0.072,-0.177,23.11,98.659,2.256,10_10_3.csv
2018-07-09T13:57:39.753990,-0.046,0.522,-0.147,24.146,98.78,29.878,10_10_3.csv
2018-07-09T13:57:39.799110,-0.046,0.522,-0.147,131.768,111.89,58.171,10_10_3.csv
2018-07-09T13:57:39.845237,-0.144,2.915,0.907,203.842,123.293,16.463,10_10_3.csv
2018-07-09T13:57:39.899382,-0.154,2.951,0.922,48.659,-126.951,114.695,10_10_3.csv
2018-07-09T13:57:40.167147,0.018,-0.35,-0.038,37.622,-35.915,-114.146,10_10_3.csv
2018-07-09T13:57:40.215275,0.062,-0.27,-0.043,-44.146,37.927,-31.341,10_10_3.csv
2018-07-09T13:57:40.257392,0.062,-0.27,-0.043,-17.866,66.098,26.585,10_10_3.csv
2018-07-09T13:57:40.303516,0.025,0.566,0.126,48.293,76.463,82.561,10_10_3.csv
2018-07-09T13:57:40.354656,0.025,0.566,0.126,30.854,72.195,111.768,10_10_3.csv
2018-07-09T13:57:40.419331,0.24,3.266,0.394,54.451,0.366,116.768,10_10_3.csv
2018-07-09T13:57:40.460945,-0.154,3.23,0.436,68.537,-36.524,43.598,10_10_3.csv
2018-07-09T13:57:40.503057,-0.154,3.23,0.436,-86.524,-53.354,-29.695,10_10_3.csv
2018-07-09T13:57:40.550187,-0.17,0.562,0.179,-124.329,-32.622,-70.183,10_10_3.csv
2018-07-09T13:57:40.598316,-0.17,0.562,0.179,-126.89,-9.085,-93.11,10_10_3.csv
2018-07-09T13:57:40.645446,-0.016,-0.634,-0.152,-73.354,9.024,-106.89,10_10_3.csv
2018-07-09T13:57:40.703601,-0.053,-0.163,-0.077,25.183,20.854,-64.451,10_10_3.csv
2018-07-09T13:57:40.757750,-0.053,-0.163,-0.077,19.085,33.049,-14.512,10_10_3.csv
2018-07-09T13:57:40.804875,-0.033,-0.115,-0.022,4.695,34.451,9.207,10_10_3.csv
2018-07-09T13:57:40.855014,-0.033,-0.115,-0.022,-3.049,16.463,28.659,10_10_3.csv
2018-07-09T13:57:40.898131,0.072,0.065,-0.031,102.683,0.305,159.39,10_10_3.csv
2018-07-09T13:57:40.942251,1.377,4.353,0.081,191.89,45.854,283.72,10_10_3.csv
2018-07-09T13:57:40.996395,1.377,4.353,0.081,48.049,-70.61,171.159,10_10_3.csv
2018-07-09T13:57:41.039515,0.216,3.171,0.353,117.317,-21.098,-21.463,10_10_3.csv
2018-07-09T13:57:41.082630,0.216,3.171,0.353,-90.854,-16.829,-17.927,10_10_3.csv
2018-07-09T13:57:41.132768,-0.245,-0.084,-0.13,-155.427,23.72,-19.878,10_10_3.csv
2018-07-09T13:57:41.174883,-0.245,-0.084,-0.13,-95.976,19.939,-51.585,10_10_3.csv
2018-07-09T13:57:41.222010,-0.083,-0.348,-0.151,10.671,9.817,-62.683,10_10_3.csv
2018-07-09T13:57:41.341335,-0.209,-0.05,0.392,-4.939,28.841,-34.451,10_10_3.csv
2018-07-09T13:57:41.393474,-0.209,-0.05,0.392,-150.305,49.756,-9.146,10_10_3.csv
2018-07-09T13:57:41.441607,0.08,0.385,0.557,-181.281,36.524,85.0,10_10_3.csv
2018-07-09T13:57:41.487730,0.08,0.385,0.557,-12.622,-16.159,243.171,10_10_3.csv
2018-07-09T13:57:41.534357,1.545,4.525,0.679,84.024,-22.256,226.707,10_10_3.csv
2018-07-09T13:57:41.579980,1.545,4.525,0.679,-70.183,-95.0,-26.707,10_10_3.csv
2018-07-09T13:57:41.633626,0.41,1.872,0.229,37.317,-95.793,-75.244,10_10_3.csv
2018-07-09T13:57:41.675240,-0.054,-0.246,0.259,30.671,-99.817,-76.585,10_10_3.csv
2018-07-09T13:57:41.720359,-0.054,-0.246,0.259,48.598,-78.354,-80.183,10_10_3.csv
2018-07-09T13:57:41.769495,0.047,-0.266,0.78,46.524,-19.878,-56.463,10_10_3.csv
2018-07-09T13:57:41.815617,0.047,-0.266,0.78,-103.415,4.573,-34.146,10_10_3.csv
2018-07-09T13:57:41.862748,0.084,-0.337,0.142,-73.232,75.244,86.28,10_10_3.csv
2018-07-09T13:57:41.923413,0.109,0.281,-0.159,56.098,96.463,108.171,10_10_3.csv
2018-07-09T13:57:41.975050,0.109,0.281,-0.159,-34.878,84.39,99.512,10_10_3.csv
2018-07-09T13:57:42.023178,0.55,1.88,0.353,160.549,34.939,38.902,10_10_3.csv
2018-07-09T13:57:42.070307,0.741,3.179,0.362,95.793,27.683,14.878,10_10_3.csv
2018-07-09T13:57:42.116430,0.741,3.179,0.362,44.268,-44.329,-17.439,10_10_3.csv
2018-07-09T13:57:42.174589,0.418,1.818,0.487,73.841,-90.549,-49.39,10_10_3.csv
2018-07-09T13:57:42.223720,0.042,-0.141,0.404,-27.439,-117.866,-65.793,10_10_3.csv
2018-07-09T13:57:42.274862,0.042,-0.141,0.404,-15.366,-105.427,-69.207,10_10_3.csv
2018-07-09T13:57:42.318980,-0.156,-0.598,0.375,99.451,-36.646,-42.012,10_10_3.csv
2018-07-09T13:57:42.371123,-0.156,-0.598,0.375,85.061,16.707,10.732,10_10_3.csv
2018-07-09T13:57:42.421257,0.033,0.006,0.032,10.976,54.573,38.171,10_10_3.csv
2018-07-09T13:57:42.472399,0.339,0.541,0.091,-82.012,41.463,63.232,10_10_3.csv
2018-07-09T13:57:42.518522,0.339,0.541,0.091,-190.915,43.963,63.049,10_10_3.csv
2018-07-09T13:57:42.566655,0.741,1.828,0.389,-146.646,6.89,60.854,10_10_3.csv
2018-07-09T13:57:42.611775,0.741,1.828,0.389,48.476,29.268,38.476,10_10_3.csv
2018-07-09T13:57:43.006967,0.028,-0.043,-0.191,-47.317,100.244,45.122,10_10_3.csv
2018-07-09T13:57:43.085181,-0.125,-0.047,-0.01,21.463,57.134,97.683,10_10_3.csv
2018-07-09T13:57:43.128295,0.232,1.865,0.363,19.939,5.488,140.976,10_10_3.csv
2018-07-09T13:57:43.174423,0.232,1.865,0.363,100.793,-42.927,124.939,10_10_3.csv
2018-07-09T13:57:43.222551,0.909,3.875,0.744,97.866,-74.512,62.317,10_10_3.csv
2018-07-09T13:57:43.268679,0.909,3.875,0.744,-87.5,-126.098,-12.317,10_10_3.csv
2018-07-09T13:57:43.315805,0.515,1.37,0.735,-16.646,-24.024,-44.39,10_10_3.csv
2018-07-09T13:57:43.373966,0.005,-0.203,0.222,12.134,33.841,-46.829,10_10_3.csv
2018-07-09T13:57:43.425102,0.005,-0.203,0.222,1.646,49.878,-51.829,10_10_3.csv
2018-07-09T13:57:43.472232,-0.439,-0.359,-0.265,-23.598,-3.232,-31.341,10_10_3.csv
2018-07-09T13:57:43.526377,-0.101,-0.106,-0.118,17.5,1.341,-1.829,10_10_3.csv
2018-07-09T13:57:43.567491,-0.101,-0.106,-0.118,28.049,15.305,18.598,10_10_3.csv
2018-07-09T13:57:43.615620,0.13,0.418,0.15,11.22,11.037,37.195,10_10_3.csv
2018-07-09T13:57:43.684807,0.706,2.28,1.139,-167.866,6.524,49.634,10_10_3.csv
2018-07-09T13:57:43.737451,0.706,2.28,1.139,-133.963,-2.988,41.22,10_10_3.csv
2018-07-09T13:57:43.783075,0.815,2.869,1.682,-10.183,-19.085,8.72,10_10_3.csv
2018-07-09T13:57:43.831203,0.267,1.12,1.013,-45.854,-53.293,-38.11,10_10_3.csv
2018-07-09T13:57:43.876328,0.267,1.12,1.013,-43.963,3.963,-56.341,10_10_3.csv
2018-07-09T13:57:43.924456,0.01,-0.207,-0.073,-119.512,37.012,-72.5,10_10_3.csv
2018-07-09T13:57:43.976601,0.01,-0.207,-0.073,-105.427,60.122,-78.841,10_10_3.csv
2018-07-09T13:57:44.192356,-0.193,0.09,0.081,142.683,63.537,47.744,10_10_3.csv
2018-07-09T13:57:44.241489,0.397,1.614,0.433,37.866,-31.159,130.549,10_10_3.csv
2018-07-09T13:57:44.285855,0.397,1.614,0.433,244.451,-84.39,180.183,10_10_3.csv
2018-07-09T13:57:44.330976,1.147,4.235,0.837,232.073,-93.963,142.195,10_10_3.csv
2018-07-09T13:57:44.382117,1.147,4.235,0.837,-295.122,-172.866,46.89,10_10_3.csv
2018-07-09T13:57:44.432250,0.514,1.26,0.788,-393.781,-179.451,-38.171,10_10_3.csv
2018-07-09T13:57:44.473364,0.514,1.26,0.788,44.085,-48.232,-29.085,10_10_3.csv
2018-07-09T13:57:44.525503,0.025,-0.078,0.253,4.817,29.146,-76.463,10_10_3.csv
2018-07-09T13:57:44.569626,0.027,-0.193,-0.26,9.207,35.183,-89.207,10_10_3.csv
2018-07-09T13:57:44.618756,0.027,-0.193,-0.26,28.354,-2.012,-52.134,10_10_3.csv
2018-07-09T13:57:44.658867,0.031,-0.077,-0.216,85.305,-7.378,-8.659,10_10_3.csv
2018-07-09T13:57:44.709002,0.031,-0.077,-0.216,190.976,15.244,-12.5,10_10_3.csv
2018-07-09T13:57:44.758137,-0.216,-0.322,0.159,52.866,42.988,37.134,10_10_3.csv
2018-07-09T13:57:44.799246,0.38,2.665,0.435,-26.463,50.976,96.524,10_10_3.csv
2018-07-09T13:57:44.848379,0.38,2.665,0.435,-60.976,118.781,89.817,10_10_3.csv
2018-07-09T13:57:44.897289,1.255,3.875,1.033,-322.561,19.573,-61.22,10_10_3.csv
2018-07-09T13:57:44.942412,1.255,3.875,1.033,-337.805,69.39,-114.146,10_10_3.csv
2018-07-09T13:57:44.991545,0.273,0.243,0.729,-215.305,33.049,-84.512,10_10_3.csv
2018-07-09T13:57:45.035662,0.273,0.243,0.729,-73.049,38.963,-47.317,10_10_3.csv
2018-07-09T13:57:45.088806,-0.219,-0.485,-0.099,92.866,31.585,-67.195,10_10_3.csv
2018-07-09T13:57:45.134428,-0.138,-0.085,-0.382,46.098,23.78,-69.39,10_10_3.csv
2018-07-09T13:57:45.174535,-0.138,-0.085,-0.382,11.402,17.988,-30.61,10_10_3.csv
2018-07-09T13:57:45.225674,0.031,-0.005,-0.271,44.39,32.073,-1.768,10_10_3.csv
2018-07-09T13:57:45.282827,-0.092,0.251,0.265,31.829,56.28,33.78,10_10_3.csv
2018-07-09T13:57:45.333967,-0.092,0.251,0.265,-62.805,12.866,101.037,10_10_3.csv
2018-07-09T13:57:45.435742,0.716,2.549,2.003,-119.939,-136.89,169.146,10_10_3.csv
2018-07-09T13:57:45.483870,1.089,2.118,2.396,53.537,-109.085,-65.61,10_10_3.csv
2018-07-09T13:57:45.521470,-0.058,0.152,1.234,122.744,35.0,7.927,10_10_3.csv
2018-07-09T13:57:45.568596,-0.058,0.152,1.234,60.976,43.537,-41.463,10_10_3.csv
2018-07-09T13:57:45.621738,-0.263,-0.286,-0.101,37.073,74.573,-79.817,10_10_3.csv
2018-07-09T13:57:45.675916,-0.263,-0.286,-0.101,97.683,105.244,-84.268,10_10_3.csv
2018-07-09T13:57:45.726550,-0.288,-0.15,-0.257,3.598,62.317,-65.732,10_10_3.csv
2018-07-09T13:57:45.769666,-0.186,-0.063,0.079,29.329,68.11,-40.0,10_10_3.csv
2018-07-09T13:57:45.821312,-0.186,-0.063,0.079,-2.134,69.024,-18.963,10_10_3.csv
2018-07-09T13:57:45.862923,-0.32,0.62,0.16,-32.012,69.085,11.89,10_10_3.csv
2018-07-09T13:57:45.930102,0.33,3.965,0.739,156.646,6.463,32.683,10_10_3.csv
2018-07-09T13:57:45.985751,0.33,3.965,0.739,100.366,-21.707,-88.415,10_10_3.csv
2018-07-09T13:57:46.046412,-0.163,2.311,1.163,-32.683,-145.427,-56.951,10_10_3.csv
2018-07-09T13:57:46.095042,-0.245,-0.197,0.633,62.561,-154.817,-21.707,10_10_3.csv
2018-07-09T13:57:46.163224,-0.245,-0.197,0.633,261.585,-111.342,3.11,10_10_3.csv
2018-07-09T13:57:46.209848,-0.155,-0.08,0.454,-80.854,-30.061,-19.146,10_10_3.csv
2018-07-09T13:57:46.264494,-0.171,-0.395,-0.159,-186.463,-11.524,25.366,10_10_3.csv
2018-07-09T13:57:46.336185,-0.126,-0.208,-0.191,54.207,56.646,65.0,10_10_3.csv
2018-07-09T13:57:46.379300,-0.126,-0.208,-0.191,50.732,54.817,49.329,10_10_3.csv
2018-07-09T13:57:46.457263,-0.05,0.95,0.206,-130.549,6.037,126.463,10_10_3.csv
2018-07-09T13:57:46.503386,1.55,4.464,0.882,57.988,-37.744,146.098,10_10_3.csv
2018-07-09T13:57:46.551013,1.55,4.464,0.882,114.817,-7.622,0.305,10_10_3.csv
2018-07-09T13:57:46.599141,0.43,2.02,0.91,-15.0,-58.659,-58.354,10_10_3.csv
2018-07-09T13:57:46.647770,-0.353,-0.545,0.353,-18.659,-25.122,8.415,10_10_3.csv
2018-07-09T13:57:46.693893,-0.353,-0.545,0.353,141.402,45.488,-39.268,10_10_3.csv
2018-07-09T13:57:46.802182,-0.503,-0.232,-0.049,-65.915,18.841,-32.988,10_10_3.csv
2018-07-09T13:57:46.852817,-0.255,-0.231,-0.198,10.976,47.073,-5.366,10_10_3.csv
2018-07-09T13:57:46.894929,-0.169,0.061,0.064,-39.329,38.476,-3.11,10_10_3.csv
2018-07-09T13:57:46.946066,-0.169,0.061,0.064,-100.671,29.024,21.402,10_10_3.csv
2018-07-09T13:57:46.989682,0.186,2.15,0.541,-153.902,17.866,58.78,10_10_3.csv
2018-07-09T13:57:47.041821,0.186,2.15,0.541,-117.866,-51.646,52.5,10_10_3.csv
2018-07-09T13:57:47.096481,1.168,3.717,1.456,167.134,-6.768,-93.72,10_10_3.csv
2018-07-09T13:57:47.159649,0.257,1.07,0.816,45.915,2.866,-54.085,10_10_3.csv
2018-07-09T13:57:47.206273,0.257,1.07,0.816,18.902,13.049,7.744,10_10_3.csv
2018-07-09T13:57:47.255405,-0.317,-0.395,-0.032,59.39,68.415,-24.39,10_10_3.csv
2018-07-09T13:57:47.299522,-0.437,-0.323,-0.213,-61.89,31.951,-17.134,10_10_3.csv
2018-07-09T13:57:47.347650,-0.437,-0.323,-0.213,-72.866,34.085,14.146,10_10_3.csv
2018-07-09T13:57:47.398789,-0.23,-0.292,-0.191,0.549,46.22,40.183,10_10_3.csv
2018-07-09T13:57:47.442906,-0.23,-0.292,-0.191,21.463,33.659,40.366,10_10_3.csv
2018-07-09T13:57:47.488031,-0.184,0.293,0.083,0.549,5.427,46.524,10_10_3.csv
2018-07-09T13:57:47.537162,0.703,2.676,0.374,-63.476,-68.72,68.171,10_10_3.csv
2018-07-09T13:57:47.582288,0.703,2.676,0.374,171.707,-99.39,27.622,10_10_3.csv
2018-07-09T13:57:47.628411,0.796,3.346,-0.209,419.146,-66.098,-57.439,10_10_3.csv
2018-07-09T13:57:47.680554,0.796,3.346,-0.209,426.281,-36.28,-83.78,10_10_3.csv
2018-07-09T13:57:47.722667,-0.015,1.537,-0.399,107.195,-3.659,-59.878,10_10_3.csv
2018-07-09T13:57:47.769293,-0.015,1.537,-0.399,-198.232,7.012,-40.854,10_10_3.csv
2018-07-09T13:57:47.816922,-0.139,-0.107,-0.156,-287.561,34.329,-12.988,10_10_3.csv
2018-07-09T13:57:47.862545,-0.265,-0.535,-0.133,-135.61,27.195,-14.756,10_10_3.csv
2018-07-09T13:57:47.910174,-0.265,-0.535,-0.133,-0.793,18.902,-2.805,10_10_3.csv
2018-07-09T13:57:47.966326,-0.171,-0.122,0.018,40.854,15.793,7.927,10_10_3.csv
2018-07-09T13:57:48.007439,-0.171,-0.122,0.018,22.195,17.195,4.268,10_10_3.csv
2018-07-09T13:57:48.051556,-0.231,0.212,-0.021,-16.098,23.537,12.744,10_10_3.csv
2018-07-09T13:57:48.376227,0.049,-0.132,-0.109,-300.183,-30.244,-69.817,10_10_3.csv
2018-07-09T13:57:48.425357,0.05,-0.659,-0.036,-121.524,23.415,-71.89,10_10_3.csv
2018-07-09T13:57:48.484520,0.05,-0.659,-0.036,-49.146,61.463,-46.28,10_10_3.csv
2018-07-09T13:57:48.535656,-0.004,-0.254,0.031,-77.073,102.927,46.22,10_10_3.csv
2018-07-09T13:57:48.583789,-0.129,-0.125,0.001,-61.402,99.451,77.805,10_10_3.csv
2018-07-09T13:57:48.635928,-0.129,-0.125,0.001,-65.061,87.134,115.671,10_10_3.csv
2018-07-09T13:57:48.694085,0.299,1.376,0.077,-128.476,52.378,200.854,10_10_3.csv
2018-07-09T13:57:48.740709,1.516,4.513,0.208,232.5,-92.195,222.988,10_10_3.csv
2018-07-09T13:57:48.789338,1.516,4.513,0.208,59.39,-110.976,37.622,10_10_3.csv
2018-07-09T13:57:48.833957,0.51,1.825,0.561,-193.72,-127.866,-28.049,10_10_3.csv
2018-07-09T13:57:48.878075,0.51,1.825,0.561,-171.829,-38.293,-50.976,10_10_3.csv
2018-07-09T13:57:48.928211,-0.115,-0.455,0.313,-65.488,34.39,-43.72,10_10_3.csv
2018-07-09T13:57:48.972328,-0.115,-0.455,0.313,83.293,104.024,-42.988,10_10_3.csv
2018-07-09T13:57:49.042521,-0.404,-0.255,-0.14,-40.61,30.305,-100.976,10_10_3.csv
2018-07-09T13:57:49.085638,-0.485,-0.232,-0.131,7.683,20.854,-95.671,10_10_3.csv
2018-07-09T13:57:49.132764,-0.485,-0.232,-0.131,39.573,14.207,-79.329,10_10_3.csv
2018-07-09T13:57:49.178385,-0.108,0.085,0.228,-102.317,-47.439,20.244,10_10_3.csv
2018-07-09T13:57:49.224007,0.639,2.27,0.737,-93.354,-56.89,100.854,10_10_3.csv
2018-07-09T13:57:49.272135,0.639,2.27,0.737,-40.671,-75.488,76.098,10_10_3.csv
2018-07-09T13:57:49.317257,0.958,3.764,1.761,-198.903,-28.354,-16.951,10_10_3.csv
2018-07-09T13:57:49.365386,0.958,3.764,1.761,-366.768,17.195,-45.244,10_10_3.csv
2018-07-09T13:57:49.409508,0.143,-0.026,0.798,-100.183,52.195,160.61,10_10_3.csv
2018-07-09T13:57:49.522814,-0.655,0.238,-0.055,221.951,11.037,-56.707,10_10_3.csv
2018-07-09T13:57:49.571945,-0.292,0.08,-0.222,81.037,-18.11,-65.854,10_10_3.csv
2018-07-09T13:57:49.634116,0.129,-0.45,-0.052,-230.671,-64.573,-15.854,10_10_3.csv
2018-07-09T13:57:49.677232,0.129,-0.45,-0.052,-95.305,-32.683,16.28,10_10_3.csv
2018-07-09T13:57:49.726367,-0.009,-0.046,0.292,65.549,8.78,19.512,10_10_3.csv
2018-07-09T13:57:49.771488,-0.009,-0.046,0.292,130.488,37.683,9.695,10_10_3.csv
2018-07-09T13:57:49.823631,-0.312,2.047,0.392,190.915,149.39,-13.902,10_10_3.csv
2018-07-09T13:57:49.881786,0.172,3.987,0.369,-163.781,106.768,-49.878,10_10_3.csv
2018-07-09T13:57:49.926909,0.172,3.987,0.369,-75.793,117.134,-101.646,10_10_3.csv
2018-07-09T13:57:49.972531,-0.256,1.717,-0.17,250.61,187.561,-137.683,10_10_3.csv
2018-07-09T13:57:50.022664,-0.256,1.717,-0.17,448.537,193.171,-201.768,10_10_3.csv
2018-07-09T13:57:50.067784,-0.002,0.052,-0.614,-416.829,-32.622,-152.561,10_10_3.csv
2018-07-09T13:57:50.117419,0.682,-0.948,-0.841,-390.976,-21.22,-67.744,10_10_3.csv
2018-07-09T13:57:50.178083,0.682,-0.948,-0.841,-224.207,-33.11,12.561,10_10_3.csv
2018-07-09T13:57:50.226715,0.015,-0.405,-0.558,130.366,-65.61,72.256,10_10_3.csv
2018-07-09T13:57:50.274843,-0.591,0.502,0.149,130.671,-80.793,82.927,10_10_3.csv
2018-07-09T13:57:50.320969,-0.591,0.502,0.149,134.207,-63.537,76.951,10_10_3.csv
2018-07-09T13:57:50.378626,-1.917,3.053,0.227,79.451,-25.61,22.378,10_10_3.csv
2018-07-09T13:57:50.443800,-1.71,2.618,0.783,-74.024,-44.878,-220.488,10_10_3.csv
2018-07-09T13:57:50.489421,-1.71,2.618,0.783,-40.915,-14.817,-239.573,10_10_3.csv
2018-07-09T13:57:50.536547,-0.41,-0.347,0.141,247.134,73.902,-121.951,10_10_3.csv
2018-07-09T13:57:50.583673,-0.41,-0.347,0.141,783.598,149.817,72.805,10_10_3.csv
2018-07-09T13:57:50.637318,0.474,0.375,-0.597,-176.22,6.037,14.695,10_10_3.csv
2018-07-09T13:57:50.677424,0.444,0.042,-0.374,-185.61,-44.146,16.829,10_10_3.csv
2018-07-09T13:57:50.721547,0.444,0.042,-0.374,-61.037,-85.793,-15.732,10_10_3.csv
2018-07-09T13:57:50.770678,0.233,0.454,-0.349,-231.768,-143.963,-23.537,10_10_3.csv
2018-07-09T13:57:50.817809,0.233,0.454,-0.349,-494.512,-195.305,-53.72,10_10_3.csv
2018-07-09T13:57:50.943144,-1.488,-0.303,1.464,-155.427,-47.317,-123.476,10_10_3.csv
2018-07-09T13:57:50.989774,-2.146,1.219,1.724,321.707,-76.037,93.354,10_10_3.csv
2018-07-09T13:57:51.037402,-2.146,1.219,1.724,165.915,-120.061,181.951,10_10_3.csv
2018-07-09T13:57:51.098065,-0.559,0.333,0.822,72.439,-147.5,185.61,10_10_3.csv
2018-07-09T13:57:51.144189,-0.559,0.333,0.822,179.207,-110.793,215.732,10_10_3.csv
2018-07-09T13:57:51.191318,0.16,-0.133,0.132,665.732,133.476,99.451,10_10_3.csv
2018-07-09T13:57:51.239446,-0.227,0.632,-0.12,374.817,146.037,24.146,10_10_3.csv
2018-07-09T13:57:51.288582,-0.227,0.632,-0.12,-17.5,92.134,19.268,10_10_3.csv
2018-07-09T13:57:51.351751,-0.158,0.214,-0.204,-258.842,22.5,70.854,10_10_3.csv
2018-07-09T13:57:51.400886,0.039,0.76,-0.032,-147.378,-5.732,77.195,10_10_3.csv
2018-07-09T13:57:51.460047,0.039,0.76,-0.032,-87.927,1.22,96.22,10_10_3.csv
2018-07-09T13:57:51.515198,0.956,3.034,0.175,97.866,-50.488,85.61,10_10_3.csv
2018-07-09T13:57:51.567840,0.793,2.923,0.708,9.695,-67.073,-9.573,10_10_3.csv
2018-07-09T13:57:51.614212,0.793,2.923,0.708,-200.488,-101.768,-61.28,10_10_3.csv
2018-07-09T13:57:51.661339,-0.101,-0.146,0.17,-159.695,-27.683,-69.512,10_10_3.csv
2018-07-09T13:57:51.727517,-0.393,-0.566,-0.028,183.781,6.28,-23.293,10_10_3.csv
2018-07-09T13:57:51.775651,-0.393,-0.566,-0.028,174.939,1.159,-27.927,10_10_3.csv
2018-07-09T13:57:51.821773,-0.166,0.085,0.124,69.329,5.366,-9.939,10_10_3.csv
2018-07-09T13:57:51.872915,-0.078,0.096,-0.014,20.793,37.256,23.659,10_10_3.csv
2018-07-09T13:57:51.928061,-0.078,0.096,-0.014,-85.0,7.927,25.488,10_10_3.csv
2018-07-09T13:57:51.975192,-0.218,1.174,0.065,-33.11,-8.598,27.439,10_10_3.csv
2018-07-09T13:57:52.028334,-0.218,1.174,0.065,89.024,-18.049,5.671,10_10_3.csv
2018-07-09T13:57:52.074461,0.148,3.498,-0.22,96.585,-140.854,-50.793,10_10_3.csv
2018-07-09T13:57:52.128605,0.629,2.372,-0.512,200.366,-99.085,-110.732,10_10_3.csv
2018-07-09T13:57:52.181751,0.629,2.372,-0.512,260.427,-31.22,-98.232,10_10_3.csv
2018-07-09T13:57:52.399646,0.194,-0.157,0.025,-17.805,-19.451,-34.878,10_10_3.csv
2018-07-09T13:57:52.457804,-0.446,0.472,0.027,3.354,19.39,-63.049,10_10_3.csv
2018-07-09T13:57:52.506937,-0.446,0.472,0.027,111.22,48.11,-66.524,10_10_3.csv
2018-07-09T13:57:52.551054,-1.096,1.719,-0.982,126.342,-9.756,-106.402,10_10_3.csv
2018-07-09T13:57:52.612222,-1.009,1.804,-1.35,2.195,-75.732,-51.037,10_10_3.csv
2018-07-09T13:57:52.667372,-1.009,1.804,-1.35,-45.671,-49.512,12.012,10_10_3.csv
2018-07-09T13:57:52.709487,-0.448,0.814,-0.683,-12.317,-19.268,-23.049,10_10_3.csv
2018-07-09T13:57:52.758620,-0.236,0.196,-0.041,51.402,-10.976,6.585,10_10_3.csv
2018-07-09T13:57:52.806750,-0.236,0.196,-0.041,-42.378,-27.866,-17.195,10_10_3.csv
2018-07-09T13:57:52.852873,0.003,-0.062,0.042,-65.0,-52.378,-24.39,10_10_3.csv
2018-07-09T13:57:52.912035,0.003,-0.062,0.042,-56.28,-27.988,-8.11,10_10_3.csv
2018-07-09T13:57:52.969191,-0.015,0.068,-0.021,-9.634,-39.939,-31.89,10_10_3.csv
2018-07-09T13:57:53.019826,-0.425,0.616,-0.131,-83.049,-15.671,-26.585,10_10_3.csv
2018-07-09T13:57:53.066951,-0.425,0.616,-0.131,-51.646,-7.378,-23.476,10_10_3.csv
2018-07-09T13:57:53.117085,-1.332,1.282,-0.412,-89.817,-17.5,-22.012,10_10_3.csv
2018-07-09T13:57:53.160703,-1.515,1.511,-0.503,-53.78,-6.22,27.5,10_10_3.csv
2018-07-09T13:57:53.217352,-1.515,1.511,-0.503,47.805,23.78,66.463,10_10_3.csv
2018-07-09T13:57:53.264480,-0.772,1.09,-0.296,98.293,38.598,32.256,10_10_3.csv
2018-07-09T13:57:53.305590,-0.772,1.09,-0.296,48.049,19.085,5.122,10_10_3.csv
2018-07-09T13:57:53.348708,-0.348,0.222,0.002,27.988,3.78,-3.354,10_10_3.csv
2018-07-09T13:57:53.395834,-0.348,0.222,0.002,23.476,-31.341,-23.293,10_10_3.csv
2018-07-09T13:57:53.442964,0.01,-0.077,0.091,-1.768,-5.122,-37.5,10_10_3.csv
2018-07-09T13:57:53.504127,-0.127,0.162,-0.087,101.524,3.659,-42.683,10_10_3.csv
2018-07-09T13:57:53.620945,-0.985,0.565,-0.534,107.622,-3.293,-81.463,10_10_3.csv
2018-07-09T13:57:53.677098,-1.921,0.726,-0.964,57.195,-6.646,-49.451,10_10_3.csv
2018-07-09T13:57:53.722721,-1.632,0.773,-1.041,6.341,4.39,22.012,10_10_3.csv
2018-07-09T13:57:53.771353,-1.632,0.773,-1.041,-14.573,19.817,5.793,10_10_3.csv
2018-07-09T13:57:53.816473,-0.524,0.152,-0.58,-25.366,7.439,6.341,10_10_3.csv
2018-07-09T13:57:53.881652,-0.524,0.152,-0.58,-6.402,-10.244,5.061,10_10_3.csv
2018-07-09T13:57:53.932289,-0.084,-0.057,0.036,-2.256,-31.89,-8.78,10_10_3.csv
2018-07-09T13:57:53.976911,-0.058,-0.041,0.098,-57.073,-24.451,10.183,10_10_3.csv
2018-07-09T13:57:54.083199,-0.087,0.067,-0.094,-62.866,-36.037,0.305,10_10_3.csv
2018-07-09T13:57:54.138851,-1.157,0.715,-0.168,-176.22,-5.183,37.073,10_10_3.csv
2018-07-09T13:57:54.192494,-1.157,0.715,-0.168,-111.768,33.841,-4.695,10_10_3.csv
2018-07-09T13:57:54.250649,-2.228,1.766,-0.541,-79.573,10.671,57.744,10_10_3.csv
2018-07-09T13:57:54.292761,-1.486,1.497,-0.481,-123.476,12.073,38.11,10_10_3.csv
2018-07-09T13:57:54.352922,-1.486,1.497,-0.481,-210.549,2.683,16.037,10_10_3.csv
2018-07-09T13:57:54.403056,-0.544,0.263,-0.037,-42.805,16.22,52.439,10_10_3.csv
2018-07-09T13:57:54.445167,-0.544,0.263,-0.037,-55.793,13.476,98.476,10_10_3.csv
2018-07-09T13:57:54.498309,-0.107,-0.009,0.147,-139.085,-46.341,-14.573,10_10_3.csv
2018-07-09T13:57:54.540923,0.061,-0.012,0.072,-94.756,-8.841,29.878,10_10_3.csv
2018-07-09T13:57:54.587547,0.061,-0.012,0.072,-122.744,-19.085,20.915,10_10_3.csv
2018-07-09T13:57:54.635174,-0.164,0.318,0.287,-75.488,-0.671,-16.22,10_10_3.csv
2018-07-09T13:57:54.677788,-0.164,0.318,0.287,-103.11,9.39,20.915,10_10_3.csv
2018-07-09T13:57:54.739455,-0.999,0.987,0.847,-173.781,-16.28,-56.646,10_10_3.csv
2018-07-09T13:57:54.800119,-1.639,1.121,1.418,-99.573,-38.11,-24.573,10_10_3.csv
2018-07-09T13:57:54.848751,-1.639,1.121,1.418,18.659,-18.78,-3.598,10_10_3.csv
2018-07-09T13:57:54.894876,-1.197,0.975,1.249,68.72,8.415,-0.427,10_10_3.csv
2018-07-09T13:57:54.975594,-0.339,0.241,0.244,85.488,10.427,9.207,10_10_3.csv
2018-07-09T13:57:55.026736,0.143,-0.151,-0.18,71.098,-18.537,-28.171,10_10_3.csv
2018-07-09T13:57:55.077872,0.143,-0.151,-0.18,200.488,11.951,-15.976,10_10_3.csv
2018-07-09T13:57:55.135030,-0.018,0.104,0.154,113.354,37.134,-13.293,10_10_3.csv
2018-07-09T13:57:55.177142,-0.614,0.582,0.224,40.61,27.5,-7.012,10_10_3.csv
2018-07-09T13:57:55.222267,-0.614,0.582,0.224,20.976,24.817,-3.354,10_10_3.csv
2018-07-09T13:57:55.271398,-1.635,1.488,0.143,92.439,37.317,10.61,10_10_3.csv
2018-07-09T13:57:55.317525,-1.635,1.488,0.143,54.329,3.049,32.439,10_10_3.csv
2018-07-09T13:57:55.376683,-1.559,1.788,-0.056,69.024,7.256,67.683,10_10_3.csv
2018-07-09T13:57:55.446875,-0.66,0.574,-0.027,100.549,-20.244,45.549,10_10_3.csv
2018-07-09T13:57:55.494503,-0.087,-0.046,0.219,142.439,-7.744,-80.549,10_10_3.csv
2018-07-09T13:57:55.536118,-0.087,-0.046,0.219,64.39,7.378,-20.793,10_10_3.csv
2018-07-09T13:57:55.588259,0.029,0.186,0.011,-49.451,-27.195,5.549,10_10_3.csv
2018-07-09T13:57:55.628368,0.029,0.186,0.011,-51.159,-10.915,-2.561,10_10_3.csv
2018-07-09T13:57:55.706581,-0.351,0.491,-0.21,-73.659,-10.0,-7.927,10_10_3.csv
2018-07-09T13:57:55.763734,-1.153,0.999,-0.254,14.39,-3.171,13.841,10_10_3.csv
2018-07-09T13:57:55.808858,-1.153,0.999,-0.254,150.61,13.78,-67.744,10_10_3.csv
2018-07-09T13:57:55.851973,-1.676,2.06,-0.537,173.842,33.841,-2.622,10_10_3.csv
2018-07-09T13:57:55.903111,-0.943,1.239,-0.069,-120.244,-3.537,58.72,10_10_3.csv
2018-07-09T13:57:55.942218,-0.943,1.239,-0.069,-76.768,12.683,40.305,10_10_3.csv
2018-07-09T13:57:56.006394,0.03,-0.011,-0.037,-306.585,-27.134,69.573,10_10_3.csv
2018-07-09T13:57:56.062544,0.002,-0.257,-0.45,-45.61,14.207,71.89,10_10_3.csv
2018-07-09T13:57:56.114687,0.002,-0.257,-0.45,177.5,49.634,43.293,10_10_3.csv
2018-07-09T13:57:56.162815,-0.025,0.263,0.008,102.561,29.573,31.341,10_10_3.csv
2018-07-09T13:57:56.208942,-0.025,0.263,0.008,5.793,2.439,18.476,10_10_3.csv
2018-07-09T13:57:56.255065,0.13,0.829,0.328,-9.817,36.951,39.634,10_10_3.csv
2018-07-09T13:57:56.343304,-0.198,2.142,0.191,-7.134,49.085,178.11,10_10_3.csv
2018-07-09T13:57:56.384414,-0.295,3.051,-0.11,34.939,55.305,193.903,10_10_3.csv
2018-07-09T13:57:56.426531,-0.295,3.051,-0.11,-93.659,14.268,153.293,10_10_3.csv
2018-07-09T13:57:56.474659,-0.2,1.217,0.007,-55.671,-15.854,132.195,10_10_3.csv
2018-07-09T13:57:56.520788,-0.2,1.217,0.007,-28.902,-11.098,123.232,10_10_3.csv
2018-07-09T13:57:56.566911,-0.362,-0.123,0.213,-47.134,-10.061,111.342,10_10_3.csv
2018-07-09T13:57:56.628078,-0.312,-0.154,0.239,-13.72,-16.951,61.524,10_10_3.csv
2018-07-09T13:57:56.683225,-0.312,-0.154,0.239,-7.683,-5.0,53.598,10_10_3.csv
2018-07-09T13:57:56.723336,-0.017,0.448,0.175,-27.5,11.524,61.098,10_10_3.csv
2018-07-09T13:57:56.769459,-0.017,0.448,0.175,-39.634,23.598,48.841,10_10_3.csv
2018-07-09T13:57:56.817592,0.535,1.361,0.531,10.793,51.768,-45.305,10_10_3.csv
2018-07-09T13:57:56.862712,1.57,2.766,0.61,41.707,23.171,-43.537,10_10_3.csv
2018-07-09T13:57:56.927890,1.57,2.766,0.61,84.939,36.037,-56.037,10_10_3.csv
2018-07-09T13:57:56.978024,1.07,1.935,0.598,-57.927,-31.89,-85.793,10_10_3.csv
2018-07-09T13:57:57.025154,-0.156,-0.078,0.136,-5.0,-3.537,-73.963,10_10_3.csv
2018-07-09T13:57:57.072279,-0.156,-0.078,0.136,77.195,-3.598,-53.11,10_10_3.csv
2018-07-09T13:57:57.119409,-0.365,-0.327,-0.005,148.963,-20.793,-46.28,10_10_3.csv
2018-07-09T13:57:57.179571,-0.365,-0.327,-0.005,126.098,-17.805,-40.732,10_10_3.csv
2018-07-09T13:57:57.242743,-0.246,-0.124,0.097,31.402,34.512,-1.463,10_10_3.csv
2018-07-09T13:57:57.288866,-0.077,-0.031,0.109,-10.183,31.524,2.012,10_10_3.csv
2018-07-09T13:57:57.332989,-0.077,-0.031,0.109,-91.037,9.39,11.585,10_10_3.csv
2018-07-09T13:57:57.379113,0.655,1.654,0.128,-95.122,-2.927,57.073,10_10_3.csv
2018-07-09T13:57:57.427245,1.463,3.813,0.072,-15.488,14.451,80.061,10_10_3.csv
2018-07-09T13:57:57.473368,1.463,3.813,0.072,-71.829,-34.268,-27.866,10_10_3.csv
2018-07-09T13:57:57.530524,0.33,1.475,0.158,7.561,-38.598,-42.622,10_10_3.csv
2018-07-09T13:57:57.588680,-0.046,-0.393,0.119,-55.183,-27.744,-70.305,10_10_3.csv
2018-07-09T13:57:57.632801,-0.046,-0.393,0.119,17.561,18.902,-75.732,10_10_3.csv
2018-07-09T13:57:57.849426,-0.021,0.281,0.164,-80.976,10.122,58.659,10_10_3.csv
2018-07-09T13:57:57.896554,-0.021,0.281,0.164,-44.207,-14.512,73.598,10_10_3.csv
2018-07-09T13:57:57.952217,1.402,3.75,0.241,-68.659,0.915,-21.28,10_10_3.csv
2018-07-09T13:57:57.990318,0.955,2.384,0.44,-30.671,38.902,-87.927,10_10_3.csv
2018-07-09T13:57:58.036948,0.955,2.384,0.44,38.659,16.524,-54.878,10_10_3.csv
2018-07-09T13:57:58.083070,-0.416,0.322,0.165,3.415,-8.72,-24.573,10_10_3.csv
2018-07-09T13:57:58.130198,-0.416,0.322,0.165,-33.598,-18.963,-23.78,10_10_3.csv
2018-07-09T13:57:58.191361,-0.564,-0.393,-0.07,-42.988,-40.976,-56.829,10_10_3.csv
2018-07-09T13:57:58.248513,-0.386,-0.23,-0.058,25.61,-27.866,-41.402,10_10_3.csv
2018-07-09T13:57:58.305164,-0.386,-0.23,-0.058,58.841,-20.366,-19.085,10_10_3.csv
2018-07-09T13:57:58.355802,0.08,0.187,0.063,-41.829,-24.451,12.134,10_10_3.csv
2018-07-09T13:57:58.400921,0.98,1.47,0.356,-93.78,-5.854,25.244,10_10_3.csv
2018-07-09T13:57:58.441033,0.98,1.47,0.356,-115.549,15.427,34.756,10_10_3.csv
2018-07-09T13:57:58.503198,0.941,2.586,0.62,93.354,52.744,73.049,10_10_3.csv
2018-07-09T13:57:58.554339,-0.093,2.709,0.429,-4.573,-40.0,88.902,10_10_3.csv
2018-07-09T13:57:58.598456,-0.093,2.709,0.429,-106.707,-62.5,26.585,10_10_3.csv
2018-07-09T13:57:58.645587,-0.253,0.447,0.094,54.695,-20.244,-33.354,10_10_3.csv
2018-07-09T13:57:58.693715,-0.253,0.447,0.094,47.683,-3.11,-70.305,10_10_3.csv
2018-07-09T13:57:58.741849,-0.24,-0.318,0.153,-8.963,-9.451,-93.537,10_10_3.csv
2018-07-09T13:57:58.784963,-0.24,-0.318,0.153,-52.439,-25.366,-81.463,10_10_3.csv
2018-07-09T13:57:58.832593,-0.213,-0.141,0.06,-75.366,4.817,-14.634,10_10_3.csv
2018-07-09T13:57:58.882228,0.202,0.05,0.027,-60.061,-20.732,13.415,10_10_3.csv
2018-07-09T13:57:58.925344,0.202,0.05,0.027,-60.305,18.841,16.037,10_10_3.csv
2018-07-09T13:57:59.288329,-0.268,-0.199,-0.039,-38.902,17.134,-86.463,10_10_3.csv
2018-07-09T13:57:59.341475,-0.268,-0.199,-0.039,-115.732,-3.598,-52.317,10_10_3.csv
2018-07-09T13:57:59.384590,0.047,-0.378,-0.269,-138.354,-21.585,-2.805,10_10_3.csv
2018-07-09T13:57:59.426203,0.047,-0.378,-0.269,-106.585,-32.439,58.476,10_10_3.csv
2018-07-09T13:57:59.477843,0.044,-0.013,0.213,5.854,9.878,41.829,10_10_3.csv
2018-07-09T13:57:59.583631,-0.249,1.449,0.465,114.756,42.683,57.256,10_10_3.csv
2018-07-09T13:57:59.643792,-0.551,3.102,0.228,374.939,61.28,-24.268,10_10_3.csv
