time,accel_x_list,accel_y_list,accel_z_list,gyro_x_list,gyro_y_list,gyro_z_list,filename
2018-07-10T10:54:33.478511,-1.062,-0.276,0.233,24.512,-14.939,-23.72,11_10_1.csv
2018-07-10T10:54:33.523132,-1.018,-0.25,0.211,14.512,-21.951,-31.646,11_10_1.csv
2018-07-10T10:54:33.569759,-1.018,-0.25,0.211,4.268,-24.512,-35.793,11_10_1.csv
2018-07-10T10:54:33.616884,-0.997,-0.264,0.195,-0.366,-24.695,-37.073,11_10_1.csv
2018-07-10T10:54:33.669527,-0.962,-0.304,0.166,-47.073,-29.024,-44.573,11_10_1.csv
2018-07-10T10:54:33.711138,-0.962,-0.304,0.166,-65.0,-23.78,-50.183,11_10_1.csv
2018-07-10T10:54:33.758765,-0.842,-0.401,0.117,-33.415,-14.024,-41.829,11_10_1.csv
2018-07-10T10:54:33.807394,-0.842,-0.401,0.117,9.878,1.341,-20.915,11_10_1.csv
2018-07-10T10:54:33.851512,-0.758,-0.325,0.14,37.561,16.768,2.012,11_10_1.csv
2018-07-10T10:54:33.898637,-0.758,-0.325,0.14,50.671,28.72,22.073,11_10_1.csv
2018-07-10T10:54:33.957294,-0.63,-0.22,0.235,74.573,22.073,15.305,11_10_1.csv
2018-07-10T10:54:34.012942,-1.348,-0.482,0.358,50.061,46.524,13.537,11_10_1.csv
2018-07-10T10:54:34.060067,-2.407,-1.024,0.404,30.793,-55.915,-35.61,11_10_1.csv
2018-07-10T10:54:34.124239,-2.407,-1.024,0.404,-30.976,-126.463,-109.207,11_10_1.csv
2018-07-10T10:54:34.168356,-0.851,-0.614,0.327,-69.695,-132.744,-131.281,11_10_1.csv
2018-07-10T10:54:34.214980,-0.851,-0.614,0.327,-101.037,-102.561,-88.232,11_10_1.csv
2018-07-10T10:54:34.272135,0.107,-0.278,0.316,-38.354,-8.841,-20.183,11_10_1.csv
2018-07-10T10:54:34.320263,0.079,-0.051,0.214,-34.939,1.402,-36.646,11_10_1.csv
2018-07-10T10:54:34.365390,0.079,-0.051,0.214,-27.5,19.512,-56.768,11_10_1.csv
2018-07-10T10:54:34.414520,-0.156,-0.313,0.252,11.28,29.085,-59.39,11_10_1.csv
2018-07-10T10:54:34.460648,-0.156,-0.313,0.252,72.5,5.732,-50.183,11_10_1.csv
2018-07-10T10:54:34.506771,-1.012,-1.113,0.569,150.976,42.256,-32.256,11_10_1.csv
2018-07-10T10:54:34.564930,-1.925,-1.833,0.803,42.927,-18.598,-2.988,11_10_1.csv
2018-07-10T10:54:34.617069,-1.925,-1.833,0.803,-60.976,-83.232,-16.707,11_10_1.csv
2018-07-10T10:54:34.671218,-0.625,-1.006,0.542,-3.232,-24.939,-38.659,11_10_1.csv
2018-07-10T10:54:34.715335,0.326,0.166,0.217,1.159,-43.354,-54.512,11_10_1.csv
2018-07-10T10:54:34.762467,0.326,0.166,0.217,-49.39,-0.366,-64.451,11_10_1.csv
2018-07-10T10:54:34.994245,-1.402,-2.643,0.642,133.842,45.793,52.927,11_10_1.csv
2018-07-10T10:54:35.046389,-1.031,-1.502,0.547,33.293,-48.415,3.354,11_10_1.csv
2018-07-10T10:54:35.116576,0.065,0.096,0.267,50.305,-24.634,6.037,11_10_1.csv
2018-07-10T10:54:35.163706,0.065,0.096,0.267,-10.061,-23.78,-2.5,11_10_1.csv
2018-07-10T10:54:35.211835,0.178,0.149,0.055,-36.402,5.305,-3.537,11_10_1.csv
2018-07-10T10:54:35.259464,0.178,0.149,0.055,-7.561,-6.341,5.0,11_10_1.csv
2018-07-10T10:54:35.304585,-0.035,-0.139,0.253,-8.598,-9.146,16.768,11_10_1.csv
2018-07-10T10:54:35.358228,-0.972,-1.78,0.678,-24.634,42.256,29.512,11_10_1.csv
2018-07-10T10:54:35.414879,-0.972,-1.78,0.678,67.439,103.476,51.646,11_10_1.csv
2018-07-10T10:54:35.464009,-1.69,-1.854,0.829,155.0,14.329,72.988,11_10_1.csv
2018-07-10T10:54:35.527681,-0.655,-0.26,0.533,7.5,22.927,63.049,11_10_1.csv
2018-07-10T10:54:35.589348,-0.076,-0.135,0.229,-72.317,1.098,64.024,11_10_1.csv
2018-07-10T10:54:35.632967,-0.076,-0.135,0.229,-24.939,-34.451,39.024,11_10_1.csv
2018-07-10T10:54:35.679090,0.017,0.042,0.108,-6.524,-22.683,17.012,11_10_1.csv
2018-07-10T10:54:35.726220,0.017,0.042,0.108,-26.037,5.854,31.22,11_10_1.csv
2018-07-10T10:54:35.774349,-0.44,-0.042,0.183,-63.354,2.744,52.317,11_10_1.csv
2018-07-10T10:54:35.819474,-0.44,-0.042,0.183,-100.305,55.793,72.866,11_10_1.csv
2018-07-10T10:54:35.867602,-2.471,-0.841,-0.047,-109.817,116.585,125.854,11_10_1.csv
2018-07-10T10:54:35.913730,-2.595,-1.018,0.149,-147.012,30.366,206.768,11_10_1.csv
2018-07-10T10:54:35.959854,-2.595,-1.018,0.149,-155.793,103.232,162.5,11_10_1.csv
2018-07-10T10:54:36.007986,-0.779,-0.737,0.413,13.598,72.195,140.305,11_10_1.csv
2018-07-10T10:54:36.056115,-0.779,-0.737,0.413,127.988,-59.878,77.805,11_10_1.csv
2018-07-10T10:54:36.119023,0.464,-0.022,0.394,-32.317,39.695,-7.561,11_10_1.csv
2018-07-10T10:54:36.323578,-3.057,-0.512,-0.193,-113.902,0.976,-17.866,11_10_1.csv
2018-07-10T10:54:36.369701,-3.057,-0.512,-0.193,-215.244,-135.0,-101.829,11_10_1.csv
2018-07-10T10:54:36.415829,-1.766,-0.591,0.136,-45.122,24.695,-147.927,11_10_1.csv
2018-07-10T10:54:36.460949,-1.766,-0.591,0.136,256.037,60.732,-130.976,11_10_1.csv
2018-07-10T10:54:36.514095,-0.148,0.399,0.166,63.171,-93.293,-131.524,11_10_1.csv
2018-07-10T10:54:36.569242,-0.062,0.228,0.148,-72.561,-1.22,-152.988,11_10_1.csv
2018-07-10T10:54:36.617374,-0.062,0.228,0.148,-73.171,-37.012,-155.244,11_10_1.csv
2018-07-10T10:54:36.664499,-0.409,-0.261,0.092,-13.78,-49.024,-123.232,11_10_1.csv
2018-07-10T10:54:36.710120,-0.409,-0.261,0.092,51.22,0.732,-73.902,11_10_1.csv
2018-07-10T10:54:36.758249,-1.683,-0.617,0.118,82.073,13.78,102.012,11_10_1.csv
2018-07-10T10:54:36.817407,-2.125,-0.917,0.178,-60.183,25.854,147.866,11_10_1.csv
2018-07-10T10:54:36.867039,-2.125,-0.917,0.178,-166.524,72.073,157.683,11_10_1.csv
2018-07-10T10:54:36.916170,-0.834,-0.661,0.369,45.122,37.744,128.72,11_10_1.csv
2018-07-10T10:54:36.967807,0.112,-0.045,0.456,80.61,9.512,70.305,11_10_1.csv
2018-07-10T10:54:37.013930,0.112,-0.045,0.456,-23.171,37.134,53.171,11_10_1.csv
2018-07-10T10:54:37.055541,-0.042,-0.272,0.293,-17.805,3.598,67.195,11_10_1.csv
2018-07-10T10:54:37.130760,-1.369,-0.307,0.099,17.866,77.988,36.098,11_10_1.csv
2018-07-10T10:54:37.181395,-1.369,-0.307,0.099,-4.817,135.488,37.317,11_10_1.csv
2018-07-10T10:54:37.228019,-2.881,-0.438,-0.134,-95.366,-50.305,23.171,11_10_1.csv
2018-07-10T10:54:37.275145,-2.881,-0.438,-0.134,-171.159,-62.012,-14.512,11_10_1.csv
2018-07-10T10:54:37.319262,-1.555,-0.651,0.101,77.683,-63.171,-66.585,11_10_1.csv
2018-07-10T10:54:37.366388,0.171,-0.035,0.182,139.024,-134.146,-102.866,11_10_1.csv
2018-07-10T10:54:37.418026,0.171,-0.035,0.182,37.256,-70.549,-129.878,11_10_1.csv
2018-07-10T10:54:37.476682,-0.087,-0.002,0.028,-13.598,-44.939,-128.659,11_10_1.csv
2018-07-10T10:54:37.558400,-0.642,-0.258,0.129,63.11,72.805,-78.902,11_10_1.csv
2018-07-10T10:54:37.604021,-2.167,-0.271,-0.179,112.012,75.244,0.61,11_10_1.csv
2018-07-10T10:54:37.647136,-2.167,-0.271,-0.179,71.768,-4.512,71.768,11_10_1.csv
2018-07-10T10:54:37.696267,-2.319,-0.573,0.178,-71.463,44.024,136.951,11_10_1.csv
2018-07-10T10:54:37.751916,-2.319,-0.573,0.178,-113.659,119.695,172.012,11_10_1.csv
2018-07-10T10:54:37.806060,-0.595,-0.38,0.458,100.122,-25.915,71.951,11_10_1.csv
2018-07-10T10:54:37.851180,0.257,0.134,0.324,-24.634,16.402,38.354,11_10_1.csv
2018-07-10T10:54:37.899810,0.257,0.134,0.324,-116.951,67.561,71.341,11_10_1.csv
2018-07-10T10:54:37.946935,-0.246,-0.432,0.232,-90.183,-11.951,77.5,11_10_1.csv
2018-07-10T10:54:37.997069,-0.246,-0.432,0.232,-42.683,-48.415,56.951,11_10_1.csv
2018-07-10T10:54:38.049208,-1.567,-0.466,-0.021,-73.232,137.195,0.0,11_10_1.csv
2018-07-10T10:54:38.100845,-3.102,-0.541,-0.19,-132.5,-65.061,-61.037,11_10_1.csv
2018-07-10T10:54:38.152984,-3.102,-0.541,-0.19,-134.939,-87.439,-107.256,11_10_1.csv
2018-07-10T10:54:38.196600,-1.269,-0.341,0.153,-29.024,16.524,-130.793,11_10_1.csv
2018-07-10T10:54:38.242723,0.248,-0.177,0.31,155.61,-83.171,-112.195,11_10_1.csv
2018-07-10T10:54:38.289350,0.248,-0.177,0.31,189.695,45.244,-87.866,11_10_1.csv
2018-07-10T10:54:38.347505,-0.214,0.111,0.229,269.512,15.732,-60.244,11_10_1.csv
2018-07-10T10:54:38.398645,-0.214,0.111,0.229,149.634,-66.159,-83.659,11_10_1.csv
2018-07-10T10:54:38.443766,-0.483,-0.056,0.162,5.854,-42.5,-68.659,11_10_1.csv
2018-07-10T10:54:38.493401,-2.013,-0.387,-0.22,1.707,58.11,-32.744,11_10_1.csv
2018-07-10T10:54:38.538020,-2.013,-0.387,-0.22,-14.573,-32.256,19.329,11_10_1.csv
2018-07-10T10:54:38.602692,-2.356,-0.509,0.108,-97.805,-16.524,91.28,11_10_1.csv
2018-07-10T10:54:38.653327,-0.883,-0.206,0.297,-8.841,160.915,121.402,11_10_1.csv
2018-07-10T10:54:38.714490,-0.883,-0.206,0.297,113.415,-1.22,75.61,11_10_1.csv
2018-07-10T10:54:38.763120,0.128,0.28,0.219,-195.427,75.732,90.0,11_10_1.csv
2018-07-10T10:54:38.806736,-0.384,-0.463,0.291,-116.524,47.622,70.122,11_10_1.csv
2018-07-10T10:54:38.918539,-1.452,-0.479,0.274,47.378,76.646,99.634,11_10_1.csv
2018-07-10T10:54:38.959148,-1.452,-0.479,0.274,26.28,114.146,101.22,11_10_1.csv
2018-07-10T10:54:39.016304,-2.618,-0.86,0.119,-146.402,-68.537,-24.146,11_10_1.csv
2018-07-10T10:54:39.072456,-1.741,-0.977,0.127,-45.732,-57.073,-86.646,11_10_1.csv
2018-07-10T10:54:39.118080,-1.741,-0.977,0.127,88.537,-81.28,-144.268,11_10_1.csv
2018-07-10T10:54:39.165708,-0.666,-0.334,0.167,137.439,-68.171,-274.024,11_10_1.csv
2018-07-10T10:54:39.213837,-0.968,-0.013,-0.098,203.293,-75.366,-290.427,11_10_1.csv
2018-07-10T10:54:39.258962,-0.968,-0.013,-0.098,200.854,-126.037,-290.915,11_10_1.csv
2018-07-10T10:54:39.310098,-0.929,0.183,-0.019,142.439,-139.817,-282.256,11_10_1.csv
2018-07-10T10:54:39.368257,-0.789,-0.153,0.07,45.976,-99.817,-134.634,11_10_1.csv
2018-07-10T10:54:39.415384,-0.789,-0.153,0.07,19.085,-41.28,43.171,11_10_1.csv
2018-07-10T10:54:39.469532,-1.339,-0.393,0.133,-97.866,54.512,190.183,11_10_1.csv
2018-07-10T10:54:39.506631,-1.339,-0.393,0.133,-240.61,142.012,261.707,11_10_1.csv
2018-07-10T10:54:39.556769,-1.85,-0.754,0.317,-237.805,161.951,331.402,11_10_1.csv
2018-07-10T10:54:39.614924,-0.811,-0.686,0.555,54.329,116.707,340.915,11_10_1.csv
2018-07-10T10:54:39.663556,-0.811,-0.686,0.555,158.72,25.183,215.915,11_10_1.csv
2018-07-10T10:54:39.710180,-0.302,-0.147,0.343,-10.0,58.415,117.073,11_10_1.csv
2018-07-10T10:54:39.758308,-0.302,-0.147,0.343,-216.098,23.72,70.244,11_10_1.csv
2018-07-10T10:54:39.803930,-1.311,-0.696,0.007,-226.768,10.549,29.268,11_10_1.csv
2018-07-10T10:54:39.850554,-2.492,-0.834,-0.198,-105.244,-13.049,3.11,11_10_1.csv
2018-07-10T10:54:39.904698,-2.492,-0.834,-0.198,-127.073,-3.293,-29.817,11_10_1.csv
2018-07-10T10:54:39.964357,-1.622,-0.785,0.106,6.28,31.646,-78.171,11_10_1.csv
2018-07-10T10:54:40.116264,-0.405,0.376,0.024,225.061,-43.72,-176.829,11_10_1.csv
2018-07-10T10:54:40.169409,-0.405,0.376,0.024,171.281,-76.646,-190.732,11_10_1.csv
2018-07-10T10:54:40.215532,-0.546,-0.059,0.257,9.146,-36.28,-142.134,11_10_1.csv
2018-07-10T10:54:40.319315,-1.743,-0.676,-0.087,103.72,-44.695,145.793,11_10_1.csv
2018-07-10T10:54:40.377974,-2.117,-0.464,-0.044,-354.756,56.341,175.122,11_10_1.csv
2018-07-10T10:54:40.435128,-1.0,-1.021,0.477,-306.22,182.988,137.195,11_10_1.csv
2018-07-10T10:54:40.479747,-1.0,-1.021,0.477,118.902,135.488,166.463,11_10_1.csv
2018-07-10T10:54:40.526371,0.132,-0.076,0.265,391.159,38.902,105.061,11_10_1.csv
2018-07-10T10:54:40.578511,-0.208,0.286,0.292,-33.293,58.415,110.061,11_10_1.csv
2018-07-10T10:54:40.636666,-0.208,0.286,0.292,-93.171,1.098,67.195,11_10_1.csv
2018-07-10T10:54:40.694820,-1.213,-0.269,-0.001,-253.72,113.537,23.415,11_10_1.csv
2018-07-10T10:54:40.742949,-2.915,-1.117,-0.245,-338.415,-38.232,-20.793,11_10_1.csv
2018-07-10T10:54:40.790075,-2.915,-1.117,-0.245,-329.634,-127.317,-44.634,11_10_1.csv
2018-07-10T10:54:40.855249,-1.701,-1.018,0.277,272.683,54.329,-97.561,11_10_1.csv
2018-07-10T10:54:40.900370,-0.406,0.269,0.034,371.159,-45.366,-180.976,11_10_1.csv
2018-07-10T10:54:40.948498,-0.406,0.269,0.034,124.024,-104.634,-200.915,11_10_1.csv
2018-07-10T10:54:41.012675,0.086,0.397,0.097,-27.744,-99.756,-171.768,11_10_1.csv
2018-07-10T10:54:41.059800,-0.449,-0.401,0.233,104.024,-10.244,-120.976,11_10_1.csv
2018-07-10T10:54:41.100914,-0.449,-0.401,0.233,241.037,-27.683,-59.024,11_10_1.csv
2018-07-10T10:54:41.153053,-1.754,-0.236,-0.061,264.207,64.207,30.244,11_10_1.csv
2018-07-10T10:54:41.209207,-1.754,-0.236,-0.061,172.622,47.866,131.22,11_10_1.csv
2018-07-10T10:54:41.258337,-2.493,-0.254,0.074,-277.5,104.634,100.305,11_10_1.csv
2018-07-10T10:54:41.303461,-0.976,-0.646,0.451,-287.256,123.293,63.171,11_10_1.csv
2018-07-10T10:54:41.371144,-0.976,-0.646,0.451,-88.963,30.549,72.866,11_10_1.csv
2018-07-10T10:54:41.418774,0.274,-0.309,0.301,-13.537,52.195,82.927,11_10_1.csv
2018-07-10T10:54:41.485958,-0.12,-0.315,0.315,-26.646,53.293,79.451,11_10_1.csv
2018-07-10T10:54:41.538097,-0.927,-0.313,0.269,16.707,34.207,17.744,11_10_1.csv
2018-07-10T10:54:41.584224,-0.927,-0.313,0.269,4.878,152.378,12.012,11_10_1.csv
2018-07-10T10:54:41.700540,-2.236,-0.703,0.105,-98.72,-34.878,-24.146,11_10_1.csv
2018-07-10T10:54:41.746163,-2.236,-0.703,0.105,4.756,-41.646,-50.427,11_10_1.csv
2018-07-10T10:54:41.792290,-0.328,-0.188,0.205,184.878,-83.537,-110.427,11_10_1.csv
2018-07-10T10:54:41.872504,0.122,0.38,0.034,35.061,-115.549,-184.695,11_10_1.csv
2018-07-10T10:54:41.931161,0.122,0.38,0.034,-78.293,-44.817,-154.329,11_10_1.csv
2018-07-10T10:54:41.976281,-0.325,-0.327,0.178,-28.293,-41.463,-130.793,11_10_1.csv
2018-07-10T10:54:42.027919,-1.463,-0.341,-0.01,172.988,27.439,-20.244,11_10_1.csv
2018-07-10T10:54:42.072540,-1.463,-0.341,-0.01,144.878,15.793,77.134,11_10_1.csv
2018-07-10T10:54:42.117660,-2.464,-0.532,0.109,12.805,-17.073,144.146,11_10_1.csv
2018-07-10T10:54:42.172812,-2.464,-0.532,0.109,-173.598,78.963,142.317,11_10_1.csv
2018-07-10T10:54:42.228961,-1.508,-0.774,0.405,26.646,66.829,97.805,11_10_1.csv
2018-07-10T10:54:42.274086,0.25,0.273,0.2,70.122,-85.854,51.159,11_10_1.csv
2018-07-10T10:54:42.320209,0.25,0.273,0.2,-143.171,-35.366,44.512,11_10_1.csv
2018-07-10T10:54:42.367339,-0.047,-0.271,0.052,-247.256,81.646,46.341,11_10_1.csv
2018-07-10T10:54:42.417473,-0.047,-0.271,0.052,-134.085,-2.866,40.549,11_10_1.csv
2018-07-10T10:54:42.467611,-0.442,-0.513,0.294,26.341,67.317,68.171,11_10_1.csv
2018-07-10T10:54:42.523761,-2.549,-0.419,-0.237,-21.037,170.061,92.317,11_10_1.csv
2018-07-10T10:54:42.568885,-2.549,-0.419,-0.237,-115.549,23.11,82.561,11_10_1.csv
2018-07-10T10:54:42.617013,-2.592,-0.799,0.049,-175.854,-43.963,25.732,11_10_1.csv
2018-07-10T10:54:42.663140,-0.624,-0.366,0.376,199.024,-16.951,-78.354,11_10_1.csv
2018-07-10T10:54:42.713274,-0.624,-0.366,0.376,200.061,-97.073,-132.195,11_10_1.csv
2018-07-10T10:54:42.772437,0.299,0.31,0.145,26.768,-88.841,-138.963,11_10_1.csv
2018-07-10T10:54:42.822570,0.299,0.31,0.145,-6.159,-17.073,-133.11,11_10_1.csv
2018-07-10T10:54:42.867696,-0.16,-0.13,0.195,163.293,-50.427,-51.098,11_10_1.csv
2018-07-10T10:54:42.914822,-1.015,-0.098,0.067,169.634,-25.549,-15.244,11_10_1.csv
2018-07-10T10:54:43.126434,-1.791,-0.791,0.21,-88.476,109.573,50.671,11_10_1.csv
2018-07-10T10:54:43.178076,0.167,-0.19,0.349,198.11,-17.561,51.463,11_10_1.csv
2018-07-10T10:54:43.236231,0.167,-0.046,0.187,-83.78,96.707,38.476,11_10_1.csv
2018-07-10T10:54:43.288873,0.167,-0.046,0.187,-31.829,64.024,29.756,11_10_1.csv
2018-07-10T10:54:43.338006,-0.253,-0.333,0.306,28.11,-1.159,12.866,11_10_1.csv
2018-07-10T10:54:43.383626,-0.253,-0.333,0.306,54.085,1.037,1.951,11_10_1.csv
2018-07-10T10:54:43.429752,-1.771,-0.217,-0.019,-23.537,173.537,17.622,11_10_1.csv
2018-07-10T10:54:43.479885,-3.204,-0.453,-0.167,-76.707,-64.085,7.256,11_10_1.csv
2018-07-10T10:54:43.535038,-3.204,-0.453,-0.167,-128.537,-58.72,-15.0,11_10_1.csv
2018-07-10T10:54:43.589182,-1.222,-0.39,0.272,66.28,-83.476,-35.122,11_10_1.csv
2018-07-10T10:54:43.634307,0.598,0.016,0.233,30.915,-158.72,-43.415,11_10_1.csv
2018-07-10T10:54:43.681433,0.598,0.016,0.233,-36.463,6.768,-19.024,11_10_1.csv
2018-07-10T10:54:43.726054,-0.114,-0.375,0.068,24.39,55.0,-6.829,11_10_1.csv
2018-07-10T10:54:43.774183,-0.114,-0.375,0.068,119.207,-30.793,-13.598,11_10_1.csv
2018-07-10T10:54:43.831836,-0.42,-0.167,0.163,170.0,-12.805,-37.073,11_10_1.csv
2018-07-10T10:54:43.883975,-2.212,-0.073,-0.2,39.878,120.427,-22.317,11_10_1.csv
2018-07-10T10:54:43.930599,-2.212,-0.073,-0.2,-130.427,6.829,-9.146,11_10_1.csv
2018-07-10T10:54:43.978228,-2.679,-0.722,-0.068,-237.927,-78.78,21.341,11_10_1.csv
2018-07-10T10:54:44.024351,-2.679,-0.722,-0.068,-194.451,45.244,36.89,11_10_1.csv
2018-07-10T10:54:44.069475,-0.696,-0.525,0.347,96.829,88.11,36.159,11_10_1.csv
2018-07-10T10:54:44.121615,0.37,0.5,0.209,76.098,-40.915,-49.146,11_10_1.csv
2018-07-10T10:54:44.163731,0.37,0.5,0.209,-176.524,6.098,18.72,11_10_1.csv
2018-07-10T10:54:44.210856,-0.033,-0.482,0.247,-136.342,-29.268,19.024,11_10_1.csv
2018-07-10T10:54:44.259488,-0.033,-0.482,0.247,-21.951,-15.366,22.317,11_10_1.csv
2018-07-10T10:54:44.305611,-0.804,-0.41,0.163,100.732,2.134,9.817,11_10_1.csv
2018-07-10T10:54:44.416409,-3.043,-0.183,-0.322,-93.72,-71.28,37.561,11_10_1.csv
2018-07-10T10:54:44.471559,-2.154,-0.539,0.041,-241.281,-49.695,-8.293,11_10_1.csv
2018-07-10T10:54:44.529212,0.147,-0.152,0.286,90.244,-65.122,-51.646,11_10_1.csv
2018-07-10T10:54:44.577842,0.147,-0.152,0.286,151.768,-108.354,-84.939,11_10_1.csv
2018-07-10T10:54:44.633490,0.375,0.205,0.177,-67.927,43.598,49.695,11_10_1.csv
2018-07-10T10:54:44.684125,-0.228,-0.532,0.136,54.451,-43.72,47.5,11_10_1.csv
2018-07-10T10:54:44.725736,-0.228,-0.532,0.136,151.402,-10.732,32.744,11_10_1.csv
2018-07-10T10:54:44.778878,-1.648,-0.073,-0.059,151.585,101.098,1.159,11_10_1.csv
2018-07-10T10:54:44.836030,-3.067,-0.427,-0.268,-134.756,-54.939,-5.427,11_10_1.csv
2018-07-10T10:54:44.886665,-3.067,-0.427,-0.268,-179.146,-14.207,-1.28,11_10_1.csv
2018-07-10T10:54:44.933793,-1.306,-0.619,0.259,-51.28,38.72,3.476,11_10_1.csv
2018-07-10T10:54:44.977911,-1.306,-0.619,0.259,169.207,-14.695,-6.829,11_10_1.csv
2018-07-10T10:54:45.022034,0.412,0.335,0.343,158.415,-76.402,-55.732,11_10_1.csv
2018-07-10T10:54:45.094734,0.048,-0.205,0.188,-103.049,19.268,19.573,11_10_1.csv
2018-07-10T10:54:45.149382,0.048,-0.205,0.188,-10.549,-33.841,23.232,11_10_1.csv
2018-07-10T10:54:45.195007,-0.264,-0.356,0.139,76.646,-47.805,20.793,11_10_1.csv
2018-07-10T10:54:45.243636,-2.347,-0.175,-0.134,38.78,164.756,13.232,11_10_1.csv
2018-07-10T10:54:45.288255,-2.347,-0.175,-0.134,-99.695,-22.012,-0.671,11_10_1.csv
2018-07-10T10:54:45.334881,-2.831,-0.676,-0.066,-207.317,-70.366,-4.878,11_10_1.csv
2018-07-10T10:54:45.388023,-2.831,-0.676,-0.066,-170.427,20.549,1.159,11_10_1.csv
2018-07-10T10:54:45.429137,-0.883,-0.385,0.308,96.524,46.768,17.195,11_10_1.csv
2018-07-10T10:54:45.476262,-0.883,-0.385,0.308,249.146,-83.659,-32.5,11_10_1.csv
2018-07-10T10:54:45.525397,0.461,0.398,0.292,-69.207,39.695,-4.939,11_10_1.csv
2018-07-10T10:54:45.570518,-0.177,-0.259,0.236,39.634,-8.72,-18.659,11_10_1.csv
2018-07-10T10:54:45.617144,-0.177,-0.259,0.236,66.402,-45.61,-6.646,11_10_1.csv
2018-07-10T10:54:45.669790,-0.522,-0.125,0.137,60.915,-65.183,-1.341,11_10_1.csv
2018-07-10T10:54:45.791112,-2.512,-0.308,-0.25,-164.39,-87.073,34.573,11_10_1.csv
2018-07-10T10:54:45.836233,-2.381,-0.69,0.031,-226.585,-36.159,44.634,11_10_1.csv
2018-07-10T10:54:45.884862,-0.489,-0.56,0.405,117.988,55.183,70.183,11_10_1.csv
2018-07-10T10:54:45.931988,-0.489,-0.56,0.405,266.159,-22.622,7.805,11_10_1.csv
2018-07-10T10:54:45.983628,0.318,0.238,0.378,76.098,3.049,-38.841,11_10_1.csv
2018-07-10T10:54:46.031756,0.318,0.238,0.378,-80.488,45.122,-5.244,11_10_1.csv
2018-07-10T10:54:46.086908,-0.068,-0.407,0.274,44.634,-12.744,-2.805,11_10_1.csv
2018-07-10T10:54:46.133031,-0.982,-0.278,0.094,130.488,27.622,-4.268,11_10_1.csv
2018-07-10T10:54:46.180697,-0.982,-0.278,0.094,128.598,146.402,20.549,11_10_1.csv
2018-07-10T10:54:46.225817,-3.14,-0.247,-0.131,48.171,41.159,39.085,11_10_1.csv
2018-07-10T10:54:46.273449,-3.14,-0.247,-0.131,-115.732,-90.183,-2.805,11_10_1.csv
2018-07-10T10:54:46.331604,-2.008,-0.548,0.08,-11.829,-26.22,-77.134,11_10_1.csv
2018-07-10T10:54:46.383749,0.179,0.344,0.134,124.329,-133.232,-113.537,11_10_1.csv
2018-07-10T10:54:46.431877,0.179,0.344,0.134,-33.476,-120.244,-124.329,11_10_1.csv
2018-07-10T10:54:46.481012,0.032,-0.003,0.131,-103.781,53.354,-55.976,11_10_1.csv
2018-07-10T10:54:46.528138,-0.209,-0.208,0.152,107.317,-57.134,-22.927,11_10_1.csv
2018-07-10T10:54:46.571259,-0.209,-0.208,0.152,141.646,-28.049,-7.561,11_10_1.csv
2018-07-10T10:54:46.623398,-1.419,-0.274,0.02,118.659,83.902,19.695,11_10_1.csv
2018-07-10T10:54:46.684568,-2.84,-0.414,0.041,40.854,-13.415,94.451,11_10_1.csv
2018-07-10T10:54:46.729687,-2.84,-0.414,0.041,-149.756,50.793,79.634,11_10_1.csv
2018-07-10T10:54:46.775815,-1.572,-0.521,0.121,-239.146,87.195,65.183,11_10_1.csv
2018-07-10T10:54:46.820936,-1.572,-0.521,0.121,-78.476,-12.256,62.622,11_10_1.csv
2018-07-10T10:54:46.866060,0.434,0.023,0.124,-30.183,-110.427,39.39,11_10_1.csv
2018-07-10T10:54:46.941262,-0.146,-0.489,0.422,-55.732,95.671,125.61,11_10_1.csv
2018-07-10T10:54:47.014461,-0.278,-0.132,0.324,27.378,7.256,20.122,11_10_1.csv
2018-07-10T10:54:47.097687,-2.313,-0.649,-0.122,-0.976,193.354,-27.073,11_10_1.csv
2018-07-10T10:54:47.153839,-2.313,-0.649,-0.122,97.561,78.232,20.427,11_10_1.csv
2018-07-10T10:54:47.210991,-3.142,-0.465,-0.133,-35.488,-79.573,-71.037,11_10_1.csv
2018-07-10T10:54:47.257114,-1.045,-0.424,0.125,-3.232,-58.171,-148.415,11_10_1.csv
2018-07-10T10:54:47.307248,-1.045,-0.424,0.125,129.146,-100.244,-197.988,11_10_1.csv
2018-07-10T10:54:47.367910,-0.21,-0.037,-0.028,167.927,-51.768,-241.524,11_10_1.csv
2018-07-10T10:54:47.425563,-0.4,0.205,0.104,135.183,-87.683,-225.61,11_10_1.csv
2018-07-10T10:54:47.480209,-0.4,0.205,0.104,68.293,-128.232,-209.329,11_10_1.csv
2018-07-10T10:54:47.522321,-0.358,-0.133,0.184,17.317,-112.073,-176.829,11_10_1.csv
2018-07-10T10:54:47.572959,-0.892,-0.722,-0.025,115.122,-53.659,-8.415,11_10_1.csv
2018-07-10T10:54:47.619081,-0.892,-0.722,-0.025,156.342,-39.207,184.085,11_10_1.csv
2018-07-10T10:54:47.663204,-1.957,-0.354,0.015,-121.037,58.78,314.024,11_10_1.csv
2018-07-10T10:54:47.729383,-1.944,-1.156,0.554,-312.317,253.11,310.976,11_10_1.csv
2018-07-10T10:54:47.773504,-1.944,-1.156,0.554,180.244,243.293,374.573,11_10_1.csv
2018-07-10T10:54:47.818623,-0.436,-0.125,0.256,352.073,100.427,236.951,11_10_1.csv
2018-07-10T10:54:47.867759,-0.436,-0.125,0.256,141.098,101.037,121.646,11_10_1.csv
2018-07-10T10:54:47.912879,-0.36,0.26,0.256,-125.793,55.732,59.085,11_10_1.csv
2018-07-10T10:54:47.960010,-0.36,0.26,0.256,-258.476,7.134,10.366,11_10_1.csv
2018-07-10T10:54:48.016159,-0.791,-0.729,0.217,-176.585,35.732,33.598,11_10_1.csv
2018-07-10T10:54:48.072314,-2.445,-0.962,-0.21,-42.317,27.622,108.963,11_10_1.csv
2018-07-10T10:54:48.133480,-2.331,-1.003,0.05,-247.378,-95.854,-57.195,11_10_1.csv
2018-07-10T10:54:48.185624,-2.331,-1.003,0.05,-119.268,44.024,-202.683,11_10_1.csv
2018-07-10T10:54:48.231747,-1.47,-0.841,-0.232,236.098,70.549,-290.915,11_10_1.csv
2018-07-10T10:54:48.272859,-1.47,-0.841,-0.232,426.463,-15.366,-376.463,11_10_1.csv
2018-07-10T10:54:48.337535,-1.633,0.288,-0.596,421.768,-204.512,-307.134,11_10_1.csv
2018-07-10T10:54:48.383158,-0.809,0.575,0.067,217.134,-292.561,-344.878,11_10_1.csv
2018-07-10T10:54:48.469075,-0.487,0.032,-0.122,-128.963,-153.902,-256.402,11_10_1.csv
2018-07-10T10:54:48.509182,-0.487,0.032,-0.122,-139.024,-121.585,-152.683,11_10_1.csv
2018-07-10T10:54:48.553304,-0.793,-0.235,-0.446,-120.793,-121.707,-6.829,11_10_1.csv
2018-07-10T10:54:48.600430,-0.793,-0.235,-0.446,-139.024,-73.78,263.842,11_10_1.csv
2018-07-10T10:54:48.653576,-2.266,-0.855,0.082,-202.805,183.598,702.134,11_10_1.csv
2018-07-10T10:54:48.710728,-2.657,-1.773,0.408,117.317,252.866,653.354,11_10_1.csv
2018-07-10T10:54:48.758861,-2.657,-1.773,0.408,423.049,89.329,453.842,11_10_1.csv
2018-07-10T10:54:48.805986,-0.32,0.041,0.42,59.451,18.78,200.244,11_10_1.csv
2018-07-10T10:54:48.850108,-0.32,0.041,0.42,-239.329,95.183,41.951,11_10_1.csv
2018-07-10T10:54:48.897234,-0.511,-0.487,0.155,-167.134,-56.951,-17.439,11_10_1.csv
2018-07-10T10:54:48.952386,-1.303,-0.868,0.072,-101.768,-4.756,45.671,11_10_1.csv
2018-07-10T10:54:49.012546,-1.303,-0.868,0.072,-68.049,12.622,110.732,11_10_1.csv
2018-07-10T10:54:49.056669,-2.415,-0.819,-0.068,-216.646,-44.634,-66.463,11_10_1.csv
2018-07-10T10:54:49.104797,-1.432,-0.714,0.18,-134.512,35.244,-219.573,11_10_1.csv
2018-07-10T10:54:49.148918,-1.432,-0.714,0.18,109.207,57.683,-260.915,11_10_1.csv
2018-07-10T10:54:49.194040,-0.465,0.203,0.065,206.524,-1.89,-269.878,11_10_1.csv
2018-07-10T10:54:49.251196,-0.465,0.203,0.065,102.439,-49.024,-254.939,11_10_1.csv
2018-07-10T10:54:49.305340,-0.611,0.042,0.114,247.256,61.402,-177.622,11_10_1.csv
2018-07-10T10:54:49.365506,-1.088,-0.002,0.046,224.756,-28.171,-179.756,11_10_1.csv
2018-07-10T10:54:49.414636,-1.088,-0.002,0.046,153.171,28.232,-132.012,11_10_1.csv
2018-07-10T10:54:49.458758,-1.816,-0.419,-0.011,20.976,24.207,114.268,11_10_1.csv
2018-07-10T10:54:49.506887,-1.897,-0.608,0.133,-149.39,106.951,211.89,11_10_1.csv
2018-07-10T10:54:49.563041,-1.897,-0.608,0.133,-256.768,140.0,235.244,11_10_1.csv
2018-07-10T10:54:49.617185,-0.842,-0.77,0.434,-177.5,109.817,221.403,11_10_1.csv
2018-07-10T10:54:49.667822,0.001,-0.172,0.317,89.634,20.549,93.11,11_10_1.csv
2018-07-10T10:54:49.715951,0.001,-0.172,0.317,-49.634,60.61,86.524,11_10_1.csv
2018-07-10T10:54:49.762073,-0.267,-0.345,0.324,-88.232,-6.707,61.707,11_10_1.csv
2018-07-10T10:54:49.883898,-1.48,-0.363,0.043,-42.744,107.805,9.085,11_10_1.csv
2018-07-10T10:54:49.932528,-2.726,-0.557,-0.141,-119.634,-62.805,3.598,11_10_1.csv
2018-07-10T10:54:49.997200,-1.549,-0.888,0.118,-115.732,-4.695,-56.341,11_10_1.csv
2018-07-10T10:54:50.041819,-1.549,-0.888,0.118,128.963,-2.805,-70.427,11_10_1.csv
2018-07-10T10:54:50.090449,-0.326,-0.038,0.138,302.927,-69.146,-137.927,11_10_1.csv
2018-07-10T10:54:50.134065,-0.326,-0.038,0.138,193.963,-90.549,-211.463,11_10_1.csv
2018-07-10T10:54:50.183697,-0.24,0.429,-0.009,-88.72,-95.122,-210.0,11_10_1.csv
2018-07-10T10:54:50.243857,-0.326,-0.338,0.225,-63.72,-97.622,-191.829,11_10_1.csv
2018-07-10T10:54:50.295495,-0.326,-0.338,0.225,29.329,-34.329,-145.427,11_10_1.csv
2018-07-10T10:54:50.341618,-1.425,-0.483,-0.042,140.915,37.317,-61.037,11_10_1.csv
2018-07-10T10:54:50.385234,-2.25,-0.609,0.033,33.293,27.256,188.171,11_10_1.csv
2018-07-10T10:54:50.431858,-2.25,-0.609,0.033,-162.378,138.537,237.866,11_10_1.csv
2018-07-10T10:54:50.483999,-1.635,-0.79,0.595,-169.329,240.61,230.549,11_10_1.csv
2018-07-10T10:54:50.527112,-1.635,-0.79,0.595,66.098,146.159,214.634,11_10_1.csv
2018-07-10T10:54:50.574238,-0.035,-0.038,0.433,152.927,26.768,146.829,11_10_1.csv
2018-07-10T10:54:50.632894,-0.116,0.08,0.254,-99.39,29.39,84.268,11_10_1.csv
2018-07-10T10:54:50.682025,-0.116,0.08,0.254,-195.732,-19.939,48.72,11_10_1.csv
2018-07-10T10:54:50.727647,-0.519,-0.787,0.183,-221.281,-44.573,35.244,11_10_1.csv
2018-07-10T10:54:50.773770,-0.519,-0.787,0.183,-134.329,14.634,30.671,11_10_1.csv
2018-07-10T10:54:50.832928,-2.537,-0.767,-0.081,-29.634,-61.402,-22.073,11_10_1.csv
2018-07-10T10:54:50.883061,-2.628,-0.4,-0.057,-59.085,-55.915,-107.378,11_10_1.csv
2018-07-10T10:54:50.930688,-2.628,-0.4,-0.057,-21.707,8.841,-172.256,11_10_1.csv
2018-07-10T10:54:50.979318,-0.677,0.149,0.244,124.268,-20.427,-179.024,11_10_1.csv
2018-07-10T10:54:51.024939,-0.677,0.149,0.244,105.732,-131.342,-198.11,11_10_1.csv
2018-07-10T10:54:51.069576,0.127,0.204,0.211,-27.195,37.683,-122.195,11_10_1.csv
2018-07-10T10:54:51.119710,-0.49,-0.251,0.1,97.866,-9.878,-117.683,11_10_1.csv
2018-07-10T10:54:51.335573,-2.239,-0.549,0.069,-61.159,60.122,124.939,11_10_1.csv
2018-07-10T10:54:51.383703,-1.922,-0.695,0.282,-198.781,151.22,157.683,11_10_1.csv
2018-07-10T10:54:51.430833,-0.214,-0.379,0.327,15.61,28.11,138.354,11_10_1.csv
2018-07-10T10:54:51.474952,-0.214,-0.379,0.327,47.5,-7.012,87.622,11_10_1.csv
2018-07-10T10:54:51.523081,0.031,-0.163,0.332,-37.073,86.951,76.037,11_10_1.csv
2018-07-10T10:54:51.577230,0.031,-0.163,0.332,-70.61,46.585,67.073,11_10_1.csv
2018-07-10T10:54:51.634384,-0.199,-0.42,0.372,-33.171,-10.183,32.439,11_10_1.csv
2018-07-10T10:54:51.679506,-1.45,-0.362,0.098,-11.098,65.915,8.415,11_10_1.csv
2018-07-10T10:54:51.731146,-1.45,-0.362,0.098,20.61,162.805,6.707,11_10_1.csv
2018-07-10T10:54:51.771757,-3.28,-0.227,-0.206,-11.28,-40.732,-10.854,11_10_1.csv
2018-07-10T10:54:51.824898,-3.28,-0.227,-0.206,-122.073,-130.305,-59.512,11_10_1.csv
2018-07-10T10:54:51.874034,-1.678,-0.329,0.09,-9.146,-81.28,-91.768,11_10_1.csv
2018-07-10T10:54:51.936202,0.199,0.024,0.188,58.598,-145.427,-91.159,11_10_1.csv
2018-07-10T10:54:51.982328,0.199,0.024,0.188,26.341,-83.841,-92.5,11_10_1.csv
2018-07-10T10:54:52.028451,0.052,0.044,0.009,-11.707,-10.366,-78.171,11_10_1.csv
2018-07-10T10:54:52.077587,-0.28,-0.12,0.179,38.72,-23.537,-56.098,11_10_1.csv
2018-07-10T10:54:52.118696,-0.28,-0.12,0.179,60.061,-23.415,-56.89,11_10_1.csv
2018-07-10T10:54:52.170841,-1.337,-0.407,0.0,62.561,49.146,-35.549,11_10_1.csv
2018-07-10T10:54:52.226990,-1.337,-0.407,0.0,118.902,125.0,11.951,11_10_1.csv
2018-07-10T10:54:52.274619,-2.748,-0.361,-0.181,-48.902,18.841,49.329,11_10_1.csv
2018-07-10T10:54:52.321243,-1.983,-0.742,0.35,-181.585,129.024,82.134,11_10_1.csv
2018-07-10T10:54:52.367868,-1.983,-0.742,0.35,-43.11,142.927,123.659,11_10_1.csv
2018-07-10T10:54:52.413991,0.007,0.027,0.381,156.342,-0.61,69.085,11_10_1.csv
2018-07-10T10:54:52.468137,0.007,0.027,0.381,45.366,-21.341,-6.524,11_10_1.csv
2018-07-10T10:54:52.728905,-3.109,-0.349,-0.271,62.195,98.78,19.695,11_10_1.csv
2018-07-10T10:54:52.774028,-3.109,-0.349,-0.271,8.171,-89.329,-9.207,11_10_1.csv
2018-07-10T10:54:52.821156,-2.728,-0.299,-0.25,-126.463,-122.622,-84.878,11_10_1.csv
2018-07-10T10:54:52.882323,-0.5,-0.163,0.144,16.585,-43.11,-107.378,11_10_1.csv
2018-07-10T10:54:52.928446,-0.5,-0.163,0.144,108.963,-103.354,-89.268,11_10_1.csv
2018-07-10T10:54:52.984601,0.237,0.252,0.089,50.122,-76.585,-61.463,11_10_1.csv
2018-07-10T10:54:53.040752,-0.197,0.033,0.031,2.439,-3.11,-23.415,11_10_1.csv
2018-07-10T10:54:53.089887,-0.197,0.033,0.031,25.427,-48.902,-16.89,11_10_1.csv
2018-07-10T10:54:53.134003,-0.18,0.003,0.1,20.915,-17.622,-10.854,11_10_1.csv
2018-07-10T10:54:53.178123,-0.18,0.003,0.1,7.622,-3.78,-11.159,11_10_1.csv
2018-07-10T10:54:53.233272,-1.338,-0.32,-0.119,21.159,86.402,16.524,11_10_1.csv
2018-07-10T10:54:53.281404,-2.779,-0.369,-0.27,60.793,-4.573,114.329,11_10_1.csv
2018-07-10T10:54:53.337554,-2.779,-0.369,-0.27,-54.939,46.829,109.207,11_10_1.csv
2018-07-10T10:54:53.398722,-2.486,-0.709,0.112,8.841,115.732,80.244,11_10_1.csv
2018-07-10T10:54:53.445847,-0.492,0.001,0.371,143.476,2.622,33.171,11_10_1.csv
2018-07-10T10:54:53.490972,-0.492,0.001,0.371,3.171,-81.524,-29.451,11_10_1.csv
2018-07-10T10:54:53.539100,0.395,0.032,0.369,-166.646,-15.549,-13.293,11_10_1.csv
2018-07-10T10:54:53.615807,-0.073,-0.59,0.287,-22.622,-17.012,15.793,11_10_1.csv
2018-07-10T10:54:53.666944,-0.073,-0.59,0.287,104.817,-50.915,20.122,11_10_1.csv
2018-07-10T10:54:53.713568,-0.194,-0.091,0.265,125.793,-45.122,22.683,11_10_1.csv
2018-07-10T10:54:53.758688,-2.258,-0.296,-0.174,52.805,-25.0,5.366,11_10_1.csv
2018-07-10T10:54:53.805312,-2.258,-0.296,-0.174,-104.817,-5.488,-35.0,11_10_1.csv
2018-07-10T10:54:53.850934,-2.949,-0.572,-0.259,-183.293,-158.659,-87.561,11_10_1.csv
2018-07-10T10:54:53.966138,-1.535,-0.356,-0.102,173.049,9.573,-60.0,11_10_1.csv
2018-07-10T10:54:54.015272,0.147,0.38,0.252,160.976,-76.707,-72.561,11_10_1.csv
2018-07-10T10:54:54.055381,0.147,0.38,0.252,57.5,-33.293,-73.354,11_10_1.csv
2018-07-10T10:54:54.102506,0.037,0.195,0.131,37.256,80.183,-28.841,11_10_1.csv
2018-07-10T10:54:54.154649,0.037,0.195,0.131,51.585,26.951,14.634,11_10_1.csv
2018-07-10T10:54:54.201775,-0.218,0.022,0.118,57.195,-27.866,21.89,11_10_1.csv
2018-07-10T10:54:54.242889,-0.874,-0.093,-0.016,-12.073,22.5,27.134,11_10_1.csv
2018-07-10T10:54:54.288010,-0.874,-0.093,-0.016,-58.049,137.134,50.366,11_10_1.csv
2018-07-10T10:54:54.337644,-3.045,-0.551,-0.433,-69.634,49.39,80.061,11_10_1.csv
2018-07-10T10:54:54.383266,-3.045,-0.551,-0.433,-126.768,-70.488,96.22,11_10_1.csv
2018-07-10T10:54:54.430393,-2.546,-0.807,0.025,-187.988,35.976,52.378,11_10_1.csv
2018-07-10T10:54:54.488050,-0.569,-0.152,0.244,253.903,50.915,40.122,11_10_1.csv
2018-07-10T10:54:54.544703,-0.569,-0.152,0.244,186.951,-77.256,-34.207,11_10_1.csv
2018-07-10T10:54:54.588822,0.443,0.385,0.341,-95.671,-39.695,-34.756,11_10_1.csv
2018-07-10T10:54:54.635950,0.443,0.385,0.341,-168.842,63.415,20.61,11_10_1.csv
2018-07-10T10:54:54.683075,-0.083,-0.525,0.228,-82.195,-23.72,31.951,11_10_1.csv
2018-07-10T10:54:54.726194,-0.121,-0.172,0.216,75.305,-70.61,24.512,11_10_1.csv
2018-07-10T10:54:54.785353,-0.121,-0.172,0.216,31.768,-50.549,-4.817,11_10_1.csv
2018-07-10T10:54:54.843512,-1.482,-0.243,0.022,-41.037,72.622,-30.366,11_10_1.csv
2018-07-10T10:54:54.882617,-1.482,-0.243,0.022,-99.085,94.451,-46.707,11_10_1.csv
2018-07-10T10:54:54.938267,-2.896,-0.571,-0.274,-41.646,-67.744,-32.073,11_10_1.csv
2018-07-10T10:54:54.983387,-2.277,-0.47,-0.077,-24.451,14.512,-38.537,11_10_1.csv
2018-07-10T10:54:55.040540,-2.277,-0.47,-0.077,80.915,62.317,0.915,11_10_1.csv
2018-07-10T10:54:55.086162,-0.791,0.024,0.302,63.598,-73.049,-7.195,11_10_1.csv
2018-07-10T10:54:55.131783,0.27,0.358,0.327,-12.622,-76.341,-11.951,11_10_1.csv
2018-07-10T10:54:55.179411,0.27,0.358,0.327,-24.939,4.512,-8.841,11_10_1.csv
2018-07-10T10:54:55.280307,-0.121,-0.052,0.137,-21.098,-50.366,9.146,11_10_1.csv
2018-07-10T10:54:55.341472,-0.1,-0.11,0.095,-14.085,-50.122,15.061,11_10_1.csv
2018-07-10T10:54:55.398626,-1.057,-0.303,-0.042,-45.671,17.683,16.159,11_10_1.csv
2018-07-10T10:54:55.446255,-1.057,-0.303,-0.042,-30.671,132.561,34.878,11_10_1.csv
2018-07-10T10:54:55.493885,-2.55,-0.437,-0.302,-97.012,-46.28,19.573,11_10_1.csv
2018-07-10T10:54:55.545023,-2.43,-0.709,-0.014,-110.244,71.402,-2.256,11_10_1.csv
2018-07-10T10:54:55.598167,-2.43,-0.709,-0.014,97.317,121.402,31.463,11_10_1.csv
2018-07-10T10:54:55.648805,-0.916,0.25,0.302,-13.293,-53.476,-44.573,11_10_1.csv
2018-07-10T10:54:55.695431,0.299,0.115,0.427,-142.744,-50.61,-23.476,11_10_1.csv
2018-07-10T10:54:55.761612,0.299,0.115,0.427,-106.463,-15.61,21.768,11_10_1.csv
2018-07-10T10:54:55.809740,-0.061,-0.44,0.176,67.5,-21.22,18.293,11_10_1.csv
2018-07-10T10:54:55.856871,-0.594,-0.206,0.136,138.902,-19.695,15.122,11_10_1.csv
2018-07-10T10:54:55.922045,-0.594,-0.206,0.136,133.902,93.171,23.476,11_10_1.csv
2018-07-10T10:54:55.976193,-2.966,-0.173,-0.506,-175.0,-116.768,-41.951,11_10_1.csv
2018-07-10T10:54:56.022317,-2.063,-0.648,0.092,-236.22,-78.598,-76.585,11_10_1.csv
2018-07-10T10:54:56.071451,-2.063,-0.648,0.092,-11.402,63.78,-63.598,11_10_1.csv
2018-07-10T10:54:56.115569,0.134,0.194,0.415,200.0,-15.488,-77.073,11_10_1.csv
2018-07-10T10:54:56.163702,0.134,0.194,0.415,89.695,-63.659,-61.463,11_10_1.csv
2018-07-10T10:54:56.214839,0.119,0.013,0.269,111.89,-14.268,34.207,11_10_1.csv
2018-07-10T10:54:56.277010,-0.388,-0.175,0.054,170.915,-29.451,30.488,11_10_1.csv
2018-07-10T10:54:56.319122,-0.388,-0.175,0.054,120.366,-16.341,41.829,11_10_1.csv
2018-07-10T10:54:56.369261,-2.229,-0.116,-0.262,23.354,110.61,24.024,11_10_1.csv
2018-07-10T10:54:56.414382,-2.65,-0.502,-0.163,-277.805,-113.537,-86.22,11_10_1.csv
2018-07-10T10:54:56.465523,-2.65,-0.502,-0.163,-175.915,-0.366,-69.573,11_10_1.csv
2018-07-10T10:54:56.521674,-0.444,-0.012,0.356,55.732,20.0,-23.963,11_10_1.csv
2018-07-10T10:54:56.577828,0.358,0.074,0.324,-42.134,1.646,50.671,11_10_1.csv
2018-07-10T10:54:56.680105,-0.21,-0.358,0.176,38.537,23.415,58.841,11_10_1.csv
2018-07-10T10:54:56.728233,-0.21,-0.358,0.176,73.171,12.5,62.439,11_10_1.csv
2018-07-10T10:54:56.773359,-1.386,-0.279,0.005,84.39,51.646,55.549,11_10_1.csv
2018-07-10T10:54:56.819481,-3.072,-0.329,-0.404,-96.524,-22.988,-23.415,11_10_1.csv
2018-07-10T10:54:56.875636,-3.072,-0.329,-0.404,-220.793,-88.415,-80.671,11_10_1.csv
2018-07-10T10:54:56.932788,-1.421,-0.447,0.292,-70.0,23.476,-68.293,11_10_1.csv
2018-07-10T10:54:56.978917,0.528,0.294,0.371,115.244,-144.756,-60.854,11_10_1.csv
2018-07-10T10:54:57.027045,0.528,0.294,0.371,-81.463,27.378,25.61,11_10_1.csv
2018-07-10T10:54:57.071167,-0.131,-0.222,0.073,34.39,15.854,40.976,11_10_1.csv
2018-07-10T10:54:57.116288,-0.131,-0.222,0.073,147.927,-43.72,10.244,11_10_1.csv
2018-07-10T10:54:57.174449,-0.413,-0.008,0.126,139.39,-57.622,15.244,11_10_1.csv
2018-07-10T10:54:57.232603,-2.307,-0.294,-0.268,-62.378,133.598,1.829,11_10_1.csv
2018-07-10T10:54:57.272716,-2.307,-0.294,-0.268,-154.451,-43.171,-32.805,11_10_1.csv
2018-07-10T10:54:57.329867,-2.586,-0.699,-0.091,-208.293,-68.11,-38.11,11_10_1.csv
2018-07-10T10:54:57.370979,-2.586,-0.699,-0.091,-93.049,77.927,-6.829,11_10_1.csv
2018-07-10T10:54:57.417102,-0.586,-0.058,0.357,211.646,-57.622,-13.598,11_10_1.csv
2018-07-10T10:54:57.465230,0.297,0.146,0.297,-93.72,18.476,17.744,11_10_1.csv
2018-07-10T10:54:57.524388,0.297,0.146,0.297,-75.122,47.683,62.683,11_10_1.csv
2018-07-10T10:54:57.571012,-0.195,-0.342,0.256,77.622,8.659,20.976,11_10_1.csv
2018-07-10T10:54:57.617637,-0.195,-0.342,0.256,116.037,-5.915,16.341,11_10_1.csv
2018-07-10T10:54:57.663762,-0.964,-0.12,0.105,21.037,148.293,30.183,11_10_1.csv
2018-07-10T10:54:57.709885,-3.041,-0.354,-0.391,-73.659,31.707,-1.341,11_10_1.csv
2018-07-10T10:54:57.764034,-3.041,-0.354,-0.391,-210.427,-117.317,-42.134,11_10_1.csv
2018-07-10T10:54:57.805143,-1.772,-0.511,0.078,-213.963,-42.439,-68.598,11_10_1.csv
2018-07-10T10:54:57.851273,-1.772,-0.511,0.078,-19.756,24.878,-61.341,11_10_1.csv
2018-07-10T10:54:57.899401,0.27,0.164,0.334,73.415,-42.012,-31.098,11_10_1.csv
2018-07-10T10:54:57.944527,0.084,-0.017,0.156,-15.915,69.39,48.598,11_10_1.csv
2018-07-10T10:54:58.055827,-0.33,-0.282,0.125,143.232,-23.72,53.841,11_10_1.csv
2018-07-10T10:54:58.110974,-2.159,0.064,-0.28,67.744,127.195,35.61,11_10_1.csv
2018-07-10T10:54:58.166126,-2.159,0.064,-0.28,-147.195,52.439,-27.5,11_10_1.csv
2018-07-10T10:54:58.210244,-2.836,-0.648,-0.238,-346.463,-124.207,-82.805,11_10_1.csv
2018-07-10T10:54:58.264392,-0.709,-0.354,0.345,73.78,95.854,1.098,11_10_1.csv
2018-07-10T10:54:58.308510,-0.709,-0.354,0.345,318.598,-28.476,-12.561,11_10_1.csv
2018-07-10T10:54:58.353635,0.386,0.485,0.381,91.524,-22.561,-7.012,11_10_1.csv
2018-07-10T10:54:58.410787,0.386,0.485,0.381,-76.402,74.817,71.463,11_10_1.csv
2018-07-10T10:54:58.460926,-0.202,-0.286,0.171,49.024,-0.549,48.598,11_10_1.csv
2018-07-10T10:54:58.508052,-0.548,-0.045,0.144,62.134,-53.415,50.244,11_10_1.csv
2018-07-10T10:54:58.555182,-0.548,-0.045,0.144,-23.659,72.073,15.671,11_10_1.csv
2018-07-10T10:54:58.599299,-3.067,-0.389,-0.54,-152.744,134.878,-32.012,11_10_1.csv
2018-07-10T10:54:58.648435,-3.067,-0.389,-0.54,-294.573,-144.695,-85.183,11_10_1.csv
2018-07-10T10:54:58.699571,-2.215,-0.808,0.067,-270.976,-82.561,-84.634,11_10_1.csv
2018-07-10T10:54:58.759736,-0.044,0.064,0.342,297.195,8.902,-7.988,11_10_1.csv
2018-07-10T10:54:58.806862,-0.044,0.064,0.342,220.0,-61.037,-36.646,11_10_1.csv
2018-07-10T10:54:58.851986,0.223,0.295,0.202,-60.732,33.537,35.793,11_10_1.csv
2018-07-10T10:54:58.899112,0.223,0.295,0.202,-55.915,11.829,38.049,11_10_1.csv
2018-07-10T10:54:58.950253,-0.232,-0.303,0.107,92.5,-40.976,23.659,11_10_1.csv
2018-07-10T10:54:59.003394,-0.676,-0.041,0.146,66.646,-31.951,6.646,11_10_1.csv
2018-07-10T10:54:59.054533,-0.676,-0.041,0.146,4.817,124.634,-0.61,11_10_1.csv
2018-07-10T10:54:59.108681,-3.13,-0.405,-0.427,-157.256,-116.159,-12.622,11_10_1.csv
2018-07-10T10:54:59.151796,-2.2,-0.586,0.116,-179.695,-33.78,-21.037,11_10_1.csv
2018-07-10T10:54:59.198927,-2.2,-0.586,0.116,-16.28,57.012,-24.146,11_10_1.csv
2018-07-10T10:54:59.245050,-0.019,0.159,0.383,175.61,-39.451,-29.695,11_10_1.csv
2018-07-10T10:54:59.290693,-0.019,0.159,0.383,33.354,-70.549,-26.159,11_10_1.csv
2018-07-10T10:54:59.635357,-1.656,-0.613,0.157,-84.329,15.61,-44.451,11_10_1.csv
2018-07-10T10:54:59.680480,-1.656,-0.613,0.157,106.281,-21.951,-22.012,11_10_1.csv
2018-07-10T10:54:59.726604,0.284,-0.254,0.373,119.634,-121.037,-38.354,11_10_1.csv
2018-07-10T10:54:59.787269,0.284,-0.254,0.373,26.28,-32.195,-39.756,11_10_1.csv
2018-07-10T10:54:59.835397,-0.027,-0.267,0.301,159.512,-0.305,-70.305,11_10_1.csv
2018-07-10T10:54:59.904581,-0.532,-0.014,0.213,141.524,-26.829,-70.183,11_10_1.csv
2018-07-10T10:54:59.945189,-0.532,-0.014,0.213,95.0,-62.622,-69.268,11_10_1.csv
2018-07-10T10:55:00.008358,-1.645,-0.035,-0.164,-87.866,-4.39,-21.707,11_10_1.csv
2018-07-10T10:55:00.056988,-2.47,-0.487,-0.293,-248.171,-157.988,-32.378,11_10_1.csv
2018-07-10T10:55:00.105617,-2.47,-0.487,-0.293,-309.207,-71.402,8.171,11_10_1.csv
2018-07-10T10:55:00.150236,-1.315,-0.943,0.398,-149.451,102.439,125.732,11_10_1.csv
2018-07-10T10:55:00.195860,0.107,-0.001,0.208,279.085,-0.427,121.829,11_10_1.csv
2018-07-10T10:55:00.249002,0.107,-0.001,0.208,58.415,31.707,83.232,11_10_1.csv
2018-07-10T10:55:00.295129,0.039,-0.078,0.274,-102.622,58.049,95.488,11_10_1.csv
2018-07-10T10:55:00.345263,0.039,-0.078,0.274,-129.146,19.573,61.341,11_10_1.csv
2018-07-10T10:55:00.425482,-0.406,-0.749,0.338,82.927,50.732,23.415,11_10_1.csv
2018-07-10T10:55:00.483643,-2.342,-0.214,-0.145,57.012,10.976,11.037,11_10_1.csv
2018-07-10T10:55:00.554833,-2.958,-0.332,-0.095,-149.695,-50.793,-90.427,11_10_1.csv
2018-07-10T10:55:00.618806,-1.047,-0.128,0.174,-1.22,-40.244,-86.585,11_10_1.csv
2018-07-10T10:55:00.732113,0.438,0.207,0.183,20.976,13.72,-40.366,11_10_1.csv
2018-07-10T10:55:00.791276,-0.118,-0.004,0.136,45.793,-11.524,-33.232,11_10_1.csv
2018-07-10T10:55:00.839403,-0.279,-0.096,0.191,63.232,-42.744,-6.829,11_10_1.csv
2018-07-10T10:55:00.883526,-0.279,-0.096,0.191,61.402,-3.841,-5.488,11_10_1.csv
2018-07-10T10:55:00.933659,-1.803,-0.282,-0.25,80.732,114.207,26.829,11_10_1.csv
2018-07-10T10:55:00.979787,-1.803,-0.282,-0.25,61.585,50.61,59.695,11_10_1.csv
2018-07-10T10:55:01.035937,-2.81,-0.314,-0.239,-68.537,-60.61,61.463,11_10_1.csv
2018-07-10T10:55:01.086076,-1.568,-0.855,0.351,-203.354,144.207,54.39,11_10_1.csv
2018-07-10T10:55:01.132199,-1.568,-0.855,0.351,102.5,75.305,68.537,11_10_1.csv
2018-07-10T10:55:01.181334,0.255,0.325,0.485,204.756,-35.366,-20.976,11_10_1.csv
2018-07-10T10:55:01.225452,0.255,0.325,0.485,-68.841,23.415,-18.841,11_10_1.csv
2018-07-10T10:55:01.273081,0.07,-0.232,0.398,-194.634,39.329,29.207,11_10_1.csv
2018-07-10T10:55:01.323719,-0.254,-0.667,0.305,47.561,-21.646,40.305,11_10_1.csv
2018-07-10T10:55:01.382881,-0.254,-0.667,0.305,144.024,-2.988,19.634,11_10_1.csv
2018-07-10T10:55:01.435020,-2.607,0.056,-0.33,133.598,155.366,0.61,11_10_1.csv
2018-07-10T10:55:01.480142,-2.58,-0.171,0.021,-198.171,-189.695,-60.915,11_10_1.csv
2018-07-10T10:55:01.527769,-2.58,-0.171,0.021,-221.098,-128.049,-100.915,11_10_1.csv
2018-07-10T10:55:01.573892,0.914,0.127,0.302,-74.878,-241.463,-142.988,11_10_1.csv
2018-07-10T10:55:01.649093,-0.415,-0.38,-0.274,-44.512,181.098,48.537,11_10_1.csv
2018-07-10T10:55:01.695717,-0.415,-0.38,-0.274,106.281,23.902,90.427,11_10_1.csv
2018-07-10T10:55:01.741840,-2.717,-0.33,-0.056,155.061,109.268,106.463,11_10_1.csv
2018-07-10T10:55:01.788965,-2.717,-0.33,-0.056,70.915,-18.415,44.512,11_10_1.csv
2018-07-10T10:55:01.835091,-0.523,-0.001,0.263,-29.939,-12.134,2.866,11_10_1.csv
2018-07-10T10:55:01.883219,0.305,-0.253,-0.016,-24.573,43.963,0.793,11_10_1.csv
2018-07-10T10:55:01.936366,0.305,-0.253,-0.016,63.171,283.781,83.171,11_10_1.csv
2018-07-10T10:55:01.996027,-1.98,-0.355,-0.119,52.378,-5.732,84.573,11_10_1.csv
2018-07-10T10:55:02.100309,-1.849,-0.4,0.194,74.207,64.695,-18.963,11_10_1.csv
2018-07-10T10:55:02.149944,-0.496,0.175,0.302,138.902,-29.512,-12.439,11_10_1.csv
2018-07-10T10:55:02.199577,-0.496,0.175,0.302,25.854,-66.463,-36.524,11_10_1.csv
2018-07-10T10:55:02.244198,-0.003,0.12,0.08,-51.341,-51.829,-4.268,11_10_1.csv
2018-07-10T10:55:02.298346,-1.261,-0.193,-0.201,15.061,9.451,11.037,11_10_1.csv
2018-07-10T10:55:02.351489,-1.261,-0.193,-0.201,14.146,139.085,40.732,11_10_1.csv
2018-07-10T10:55:02.399118,-2.628,-0.334,-0.225,-114.329,-65.915,14.512,11_10_1.csv
2018-07-10T10:55:02.443739,-0.9,-0.376,0.46,-12.927,120.366,25.305,11_10_1.csv
2018-07-10T10:55:02.491867,-0.9,-0.376,0.46,132.134,-27.134,17.256,11_10_1.csv
2018-07-10T10:55:02.538998,0.501,-0.064,0.408,67.073,-39.39,7.256,11_10_1.csv
2018-07-10T10:55:02.586123,0.501,-0.064,0.408,-10.0,114.39,74.512,11_10_1.csv
2018-07-10T10:55:02.642274,-0.129,-0.373,0.313,57.012,-10.427,62.134,11_10_1.csv
2018-07-10T10:55:02.702938,-1.194,-0.204,0.167,109.573,20.244,17.439,11_10_1.csv
2018-07-10T10:55:02.747555,-1.194,-0.204,0.167,48.354,107.195,-8.232,11_10_1.csv
2018-07-10T10:55:02.793681,-3.141,-0.109,-0.383,-56.646,16.768,-73.72,11_10_1.csv
2018-07-10T10:55:02.839804,-3.141,-0.109,-0.383,-160.671,-133.415,-142.317,11_10_1.csv
2018-07-10T10:55:02.884930,-2.148,-0.298,0.042,86.768,-2.073,-31.829,11_10_1.csv
2018-07-10T10:55:02.944088,0.132,0.308,0.28,37.073,-130.488,-21.951,11_10_1.csv
2018-07-10T10:55:02.993225,0.132,0.308,0.28,-77.378,-150.061,-26.951,11_10_1.csv
2018-07-10T10:55:03.041353,0.295,-0.042,0.021,-60.244,40.671,2.256,11_10_1.csv
2018-07-10T10:55:03.093496,-0.27,-0.128,0.051,45.61,-22.439,41.524,11_10_1.csv
2018-07-10T10:55:03.132601,-0.27,-0.128,0.051,60.061,-17.134,7.439,11_10_1.csv
2018-07-10T10:55:03.179732,-0.808,-0.05,0.099,3.232,36.585,-7.378,11_10_1.csv
2018-07-10T10:55:03.236883,-0.808,-0.05,0.099,-53.598,123.537,8.476,11_10_1.csv
2018-07-10T10:55:03.288024,-2.6,-0.531,-0.326,56.951,4.939,67.378,11_10_1.csv
2018-07-10T10:55:03.335150,-2.646,-0.392,-0.068,108.171,59.634,83.293,11_10_1.csv
2018-07-10T10:55:03.383841,-2.646,-0.392,-0.068,133.476,104.939,56.707,11_10_1.csv
