time,accel_x_list,accel_y_list,accel_z_list,gyro_x_list,gyro_y_list,gyro_z_list,filename
2018-07-10T10:55:56.727154,-1.095,-0.312,0.228,65.305,6.707,-3.598,11_10_3.csv
2018-07-10T10:55:56.772278,-1.095,-0.312,0.228,94.024,-3.72,-7.988,11_10_3.csv
2018-07-10T10:55:56.821407,-1.045,-0.27,0.181,92.744,-23.841,-27.317,11_10_3.csv
2018-07-10T10:55:56.866533,-1.045,-0.27,0.181,65.732,-24.39,-53.415,11_10_3.csv
2018-07-10T10:55:56.914660,-1.133,-0.237,0.115,44.146,-29.817,-74.512,11_10_3.csv
2018-07-10T10:55:56.970815,-1.076,-0.235,0.11,5.122,-41.28,-100.854,11_10_3.csv
2018-07-10T10:55:57.023457,-1.076,-0.235,0.11,4.085,-33.72,-106.402,11_10_3.csv
2018-07-10T10:55:57.073634,-0.989,-0.052,0.101,4.634,-15.976,-91.585,11_10_3.csv
2018-07-10T10:55:57.120759,-0.936,0.031,-0.007,-47.317,0.854,-44.268,11_10_3.csv
2018-07-10T10:55:57.163880,-0.936,0.031,-0.007,-71.951,32.134,2.012,11_10_3.csv
2018-07-10T10:55:57.214013,-0.975,-0.255,-0.052,-47.439,24.329,46.037,11_10_3.csv
2018-07-10T10:55:57.263150,-0.975,-0.255,-0.052,-20.061,51.829,91.524,11_10_3.csv
2018-07-10T10:55:57.327323,-0.891,-0.385,0.023,-36.524,68.537,153.963,11_10_3.csv
2018-07-10T10:55:57.374451,-0.953,-0.668,0.203,-10.61,80.427,168.232,11_10_3.csv
2018-07-10T10:55:57.416563,-0.953,-0.668,0.203,76.89,47.683,149.939,11_10_3.csv
2018-07-10T10:55:57.459683,-0.773,-0.287,0.262,107.012,18.171,85.183,11_10_3.csv
2018-07-10T10:55:57.514830,-0.773,-0.287,0.262,34.634,38.232,-7.866,11_10_3.csv
2018-07-10T10:55:57.581011,-1.914,-0.32,-0.228,-58.476,5.488,-89.451,11_10_3.csv
2018-07-10T10:55:57.635659,-2.415,-0.146,-0.322,-27.744,-110.854,-128.842,11_10_3.csv
2018-07-10T10:55:57.681280,-0.556,0.276,0.267,-15.122,-88.963,-116.829,11_10_3.csv
2018-07-10T10:55:57.728406,-0.556,0.276,0.267,-86.524,-104.939,-10.61,11_10_3.csv
2018-07-10T10:55:57.778039,0.331,-0.105,0.198,-132.683,-85.061,55.183,11_10_3.csv
2018-07-10T10:55:57.824663,0.331,-0.105,0.198,-29.878,67.134,51.341,11_10_3.csv
2018-07-10T10:55:57.875801,-0.134,-0.231,0.228,80.549,18.72,31.951,11_10_3.csv
2018-07-10T10:55:57.991113,-0.629,-0.31,0.17,84.207,116.646,20.122,11_10_3.csv
2018-07-10T10:55:58.039745,-3.004,-0.394,-0.551,159.39,169.024,73.659,11_10_3.csv
2018-07-10T10:55:58.087374,-2.249,-0.04,-0.214,-45.793,-65.366,-8.354,11_10_3.csv
2018-07-10T10:55:58.135506,-2.249,-0.04,-0.214,-147.622,7.439,-82.927,11_10_3.csv
2018-07-10T10:55:58.178623,0.018,-0.154,0.395,-92.561,-43.354,-72.866,11_10_3.csv
2018-07-10T10:55:58.239289,0.018,-0.154,0.395,-11.463,-152.5,-33.049,11_10_3.csv
2018-07-10T10:55:58.293936,0.287,-0.049,0.332,31.707,46.098,39.817,11_10_3.csv
2018-07-10T10:55:58.341064,-0.282,-0.197,0.293,78.293,-43.232,30.61,11_10_3.csv
2018-07-10T10:55:58.414261,-0.969,-0.241,0.05,49.329,-7.622,-24.268,11_10_3.csv
2018-07-10T10:55:58.460390,-0.969,-0.241,0.05,55.305,133.049,-10.183,11_10_3.csv
2018-07-10T10:55:58.508518,-3.123,-0.355,-0.485,52.256,68.049,34.451,11_10_3.csv
2018-07-10T10:55:58.553643,-3.123,-0.355,-0.485,-37.988,-112.805,32.805,11_10_3.csv
2018-07-10T10:55:58.600769,-1.832,-0.184,0.004,-105.0,-16.585,-10.488,11_10_3.csv
2018-07-10T10:55:58.649401,0.265,-0.025,0.413,22.439,-69.695,-40.366,11_10_3.csv
2018-07-10T10:55:58.696531,0.265,-0.025,0.413,1.098,-64.878,6.098,11_10_3.csv
2018-07-10T10:55:58.742658,0.134,-0.044,0.244,-1.89,78.476,50.671,11_10_3.csv
2018-07-10T10:55:58.789284,0.134,-0.044,0.244,22.805,20.732,24.573,11_10_3.csv
2018-07-10T10:55:58.854460,-0.464,0.001,0.191,-143.354,-44.146,-13.171,11_10_3.csv
2018-07-10T10:55:58.907603,-1.89,-0.668,-0.209,-147.927,64.207,-27.561,11_10_3.csv
2018-07-10T10:55:58.963251,-1.89,-0.668,-0.209,-36.768,104.085,-3.476,11_10_3.csv
2018-07-10T10:55:59.009875,-2.768,-0.603,-0.039,119.024,27.134,25.122,11_10_3.csv
2018-07-10T10:55:59.057502,-0.959,-0.083,0.278,82.073,45.549,10.793,11_10_3.csv
2018-07-10T10:55:59.103656,-0.959,-0.083,0.278,-15.0,-158.171,-21.951,11_10_3.csv
2018-07-10T10:55:59.149779,0.597,0.0,0.281,-62.988,-135.854,-43.841,11_10_3.csv
2018-07-10T10:55:59.216463,-0.114,-0.407,0.196,-21.768,-9.512,-4.512,11_10_3.csv
2018-07-10T10:55:59.258076,-0.114,-0.407,0.196,51.768,-11.28,-6.768,11_10_3.csv
2018-07-10T10:55:59.348819,-0.764,-0.298,0.182,126.585,57.683,-34.146,11_10_3.csv
2018-07-10T10:55:59.398957,-2.65,-0.165,-0.482,85.122,96.951,-4.756,11_10_3.csv
2018-07-10T10:55:59.445081,-2.65,-0.165,-0.482,-31.22,-75.427,-17.927,11_10_3.csv
2018-07-10T10:55:59.492210,-2.234,-0.446,0.083,-89.878,110.427,35.915,11_10_3.csv
2018-07-10T10:55:59.544350,-0.487,-0.274,0.437,88.72,91.098,81.037,11_10_3.csv
2018-07-10T10:55:59.609528,-0.487,-0.274,0.437,159.085,-68.902,30.854,11_10_3.csv
2018-07-10T10:55:59.653645,0.415,0.217,0.304,-145.366,46.098,46.646,11_10_3.csv
2018-07-10T10:55:59.697767,-0.1,-0.642,0.318,-101.159,-10.671,40.488,11_10_3.csv
2018-07-10T10:55:59.743890,-0.1,-0.642,0.318,35.061,6.707,47.561,11_10_3.csv
2018-07-10T10:55:59.790516,-1.152,-0.378,0.085,186.342,36.22,36.585,11_10_3.csv
2018-07-10T10:55:59.848671,-1.152,-0.378,0.085,209.39,145.549,38.537,11_10_3.csv
2018-07-10T10:55:59.914847,-3.169,0.049,-0.695,-266.585,-198.903,-93.11,11_10_3.csv
2018-07-10T10:55:59.960469,-1.717,-0.52,0.247,-338.781,-53.415,-149.451,11_10_3.csv
2018-07-10T10:56:00.009604,-1.717,-0.52,0.247,-136.037,56.037,-83.537,11_10_3.csv
2018-07-10T10:56:00.054724,0.199,0.001,0.452,124.024,-106.951,-18.72,11_10_3.csv
2018-07-10T10:56:00.102857,0.162,0.111,0.251,-58.598,14.451,15.549,11_10_3.csv
2018-07-10T10:56:00.151988,0.162,0.111,0.251,-36.585,-49.878,14.634,11_10_3.csv
2018-07-10T10:56:00.195108,-0.257,-0.432,0.197,-1.707,-34.512,32.927,11_10_3.csv
2018-07-10T10:56:00.242233,-0.257,-0.432,0.197,80.427,10.061,6.585,11_10_3.csv
2018-07-10T10:56:00.290866,-1.627,-0.342,-0.204,165.0,91.159,0.122,11_10_3.csv
2018-07-10T10:56:00.336989,-2.861,-0.233,-0.296,-12.012,-55.488,42.683,11_10_3.csv
2018-07-10T10:56:00.383112,-2.861,-0.233,-0.296,-159.451,-9.268,11.951,11_10_3.csv
2018-07-10T10:56:00.441771,-1.419,-0.514,0.368,-116.524,113.598,10.366,11_10_3.csv
2018-07-10T10:56:00.499427,0.32,0.297,0.373,103.72,-94.939,-49.512,11_10_3.csv
2018-07-10T10:56:00.541039,0.32,0.297,0.373,-101.402,4.451,-28.963,11_10_3.csv
2018-07-10T10:56:00.588166,0.148,-0.236,0.245,-169.085,-5.488,2.866,11_10_3.csv
2018-07-10T10:56:00.633290,0.148,-0.236,0.245,-55.061,-20.488,10.732,11_10_3.csv
2018-07-10T10:56:00.716486,-0.35,-0.571,0.254,187.073,67.378,21.707,11_10_3.csv
2018-07-10T10:56:00.759600,-2.407,-0.099,-0.379,198.415,164.085,48.11,11_10_3.csv
2018-07-10T10:56:00.804723,-2.407,-0.099,-0.379,23.476,17.866,37.744,11_10_3.csv
2018-07-10T10:56:00.852854,-2.795,-0.396,-0.236,-196.159,-117.073,-15.488,11_10_3.csv
2018-07-10T10:56:00.900984,-0.707,-0.296,0.284,5.488,29.695,-43.049,11_10_3.csv
2018-07-10T10:56:00.945603,-0.707,-0.296,0.284,124.024,-140.244,-47.561,11_10_3.csv
2018-07-10T10:56:00.992230,0.537,0.245,0.278,-32.073,-109.085,-17.317,11_10_3.csv
2018-07-10T10:56:01.049382,0.537,0.245,0.278,-97.134,105.122,34.939,11_10_3.csv
2018-07-10T10:56:01.101525,-0.139,-0.366,0.154,127.5,8.841,17.561,11_10_3.csv
2018-07-10T10:56:01.150656,-0.636,-0.215,0.103,143.72,22.866,-6.951,11_10_3.csv
2018-07-10T10:56:01.195780,-0.636,-0.215,0.103,129.573,71.037,-17.073,11_10_3.csv
2018-07-10T10:56:01.250927,-2.795,-0.209,-0.424,77.195,141.951,10.122,11_10_3.csv
2018-07-10T10:56:01.292042,-2.795,-0.209,-0.424,-54.939,-108.902,-6.28,11_10_3.csv
2018-07-10T10:56:01.346186,-2.394,-0.475,0.017,-157.378,70.244,2.256,11_10_3.csv
2018-07-10T10:56:01.414372,-0.228,-0.149,0.313,16.402,-2.439,7.927,11_10_3.csv
2018-07-10T10:56:01.460499,0.435,0.076,0.254,-61.098,-21.28,10.061,11_10_3.csv
2018-07-10T10:56:01.508630,0.435,0.076,0.254,-103.415,38.598,30.671,11_10_3.csv
2018-07-10T10:56:01.554755,-0.172,-0.468,0.224,-10.0,-9.878,20.183,11_10_3.csv
2018-07-10T10:56:01.600882,-0.172,-0.468,0.224,73.232,11.22,20.61,11_10_3.csv
2018-07-10T10:56:01.654023,-1.131,-0.295,0.1,128.11,41.524,2.561,11_10_3.csv
2018-07-10T10:56:01.695139,-1.131,-0.295,0.1,124.634,163.659,19.817,11_10_3.csv
2018-07-10T10:56:01.741261,-3.204,-0.341,-0.488,12.378,44.756,30.793,11_10_3.csv
2018-07-10T10:56:01.789393,-1.751,-0.301,0.251,-121.89,-15.061,-56.951,11_10_3.csv
2018-07-10T10:56:01.835516,-1.751,-0.301,0.251,45.915,-3.72,-74.817,11_10_3.csv
2018-07-10T10:56:01.883650,0.304,0.302,0.305,23.476,-176.829,-48.537,11_10_3.csv
2018-07-10T10:56:01.944812,0.198,-0.107,0.029,-76.341,21.159,1.28,11_10_3.csv
2018-07-10T10:56:02.000529,0.198,-0.107,0.029,-28.72,-38.171,-1.524,11_10_3.csv
2018-07-10T10:56:02.218004,-2.83,-0.322,-0.264,-58.293,-72.012,4.756,11_10_3.csv
2018-07-10T10:56:02.258615,-2.83,-0.322,-0.264,-110.061,31.159,6.22,11_10_3.csv
2018-07-10T10:56:02.304740,-1.504,-0.364,0.497,186.829,10.61,59.329,11_10_3.csv
2018-07-10T10:56:02.350864,0.409,0.305,0.559,31.646,-155.61,-0.793,11_10_3.csv
2018-07-10T10:56:02.409023,0.409,0.305,0.559,-131.342,-59.878,-26.951,11_10_3.csv
2018-07-10T10:56:02.465177,0.208,-0.493,0.3,-122.683,-22.622,40.915,11_10_3.csv
2018-07-10T10:56:02.508293,-0.288,-0.766,0.217,94.085,-5.671,49.207,11_10_3.csv
2018-07-10T10:56:02.562440,-0.288,-0.766,0.217,263.902,20.549,18.963,11_10_3.csv
2018-07-10T10:56:02.609568,-2.128,-0.033,-0.195,279.817,125.793,5.366,11_10_3.csv
2018-07-10T10:56:02.664719,-2.128,-0.033,-0.195,126.89,75.732,-2.744,11_10_3.csv
2018-07-10T10:56:02.717863,-2.901,-0.062,-0.441,-305.488,-120.061,-131.098,11_10_3.csv
2018-07-10T10:56:02.775020,-1.232,-0.528,0.205,-150.549,-10.244,-89.756,11_10_3.csv
2018-07-10T10:56:02.820141,-1.232,-0.528,0.205,96.28,-12.195,-2.439,11_10_3.csv
2018-07-10T10:56:02.869775,0.265,0.275,0.271,-57.5,-81.22,-14.512,11_10_3.csv
2018-07-10T10:56:02.913391,0.094,-0.025,0.105,-71.707,48.11,7.378,11_10_3.csv
2018-07-10T10:56:02.961522,0.094,-0.025,0.105,-8.841,8.963,20.61,11_10_3.csv
2018-07-10T10:56:03.022685,-0.359,-0.178,0.21,3.171,-3.537,22.561,11_10_3.csv
2018-07-10T10:56:03.072823,-2.034,-0.142,-0.343,25.183,160.427,23.659,11_10_3.csv
2018-07-10T10:56:03.121954,-2.034,-0.142,-0.343,-12.683,69.268,45.549,11_10_3.csv
2018-07-10T10:56:03.167080,-2.772,-0.424,-0.29,-113.415,-61.402,41.098,11_10_3.csv
2018-07-10T10:56:03.212200,-2.772,-0.424,-0.29,-154.085,61.098,67.317,11_10_3.csv
2018-07-10T10:56:03.257325,-1.43,-0.754,0.287,-1.707,159.39,119.939,11_10_3.csv
2018-07-10T10:56:03.315480,0.474,-0.424,0.96,211.22,-46.28,96.463,11_10_3.csv
2018-07-10T10:56:03.367624,0.474,-0.424,0.96,182.317,-34.756,34.268,11_10_3.csv
2018-07-10T10:56:03.474916,-0.683,-0.331,0.279,-134.329,-149.695,-77.744,11_10_3.csv
2018-07-10T10:56:03.525049,-0.683,-0.331,0.279,-114.573,-102.317,-114.268,11_10_3.csv
2018-07-10T10:56:03.569171,-2.268,-0.393,-0.376,-55.183,-46.951,-144.451,11_10_3.csv
2018-07-10T10:56:03.616297,-2.268,-0.393,-0.376,-90.244,-118.232,-174.939,11_10_3.csv
2018-07-10T10:56:03.667439,-2.314,-0.575,-0.396,-173.293,-182.683,-151.89,11_10_3.csv
2018-07-10T10:56:03.711557,-2.314,-0.575,-0.396,-185.671,-56.707,-65.427,11_10_3.csv
2018-07-10T10:56:03.758685,-0.972,-0.814,0.481,190.122,121.707,114.512,11_10_3.csv
2018-07-10T10:56:03.809320,0.088,0.306,0.342,243.415,-40.061,38.476,11_10_3.csv
2018-07-10T10:56:03.852435,0.088,0.306,0.342,25.854,15.427,14.512,11_10_3.csv
2018-07-10T10:56:03.898557,-0.034,0.185,0.246,-121.037,35.854,5.671,11_10_3.csv
2018-07-10T10:56:03.953704,-0.316,-0.302,0.155,-23.598,12.256,42.195,11_10_3.csv
2018-07-10T10:56:04.012361,-0.316,-0.302,0.155,54.329,50.854,48.72,11_10_3.csv
2018-07-10T10:56:04.059486,-2.056,-0.226,-0.527,36.951,152.561,67.927,11_10_3.csv
2018-07-10T10:56:04.108617,-2.056,-0.226,-0.527,-28.232,85.976,78.72,11_10_3.csv
2018-07-10T10:56:04.156244,-2.761,-0.629,-0.135,-10.793,124.329,106.098,11_10_3.csv
2018-07-10T10:56:04.215402,-1.354,-0.461,0.346,177.073,119.451,113.963,11_10_3.csv
2018-07-10T10:56:04.272053,-1.354,-0.461,0.346,192.927,-57.744,41.951,11_10_3.csv
2018-07-10T10:56:04.320181,0.395,0.322,0.506,-165.122,-62.5,-35.61,11_10_3.csv
2018-07-10T10:56:04.367306,0.149,-0.429,0.218,-202.256,-58.72,-35.854,11_10_3.csv
2018-07-10T10:56:04.414934,0.149,-0.429,0.218,-110.671,-70.122,-31.585,11_10_3.csv
2018-07-10T10:56:04.460555,-0.388,-0.612,0.226,45.427,-47.012,-17.378,11_10_3.csv
2018-07-10T10:56:04.508182,-0.388,-0.612,0.226,146.463,-5.366,-10.0,11_10_3.csv
2018-07-10T10:56:04.564332,-2.574,-0.165,-0.229,22.927,-57.439,-30.0,11_10_3.csv
2018-07-10T10:56:04.620484,-2.806,-0.259,-0.285,-115.915,-118.354,-85.061,11_10_3.csv
2018-07-10T10:56:04.663598,-2.806,-0.259,-0.285,-118.415,-16.768,-85.061,11_10_3.csv
2018-07-10T10:56:04.712733,-1.025,-0.103,0.191,60.0,42.561,-19.512,11_10_3.csv
2018-07-10T10:56:04.802979,0.523,0.222,0.145,-125.549,10.183,4.512,11_10_3.csv
2018-07-10T10:56:04.855117,0.029,-0.282,0.167,-26.646,79.085,31.22,11_10_3.csv
2018-07-10T10:56:04.904751,0.029,-0.282,0.167,22.744,42.866,49.756,11_10_3.csv
2018-07-10T10:56:04.948368,-0.415,-0.231,0.267,44.146,45.244,42.439,11_10_3.csv
2018-07-10T10:56:04.993990,-0.415,-0.231,0.267,53.78,74.085,22.378,11_10_3.csv
2018-07-10T10:56:05.046142,-1.868,-0.285,-0.092,9.085,94.939,22.5,11_10_3.csv
2018-07-10T10:56:05.089758,-2.845,-0.594,-0.129,-40.366,-34.878,31.402,11_10_3.csv
2018-07-10T10:56:05.138891,-2.845,-0.594,-0.129,-36.89,28.963,49.146,11_10_3.csv
2018-07-10T10:56:05.204067,-1.551,-0.416,0.222,111.707,-43.598,11.463,11_10_3.csv
2018-07-10T10:56:05.259216,0.325,0.236,0.335,16.037,-155.61,-31.037,11_10_3.csv
2018-07-10T10:56:05.304841,0.325,0.236,0.335,-118.902,-164.024,-55.305,11_10_3.csv
2018-07-10T10:56:05.352471,0.247,-0.291,0.075,-162.622,-2.256,-39.939,11_10_3.csv
2018-07-10T10:56:05.399104,0.247,-0.291,0.075,-71.524,-5.427,-37.622,11_10_3.csv
2018-07-10T10:56:05.445724,-0.416,-0.496,0.178,135.976,32.012,-28.963,11_10_3.csv
2018-07-10T10:56:05.505386,-2.103,-0.209,-0.261,153.902,104.634,-22.622,11_10_3.csv
2018-07-10T10:56:05.564042,-2.581,-0.354,-0.323,-105.122,-91.098,-22.744,11_10_3.csv
2018-07-10T10:56:05.602143,-2.581,-0.354,-0.323,-207.622,0.183,-9.329,11_10_3.csv
2018-07-10T10:56:05.649770,-1.225,-0.676,0.342,-95.61,91.22,62.561,11_10_3.csv
2018-07-10T10:56:05.697397,-1.225,-0.676,0.342,114.451,16.768,110.793,11_10_3.csv
2018-07-10T10:56:05.747531,0.324,0.123,0.36,94.695,-111.159,56.707,11_10_3.csv
2018-07-10T10:56:05.790646,0.324,0.123,0.36,-84.024,-27.195,27.683,11_10_3.csv
2018-07-10T10:56:05.836268,0.088,-0.35,0.202,-163.232,51.524,35.305,11_10_3.csv
2018-07-10T10:56:05.886902,-0.31,-0.657,0.281,11.402,-3.232,37.622,11_10_3.csv
2018-07-10T10:56:05.932524,-0.31,-0.657,0.281,137.317,19.024,13.841,11_10_3.csv
2018-07-10T10:56:05.978146,-2.32,-0.036,-0.288,166.098,182.317,15.671,11_10_3.csv
2018-07-10T10:56:06.029282,-2.32,-0.036,-0.288,55.671,65.854,11.341,11_10_3.csv
2018-07-10T10:56:06.084429,-2.751,-0.106,-0.23,-61.951,-33.049,-60.671,11_10_3.csv
2018-07-10T10:56:06.174169,-1.139,-0.136,0.203,5.671,-70.915,1.22,11_10_3.csv
2018-07-10T10:56:06.233827,0.367,0.149,0.252,-13.659,-138.781,-28.049,11_10_3.csv
2018-07-10T10:56:06.275438,0.367,0.149,0.252,-37.988,-42.927,-38.415,11_10_3.csv
2018-07-10T10:56:06.320057,0.088,-0.187,0.067,-87.378,11.829,-15.915,11_10_3.csv
2018-07-10T10:56:06.374702,-0.309,-0.419,0.146,38.78,-1.037,-10.854,11_10_3.csv
2018-07-10T10:56:06.437374,-0.309,-0.419,0.146,104.024,41.768,-11.159,11_10_3.csv
2018-07-10T10:56:06.497537,-2.004,-0.7,-0.224,352.073,142.256,119.939,11_10_3.csv
2018-07-10T10:56:06.545665,-2.972,-0.122,-0.543,549.146,70.488,169.268,11_10_3.csv
2018-07-10T10:56:06.592290,-2.972,-0.122,-0.543,371.646,45.488,63.232,11_10_3.csv
2018-07-10T10:56:06.638413,-1.072,0.626,-0.126,38.72,-62.622,-77.195,11_10_3.csv
2018-07-10T10:56:06.703088,0.284,0.154,0.27,-224.085,-146.22,-77.378,11_10_3.csv
2018-07-10T10:56:06.751218,0.284,0.154,0.27,-219.024,-74.512,-25.183,11_10_3.csv
2018-07-10T10:56:06.805365,-0.09,0.147,0.124,-261.22,-43.841,-16.951,11_10_3.csv
2018-07-10T10:56:06.849987,-0.363,-0.75,0.024,-345.671,-41.463,-68.354,11_10_3.csv
2018-07-10T10:56:06.900623,-0.363,-0.75,0.024,-37.5,1.037,-64.085,11_10_3.csv
2018-07-10T10:56:06.944740,-1.691,-0.546,-0.28,159.146,117.5,-15.366,11_10_3.csv
2018-07-10T10:56:06.994876,-1.691,-0.546,-0.28,176.463,79.024,62.683,11_10_3.csv
2018-07-10T10:56:07.048519,-2.634,-0.308,-0.247,88.293,-78.902,97.927,11_10_3.csv
2018-07-10T10:56:07.124722,-1.518,-0.518,0.236,-56.402,72.988,87.256,11_10_3.csv
2018-07-10T10:56:07.179368,0.272,-0.153,0.326,69.207,-95.671,20.244,11_10_3.csv
2018-07-10T10:56:07.228501,0.272,-0.153,0.326,-4.024,-52.378,12.012,11_10_3.csv
2018-07-10T10:56:07.272619,0.158,-0.171,0.136,-76.524,35.061,22.988,11_10_3.csv
2018-07-10T10:56:07.320751,0.158,-0.171,0.136,-82.073,7.317,9.756,11_10_3.csv
2018-07-10T10:56:07.376901,-0.294,-0.493,0.256,70.061,-6.524,-17.378,11_10_3.csv
2018-07-10T10:56:07.446091,-1.615,-0.187,0.008,77.5,63.354,-24.268,11_10_3.csv
2018-07-10T10:56:07.532324,-2.942,-0.389,-0.177,-60.427,-40.976,-22.195,11_10_3.csv
2018-07-10T10:56:07.573434,-1.862,-0.42,0.162,13.171,59.268,0.061,11_10_3.csv
2018-07-10T10:56:07.620564,-1.862,-0.42,0.162,123.537,10.061,15.732,11_10_3.csv
2018-07-10T10:56:07.683732,0.155,0.276,0.275,67.439,-134.939,-10.549,11_10_3.csv
2018-07-10T10:56:07.740394,0.289,0.001,-0.031,-181.829,-11.463,-30.305,11_10_3.csv
2018-07-10T10:56:07.788524,0.289,0.001,-0.031,-178.293,-17.927,-18.171,11_10_3.csv
2018-07-10T10:56:07.835152,-0.149,-0.55,0.117,-65.732,-45.61,-7.561,11_10_3.csv
2018-07-10T10:56:07.885286,-0.149,-0.55,0.117,64.268,1.037,-4.39,11_10_3.csv
2018-07-10T10:56:07.929408,-1.225,-0.357,0.046,149.817,94.878,2.5,11_10_3.csv
2018-07-10T10:56:07.978539,-2.891,-0.268,-0.35,111.585,50.61,52.378,11_10_3.csv
2018-07-10T10:56:08.030682,-2.891,-0.268,-0.35,1.341,-9.329,40.427,11_10_3.csv
2018-07-10T10:56:08.087834,-1.974,-0.371,0.13,-71.524,48.049,8.415,11_10_3.csv
2018-07-10T10:56:08.134964,-0.173,-0.021,0.353,58.11,-52.866,5.793,11_10_3.csv
2018-07-10T10:56:08.183093,-0.173,-0.021,0.353,-15.61,-135.122,-10.305,11_10_3.csv
2018-07-10T10:56:08.229220,0.389,-0.035,0.165,-128.598,-46.402,-4.146,11_10_3.csv
2018-07-10T10:56:08.275343,0.389,-0.035,0.165,-123.232,8.659,-1.524,11_10_3.csv
2018-07-10T10:56:08.328489,-0.153,-0.395,0.208,-45.61,-1.768,0.061,11_10_3.csv
2018-07-10T10:56:08.388650,-1.32,-0.378,0.039,46.829,51.585,8.11,11_10_3.csv
2018-07-10T10:56:08.430767,-1.32,-0.378,0.039,73.598,178.415,38.415,11_10_3.csv
2018-07-10T10:56:08.480901,-3.041,-0.325,-0.382,57.439,3.537,38.293,11_10_3.csv
2018-07-10T10:56:08.521564,-3.041,-0.325,-0.382,-5.488,-64.268,-1.524,11_10_3.csv
2018-07-10T10:56:08.576712,-1.854,-0.08,0.021,-8.598,18.354,-42.744,11_10_3.csv
2018-07-10T10:56:08.630359,-0.033,-0.003,0.344,-39.451,-108.902,8.659,11_10_3.csv
2018-07-10T10:56:08.679490,-0.033,-0.003,0.344,-82.622,-137.439,32.317,11_10_3.csv
2018-07-10T10:56:08.727120,0.381,-0.21,0.162,-59.451,-41.463,8.78,11_10_3.csv
2018-07-10T10:56:08.774746,0.381,-0.21,0.162,-57.134,5.183,15.854,11_10_3.csv
2018-07-10T10:56:08.820870,-0.084,-0.465,0.13,32.988,-17.5,12.134,11_10_3.csv
2018-07-10T10:56:08.930662,-1.069,-0.42,0.056,120.61,195.488,2.439,11_10_3.csv
2018-07-10T10:56:08.986310,-3.021,-0.299,-0.281,12.622,-63.11,-34.024,11_10_3.csv
2018-07-10T10:56:09.043964,-2.329,-0.265,0.01,-35.183,-15.244,-73.72,11_10_3.csv
2018-07-10T10:56:09.091591,-2.329,-0.265,0.01,29.634,8.598,-60.183,11_10_3.csv
2018-07-10T10:56:09.134706,-0.359,0.254,0.25,23.415,-61.707,-38.841,11_10_3.csv
2018-07-10T10:56:09.181330,0.481,0.117,0.194,-79.512,-62.439,-26.89,11_10_3.csv
2018-07-10T10:56:09.226952,0.481,0.117,0.194,-29.817,90.183,18.598,11_10_3.csv
2018-07-10T10:56:09.278088,-0.168,-0.263,0.156,13.537,3.537,45.549,11_10_3.csv
2018-07-10T10:56:09.335741,-0.168,-0.263,0.156,39.146,-5.915,43.354,11_10_3.csv
2018-07-10T10:56:09.382366,-0.756,-0.314,0.105,47.378,141.646,24.451,11_10_3.csv
2018-07-10T10:56:09.431497,-2.818,-0.52,-0.353,35.122,116.585,44.695,11_10_3.csv
2018-07-10T10:56:09.477620,-2.818,-0.52,-0.353,-17.988,-37.378,43.476,11_10_3.csv
2018-07-10T10:56:09.523241,-2.328,-0.579,0.054,-62.5,17.866,26.28,11_10_3.csv
2018-07-10T10:56:09.577887,-2.328,-0.579,0.054,-10.0,47.683,5.732,11_10_3.csv
2018-07-10T10:56:09.617493,-0.141,0.13,0.338,95.915,-49.268,-25.244,11_10_3.csv
2018-07-10T10:56:09.664117,0.452,0.069,0.079,-171.281,-15.427,-14.329,11_10_3.csv
2018-07-10T10:56:09.712747,0.452,0.069,0.079,-93.598,38.476,20.671,11_10_3.csv
2018-07-10T10:56:09.758368,-0.146,-0.354,0.183,28.171,-11.89,17.927,11_10_3.csv
2018-07-10T10:56:09.804491,-0.146,-0.354,0.183,68.354,-4.146,22.744,11_10_3.csv
2018-07-10T10:56:09.857633,-0.905,-0.269,0.16,82.378,29.573,15.915,11_10_3.csv
2018-07-10T10:56:09.930326,-3.062,-0.324,-0.434,28.659,73.476,24.512,11_10_3.csv
2018-07-10T10:56:09.975948,-3.062,-0.324,-0.434,-93.232,-92.927,7.988,11_10_3.csv
2018-07-10T10:56:10.034103,-2.286,-0.606,0.078,26.463,50.915,-9.085,11_10_3.csv
2018-07-10T10:56:10.085740,-0.211,0.111,0.205,138.537,-57.5,-36.098,11_10_3.csv
2018-07-10T10:56:10.133368,-0.211,0.111,0.205,2.378,-182.561,-62.805,11_10_3.csv
2018-07-10T10:56:10.186008,0.403,0.101,0.045,-15.305,15.061,-3.171,11_10_3.csv
2018-07-10T10:56:10.386638,-2.976,-0.282,0.141,90.976,-5.366,46.159,11_10_3.csv
2018-07-10T10:56:10.428754,-2.976,-0.282,0.141,-91.463,-49.207,-48.659,11_10_3.csv
2018-07-10T10:56:10.486909,-1.987,-0.348,0.219,-8.963,23.963,-44.878,11_10_3.csv
2018-07-10T10:56:10.525015,-1.987,-0.348,0.219,123.963,30.488,-9.817,11_10_3.csv
2018-07-10T10:56:10.570136,0.056,0.257,0.194,9.024,-60.793,-37.317,11_10_3.csv
2018-07-10T10:56:10.624283,0.056,0.257,0.194,-84.878,-74.817,-20.366,11_10_3.csv
2018-07-10T10:56:10.675421,0.239,0.006,0.154,-27.073,29.695,32.073,11_10_3.csv
2018-07-10T10:56:10.729571,-0.234,-0.088,0.209,-103.72,17.012,27.073,11_10_3.csv
2018-07-10T10:56:10.774691,-0.234,-0.088,0.209,-161.22,1.037,17.927,11_10_3.csv
2018-07-10T10:56:10.827837,-1.092,-0.549,-0.137,-131.89,32.317,3.293,11_10_3.csv
2018-07-10T10:56:10.869950,-2.933,-0.514,-0.664,187.5,46.951,59.085,11_10_3.csv
2018-07-10T10:56:10.940640,-2.933,-0.514,-0.664,357.256,-62.073,81.524,11_10_3.csv
2018-07-10T10:56:10.993782,-2.125,0.326,0.427,-90.427,96.89,-41.585,11_10_3.csv
2018-07-10T10:56:11.040907,-0.055,0.136,0.337,-218.354,-102.561,-30.366,11_10_3.csv
2018-07-10T10:56:11.088032,-0.055,0.136,0.337,-166.098,-123.354,-38.72,11_10_3.csv
2018-07-10T10:56:11.138668,0.201,-0.26,0.262,-96.768,-2.866,-18.963,11_10_3.csv
2018-07-10T10:56:11.181281,0.201,-0.26,0.262,-96.585,-39.573,3.72,11_10_3.csv
2018-07-10T10:56:11.230412,-0.15,-0.431,0.245,27.073,-50.549,-18.902,11_10_3.csv
2018-07-10T10:56:11.280546,-0.929,-0.554,-0.145,62.988,-17.012,-35.671,11_10_3.csv
2018-07-10T10:56:11.322157,-0.929,-0.554,-0.145,138.476,126.037,-6.524,11_10_3.csv
2018-07-10T10:56:11.372293,-2.912,-0.24,-0.552,243.781,50.427,49.451,11_10_3.csv
2018-07-10T10:56:11.413402,-2.912,-0.24,-0.552,66.159,-105.976,-24.024,11_10_3.csv
2018-07-10T10:56:11.460532,-2.042,0.017,0.3,-167.256,57.134,-80.122,11_10_3.csv
2018-07-10T10:56:11.525707,-0.528,-0.045,0.612,-65.061,-42.317,51.402,11_10_3.csv
2018-07-10T10:56:11.615952,0.422,-0.175,0.145,-122.561,-108.415,5.122,11_10_3.csv
2018-07-10T10:56:11.681128,-0.165,-0.579,0.139,-43.354,22.378,-9.085,11_10_3.csv
2018-07-10T10:56:11.728253,-0.165,-0.579,0.139,67.012,1.098,-10.915,11_10_3.csv
2018-07-10T10:56:11.774878,-1.107,-0.335,-0.009,182.195,32.988,-5.366,11_10_3.csv
2018-07-10T10:56:11.820499,-1.107,-0.335,-0.009,203.171,141.707,32.622,11_10_3.csv
2018-07-10T10:56:11.889182,-2.993,-0.115,-0.592,-193.781,-157.683,-18.659,11_10_3.csv
2018-07-10T10:56:11.931295,-1.688,-0.714,0.414,-249.451,22.195,-66.585,11_10_3.csv
2018-07-10T10:56:11.995586,0.237,0.358,0.252,246.585,-61.524,0.61,11_10_3.csv
2018-07-10T10:56:12.055748,0.237,0.358,0.252,9.939,-121.585,-3.11,11_10_3.csv
2018-07-10T10:56:12.101873,0.229,0.021,0.016,-189.817,55.061,44.512,11_10_3.csv
2018-07-10T10:56:12.147996,0.229,0.021,0.016,-57.805,-26.585,7.561,11_10_3.csv
2018-07-10T10:56:12.195125,-0.296,-0.45,0.234,53.354,16.585,28.171,11_10_3.csv
2018-07-10T10:56:12.243254,-2.099,-0.293,-0.241,74.939,155.366,27.927,11_10_3.csv
2018-07-10T10:56:12.288379,-2.099,-0.293,-0.241,40.244,121.281,25.427,11_10_3.csv
2018-07-10T10:56:12.338512,-2.861,-0.332,-0.365,-66.341,-76.951,-2.134,11_10_3.csv
2018-07-10T10:56:12.384640,-2.861,-0.332,-0.365,-110.305,3.598,-16.341,11_10_3.csv
2018-07-10T10:56:12.432768,-1.125,-0.369,0.437,17.012,70.732,12.5,11_10_3.csv
2018-07-10T10:56:12.476890,0.587,0.181,0.268,-35.793,-148.293,-26.951,11_10_3.csv
2018-07-10T10:56:12.524016,0.587,0.181,0.268,-119.695,13.72,3.902,11_10_3.csv
2018-07-10T10:56:12.571147,0.048,-0.422,0.119,-88.659,5.061,1.402,11_10_3.csv
2018-07-10T10:56:12.617270,0.048,-0.422,0.119,3.963,-30.915,9.39,11_10_3.csv
2018-07-10T10:56:12.680443,-0.492,-0.366,0.292,170.61,46.037,16.951,11_10_3.csv
2018-07-10T10:56:12.726566,-2.558,-0.469,-0.127,-43.354,117.378,14.39,11_10_3.csv
2018-07-10T10:56:12.777708,-2.558,-0.469,-0.127,-265.976,29.939,-28.841,11_10_3.csv
2018-07-10T10:56:12.825836,-2.921,-1.049,-0.41,-26.646,-33.598,-30.671,11_10_3.csv
2018-07-10T10:56:12.867952,-2.921,-1.049,-0.41,352.805,11.768,-73.415,11_10_3.csv
2018-07-10T10:56:12.913074,-0.864,0.729,-0.272,328.72,-105.732,-158.11,11_10_3.csv
2018-07-10T10:56:13.050445,-0.122,0.089,0.191,-22.012,-27.439,-22.256,11_10_3.csv
2018-07-10T10:56:13.105597,-0.122,0.089,0.191,7.439,30.122,37.134,11_10_3.csv
2018-07-10T10:56:13.149715,-0.547,-0.217,0.088,15.061,42.561,54.756,11_10_3.csv
2018-07-10T10:56:13.213890,-2.328,-0.584,-0.128,172.439,164.085,95.671,11_10_3.csv
2018-07-10T10:56:13.259010,-2.328,-0.584,-0.128,45.305,36.28,129.512,11_10_3.csv
2018-07-10T10:56:13.308645,-2.861,-1.065,0.203,-205.671,66.524,120.549,11_10_3.csv
2018-07-10T10:56:13.354266,-2.861,-1.065,0.203,-235.915,85.976,107.5,11_10_3.csv
2018-07-10T10:56:13.401893,-0.721,-0.654,0.44,205.488,-68.293,4.268,11_10_3.csv
2018-07-10T10:56:13.461051,0.606,0.382,0.123,-67.988,-122.5,-30.549,11_10_3.csv
2018-07-10T10:56:13.507675,0.606,0.382,0.123,-280.549,5.0,32.561,11_10_3.csv
2018-07-10T10:56:13.554804,-0.003,-0.765,0.086,-145.244,-2.012,20.061,11_10_3.csv
2018-07-10T10:56:13.600927,-0.003,-0.765,0.086,46.524,-26.098,17.073,11_10_3.csv
2018-07-10T10:56:13.650062,-0.575,-0.357,0.294,173.354,80.732,-6.402,11_10_3.csv
2018-07-10T10:56:13.708217,-2.802,-0.114,-0.308,80.549,153.659,-13.476,11_10_3.csv
2018-07-10T10:56:13.764870,-2.616,-0.415,-0.21,-133.049,-93.598,-49.634,11_10_3.csv
2018-07-10T10:56:13.809489,-2.616,-0.415,-0.21,-91.951,-24.695,-57.012,11_10_3.csv
2018-07-10T10:56:13.857618,-0.384,-0.049,0.248,73.293,-35.305,-40.854,11_10_3.csv
2018-07-10T10:56:13.903239,-0.384,-0.049,0.248,85.976,-143.049,-46.829,11_10_3.csv
2018-07-10T10:56:13.960895,0.423,0.208,0.038,-39.756,-53.415,-27.134,11_10_3.csv
2018-07-10T10:56:14.022058,-0.086,-0.204,0.105,-23.659,-20.793,-1.707,11_10_3.csv
2018-07-10T10:56:14.069189,-0.086,-0.204,0.105,23.659,13.659,7.744,11_10_3.csv
2018-07-10T10:56:14.117317,-0.61,-0.365,0.213,33.902,17.561,4.634,11_10_3.csv
2018-07-10T10:56:14.165452,-2.89,-0.573,-0.369,129.939,167.073,44.207,11_10_3.csv
2018-07-10T10:56:14.210572,-2.89,-0.573,-0.369,87.622,-35.122,41.341,11_10_3.csv
2018-07-10T10:56:14.257702,-2.465,-0.447,0.005,-78.78,-12.988,8.598,11_10_3.csv
2018-07-10T10:56:14.345569,-0.402,-0.011,0.433,29.512,7.073,-10.427,11_10_3.csv
2018-07-10T10:56:14.398711,-0.402,-0.011,0.433,14.695,-135.549,-18.963,11_10_3.csv
2018-07-10T10:56:14.444838,0.455,-0.046,0.254,-178.781,-104.024,-8.537,11_10_3.csv
2018-07-10T10:56:14.492966,-0.015,-0.515,0.187,-30.366,-25.671,8.354,11_10_3.csv
2018-07-10T10:56:14.538590,-0.015,-0.515,0.187,25.122,-31.646,29.024,11_10_3.csv
2018-07-10T10:56:14.585216,-0.469,-0.355,0.137,83.72,-5.671,9.146,11_10_3.csv
2018-07-10T10:56:14.645382,-0.469,-0.355,0.137,122.622,83.232,-8.841,11_10_3.csv
2018-07-10T10:56:14.695516,-2.711,-0.274,-0.266,16.22,-26.037,25.61,11_10_3.csv
2018-07-10T10:56:14.747155,-2.789,-0.391,-0.173,-88.963,-29.329,14.39,11_10_3.csv
2018-07-10T10:56:14.792776,-2.789,-0.391,-0.173,-121.098,9.451,-14.146,11_10_3.csv
2018-07-10T10:56:14.837897,-0.458,-0.192,0.227,-26.89,-57.195,-14.634,11_10_3.csv
2018-07-10T10:56:14.883519,-0.458,-0.192,0.227,8.902,-115.976,-9.634,11_10_3.csv
2018-07-10T10:56:14.936159,0.488,-0.163,0.292,-14.878,75.244,43.415,11_10_3.csv
2018-07-10T10:56:14.994314,-0.205,-0.265,0.23,28.537,37.5,23.902,11_10_3.csv
2018-07-10T10:56:15.040938,-0.205,-0.265,0.23,38.78,-12.744,4.39,11_10_3.csv
2018-07-10T10:56:15.088568,-0.459,-0.193,0.237,36.341,0.976,-20.61,11_10_3.csv
2018-07-10T10:56:15.131684,-2.666,-0.431,-0.318,47.866,171.281,-3.963,11_10_3.csv
2018-07-10T10:56:15.180818,-2.666,-0.431,-0.318,41.341,-13.293,28.72,11_10_3.csv
2018-07-10T10:56:15.234963,-2.593,-0.453,-0.081,-41.463,-66.707,39.878,11_10_3.csv
2018-07-10T10:56:15.290114,-0.379,-0.109,0.34,67.439,-14.939,-4.573,11_10_3.csv
2018-07-10T10:56:15.335234,-0.379,-0.109,0.34,62.073,-150.915,-44.329,11_10_3.csv
2018-07-10T10:56:15.384869,0.505,0.058,0.101,-75.305,-68.293,-34.329,11_10_3.csv
2018-07-10T10:56:15.429487,0.505,0.058,0.101,-52.439,33.78,-0.183,11_10_3.csv
2018-07-10T10:56:15.477115,-0.083,-0.253,0.099,12.439,-30.244,-0.793,11_10_3.csv
2018-07-10T10:56:15.539280,-0.529,-0.241,0.204,-8.049,-13.293,-15.0,11_10_3.csv
2018-07-10T10:56:15.587910,-0.529,-0.241,0.204,-10.732,112.073,-38.049,11_10_3.csv
2018-07-10T10:56:15.634033,-2.801,-0.675,-0.229,10.061,166.768,-13.963,11_10_3.csv
2018-07-10T10:56:15.711740,-2.653,-0.412,-0.078,35.793,9.207,24.451,11_10_3.csv
2018-07-10T10:56:15.759367,-2.653,-0.412,-0.078,-12.988,41.768,13.415,11_10_3.csv
2018-07-10T10:56:15.804487,-0.749,-0.099,0.371,-4.146,-1.341,11.829,11_10_3.csv
2018-07-10T10:56:15.859634,0.458,-0.015,0.173,-69.817,-122.866,-7.134,11_10_3.csv
2018-07-10T10:56:15.914781,0.458,-0.015,0.173,-68.78,-10.427,6.463,11_10_3.csv
2018-07-10T10:56:15.962909,-0.024,-0.232,0.126,-26.524,20.915,12.561,11_10_3.csv
2018-07-10T10:56:16.040115,-0.3,-0.292,0.194,-15.488,-25.061,18.232,11_10_3.csv
2018-07-10T10:56:16.110804,-2.25,-0.414,-0.164,68.902,184.817,-11.402,11_10_3.csv
2018-07-10T10:56:16.147903,-2.25,-0.414,-0.164,63.171,56.341,15.976,11_10_3.csv
2018-07-10T10:56:16.214580,-2.935,-0.455,-0.208,-15.732,20.61,13.963,11_10_3.csv
2018-07-10T10:56:16.271231,-1.211,-0.197,0.207,51.768,25.0,-1.89,11_10_3.csv
2018-07-10T10:56:16.322367,-1.211,-0.197,0.207,34.512,-96.402,-22.683,11_10_3.csv
2018-07-10T10:56:16.369493,0.499,-0.004,0.17,-45.122,-160.366,-29.939,11_10_3.csv
2018-07-10T10:56:16.435259,0.111,-0.131,0.036,-45.793,3.476,-20.854,11_10_3.csv
2018-07-10T10:56:16.479376,0.111,-0.131,0.036,-44.939,-17.805,-12.683,11_10_3.csv
2018-07-10T10:56:16.525503,-0.24,-0.292,0.175,-12.012,-14.695,-4.085,11_10_3.csv
2018-07-10T10:56:16.581653,-1.819,-0.446,-0.049,59.817,130.671,-10.0,11_10_3.csv
2018-07-10T10:56:16.641314,-1.819,-0.446,-0.049,80.427,145.732,29.695,11_10_3.csv
2018-07-10T10:56:16.681421,-2.959,-0.416,-0.27,82.561,-30.366,57.256,11_10_3.csv
2018-07-10T10:56:16.731056,-2.959,-0.416,-0.27,15.061,21.524,31.098,11_10_3.csv
2018-07-10T10:56:16.790214,-1.558,-0.237,0.148,7.5,-28.841,-15.732,11_10_3.csv
2018-07-10T10:56:16.836340,0.157,0.01,0.332,-38.598,-99.695,-13.841,11_10_3.csv
2018-07-10T10:56:16.883466,0.157,0.01,0.332,-63.293,-98.476,-2.622,11_10_3.csv
2018-07-10T10:56:16.930595,0.168,-0.088,0.163,-81.402,-10.732,-1.28,11_10_3.csv
2018-07-10T10:56:17.072980,-1.167,-0.231,0.012,79.695,67.134,-6.402,11_10_3.csv
2018-07-10T10:56:17.119107,-1.167,-0.231,0.012,54.268,157.317,9.451,11_10_3.csv
2018-07-10T10:56:17.167235,-2.923,-0.428,-0.326,4.695,23.171,24.695,11_10_3.csv
2018-07-10T10:56:17.211354,-2.923,-0.428,-0.326,-55.366,-45.427,22.744,11_10_3.csv
2018-07-10T10:56:17.259485,-2.218,-0.508,-0.041,-61.829,36.463,0.305,11_10_3.csv
2018-07-10T10:56:17.306613,-0.296,0.066,0.303,66.159,-49.329,-19.085,11_10_3.csv
2018-07-10T10:56:17.351735,-0.296,0.066,0.303,-40.244,-147.927,-31.524,11_10_3.csv
2018-07-10T10:56:17.398361,0.364,-0.034,0.14,-107.5,-49.878,-6.524,11_10_3.csv
2018-07-10T10:56:17.447996,0.364,-0.034,0.14,-67.805,35.671,3.293,11_10_3.csv
2018-07-10T10:56:17.491111,-0.141,-0.366,0.133,8.415,-19.939,-6.037,11_10_3.csv
2018-07-10T10:56:17.541249,-0.479,-0.155,0.201,82.927,0.061,-17.378,11_10_3.csv
2018-07-10T10:56:17.587372,-0.479,-0.155,0.201,54.268,89.146,-13.598,11_10_3.csv
2018-07-10T10:56:17.633501,-2.429,-0.356,-0.272,56.463,152.805,23.841,11_10_3.csv
2018-07-10T10:56:17.681629,-2.429,-0.356,-0.272,23.293,-4.573,45.061,11_10_3.csv
2018-07-10T10:56:17.737785,-2.864,-0.647,-0.106,-70.122,-13.171,54.207,11_10_3.csv
2018-07-10T10:56:17.793934,-0.788,-0.227,0.179,103.902,-10.0,20.671,11_10_3.csv
2018-07-10T10:56:17.842066,-0.788,-0.227,0.179,130.732,-122.073,-60.976,11_10_3.csv
2018-07-10T10:56:17.905738,0.591,0.219,0.09,-107.378,72.256,-3.476,11_10_3.csv
2018-07-10T10:56:17.945346,-0.115,-0.184,0.151,6.829,6.524,9.939,11_10_3.csv
2018-07-10T10:56:17.993474,-0.115,-0.184,0.151,32.073,-54.695,3.72,11_10_3.csv
2018-07-10T10:56:18.046620,-0.312,-0.112,0.182,-28.963,-28.963,-4.817,11_10_3.csv
2018-07-10T10:56:18.103775,-0.312,-0.112,0.182,-69.695,40.549,-17.805,11_10_3.csv
2018-07-10T10:56:18.147391,-2.464,-0.683,-0.186,64.634,70.793,35.305,11_10_3.csv
2018-07-10T10:56:18.196522,-3.013,-0.518,-0.136,52.683,-29.634,47.988,11_10_3.csv
2018-07-10T10:56:18.243146,-3.013,-0.518,-0.136,-13.902,42.378,5.915,11_10_3.csv
2018-07-10T10:56:18.289770,-0.923,-0.082,0.359,15.671,-5.61,-15.549,11_10_3.csv
2018-07-10T10:56:18.348427,0.627,0.131,0.092,-109.512,-160.671,-13.11,11_10_3.csv
2018-07-10T10:56:18.555878,-0.217,-0.418,0.35,94.39,33.415,-14.878,11_10_3.csv
2018-07-10T10:56:18.605010,-1.919,-0.421,-0.202,100.732,161.951,-17.195,11_10_3.csv
2018-07-10T10:56:18.652138,-1.919,-0.421,-0.202,121.768,158.11,25.0,11_10_3.csv
2018-07-10T10:56:18.696256,-3.137,-0.319,-0.375,84.878,-50.366,47.378,11_10_3.csv
2018-07-10T10:56:18.746394,-3.137,-0.319,-0.375,-58.11,-34.207,11.524,11_10_3.csv
2018-07-10T10:56:18.807560,-1.383,-0.502,0.254,57.744,-33.415,-28.171,11_10_3.csv
2018-07-10T10:56:18.851680,0.359,0.202,0.173,94.878,-126.22,-61.037,11_10_3.csv
2018-07-10T10:56:18.898805,0.359,0.202,0.173,-75.915,-107.5,-42.561,11_10_3.csv
2018-07-10T10:56:18.947507,0.142,-0.07,0.007,-78.049,25.854,8.78,11_10_3.csv
2018-07-10T10:56:18.994635,-0.242,-0.183,0.235,23.354,-23.11,-16.159,11_10_3.csv
2018-07-10T10:56:19.039758,-0.242,-0.183,0.235,-2.5,7.073,-19.939,11_10_3.csv
2018-07-10T10:56:19.091897,-1.694,-0.496,-0.026,1.037,112.317,-14.146,11_10_3.csv
2018-07-10T10:56:19.133012,-1.694,-0.496,-0.026,61.89,143.72,20.244,11_10_3.csv
2018-07-10T10:56:19.194174,-3.006,-0.529,-0.221,-11.768,6.524,46.89,11_10_3.csv
2018-07-10T10:56:19.261310,-1.531,-0.506,0.229,-110.305,26.28,22.012,11_10_3.csv
2018-07-10T10:56:19.306432,-1.531,-0.506,0.229,0.305,-25.854,23.232,11_10_3.csv
2018-07-10T10:56:19.351555,0.366,-0.031,0.326,-40.488,-102.073,-8.598,11_10_3.csv
2018-07-10T10:56:19.406704,0.138,-0.133,0.111,-36.585,70.244,17.073,11_10_3.csv
2018-07-10T10:56:19.460851,0.138,-0.133,0.111,-26.159,-53.598,18.049,11_10_3.csv
2018-07-10T10:56:19.507979,-0.166,-0.323,0.223,6.463,-32.134,18.11,11_10_3.csv
2018-07-10T10:56:19.555107,-1.86,-0.251,-0.31,59.573,100.122,-28.963,11_10_3.csv
2018-07-10T10:56:19.601230,-1.86,-0.251,-0.31,0.732,177.622,-5.549,11_10_3.csv
2018-07-10T10:56:19.649079,-3.117,-0.576,-0.354,-167.805,-110.061,-8.72,11_10_3.csv
2018-07-10T10:56:19.699213,-3.117,-0.576,-0.354,-231.342,-34.573,5.0,11_10_3.csv
2018-07-10T10:56:19.795473,0.443,0.104,0.383,-35.0,-101.89,3.171,11_10_3.csv
2018-07-10T10:56:19.835585,0.443,0.104,0.383,-114.39,32.744,32.988,11_10_3.csv
2018-07-10T10:56:19.883713,-0.002,-0.37,0.291,-5.854,18.537,11.89,11_10_3.csv
2018-07-10T10:56:19.949895,-0.002,-0.37,0.291,43.537,5.732,28.902,11_10_3.csv
2018-07-10T10:56:19.996017,-0.332,-0.316,0.216,59.207,64.085,3.476,11_10_3.csv
2018-07-10T10:56:20.045154,-2.766,-0.413,-0.531,73.78,207.866,21.037,11_10_3.csv
2018-07-10T10:56:20.095287,-2.766,-0.413,-0.531,36.524,-32.134,26.098,11_10_3.csv
2018-07-10T10:56:20.151441,-2.602,-0.302,-0.167,-43.72,-117.744,-7.683,11_10_3.csv
2018-07-10T10:56:20.195560,-0.521,-0.257,0.334,29.512,33.841,-18.902,11_10_3.csv
2018-07-10T10:56:20.249472,-0.521,-0.257,0.334,60.549,-114.39,-1.037,11_10_3.csv
2018-07-10T10:56:20.294593,0.395,0.059,0.177,-1.22,-50.793,-5.488,11_10_3.csv
2018-07-10T10:56:20.347741,0.395,0.059,0.177,-39.939,32.378,-1.098,11_10_3.csv
2018-07-10T10:56:20.418934,-0.102,-0.309,0.184,57.683,-4.268,-2.561,11_10_3.csv
2018-07-10T10:56:20.461049,-0.576,-0.309,0.182,115.671,-1.89,-11.951,11_10_3.csv
2018-07-10T10:56:20.515697,-0.576,-0.309,0.182,114.512,72.622,-4.512,11_10_3.csv
2018-07-10T10:56:20.554299,-3.079,-0.545,-0.41,74.329,165.0,39.878,11_10_3.csv
2018-07-10T10:56:20.609948,-2.399,-0.244,-0.1,-21.22,-31.646,-12.195,11_10_3.csv
2018-07-10T10:56:20.685651,-0.025,0.651,-0.009,97.805,-141.463,-110.671,11_10_3.csv
2018-07-10T10:56:20.727763,-0.025,0.651,-0.009,-106.585,-232.805,-42.5,11_10_3.csv
2018-07-10T10:56:20.772888,0.376,-0.041,0.011,-216.281,-15.976,48.476,11_10_3.csv
2018-07-10T10:56:20.822020,0.376,-0.041,0.011,-100.244,2.744,52.134,11_10_3.csv
2018-07-10T10:56:20.866640,-0.066,-0.316,0.079,-43.171,-34.146,44.512,11_10_3.csv
2018-07-10T10:56:20.914267,-0.066,-0.316,0.079,-32.988,31.829,45.671,11_10_3.csv
2018-07-10T10:56:20.969916,-1.01,-0.468,0.031,83.78,213.842,36.524,11_10_3.csv
2018-07-10T10:56:21.029074,-3.009,-0.544,-0.31,64.695,84.878,56.89,11_10_3.csv
2018-07-10T10:56:21.075698,-3.009,-0.544,-0.31,-25.61,-30.793,44.268,11_10_3.csv
2018-07-10T10:56:21.157416,-2.299,-0.574,0.05,49.695,16.098,1.037,11_10_3.csv
2018-07-10T10:56:21.195517,-0.145,-0.01,0.334,72.744,-91.768,-13.354,11_10_3.csv
2018-07-10T10:56:21.244151,0.338,-0.06,0.12,-67.256,-9.939,-17.256,11_10_3.csv
2018-07-10T10:56:21.305821,0.338,-0.06,0.12,-14.268,20.427,-23.537,11_10_3.csv
2018-07-10T10:56:21.351442,-0.133,-0.209,0.184,27.378,-19.085,-14.024,11_10_3.csv
2018-07-10T10:56:21.399570,-0.133,-0.209,0.184,38.232,-30.793,1.463,11_10_3.csv
2018-07-10T10:56:21.450206,-0.506,-0.204,0.173,41.22,93.841,-25.244,11_10_3.csv
2018-07-10T10:56:21.495326,-2.733,-0.457,-0.355,45.854,148.963,5.793,11_10_3.csv
2018-07-10T10:56:21.543454,-2.733,-0.457,-0.355,-0.61,-49.939,23.415,11_10_3.csv
2018-07-10T10:56:21.591081,-2.724,-0.521,-0.104,-64.024,-36.402,25.793,11_10_3.csv
2018-07-10T10:56:21.640713,-2.724,-0.521,-0.104,-47.744,46.707,9.878,11_10_3.csv
2018-07-10T10:56:21.683828,-0.563,-0.113,0.373,61.585,-149.024,-26.768,11_10_3.csv
2018-07-10T10:56:21.727946,0.459,0.126,0.24,-80.0,-87.5,-9.451,11_10_3.csv
2018-07-10T10:56:21.782090,0.459,0.126,0.24,-106.22,-8.537,1.585,11_10_3.csv
2018-07-10T10:56:21.845258,-0.059,-0.333,0.161,-15.854,-24.024,20.549,11_10_3.csv
2018-07-10T10:56:21.898400,-0.325,-0.264,0.19,-21.707,-53.72,-2.195,11_10_3.csv
2018-07-10T10:56:21.946027,-0.325,-0.264,0.19,-17.073,50.427,-18.72,11_10_3.csv
2018-07-10T10:56:21.995158,-2.536,-0.555,-0.285,-2.378,180.061,-5.976,11_10_3.csv
2018-07-10T10:56:22.040278,-2.536,-0.555,-0.285,14.634,-18.963,-1.22,11_10_3.csv
2018-07-10T10:56:22.089912,-2.718,-0.473,-0.096,-37.195,62.5,17.439,11_10_3.csv
2018-07-10T10:56:22.136535,-0.902,-0.338,0.367,6.28,33.841,39.573,11_10_3.csv
2018-07-10T10:56:22.198199,-0.902,-0.338,0.367,29.756,-79.451,12.439,11_10_3.csv
2018-07-10T10:56:22.243319,0.512,0.0,0.28,-17.256,-100.793,-38.902,11_10_3.csv
2018-07-10T10:56:22.294957,-0.019,-0.201,0.174,-0.366,32.866,5.244,11_10_3.csv
2018-07-10T10:56:22.355618,-0.019,-0.201,0.174,11.22,-10.488,5.793,11_10_3.csv
2018-07-10T10:56:22.404248,-0.356,-0.293,0.244,21.098,-13.78,-0.183,11_10_3.csv
2018-07-10T10:56:22.526072,-2.686,-0.397,-0.079,40.0,-51.22,29.817,11_10_3.csv
2018-07-10T10:56:22.574201,-2.686,-0.397,-0.079,-16.098,25.305,-5.915,11_10_3.csv
2018-07-10T10:56:22.619324,-0.769,-0.16,0.279,-4.573,-0.244,-18.354,11_10_3.csv
2018-07-10T10:56:22.668455,-0.769,-0.16,0.279,-5.61,-94.024,-16.159,11_10_3.csv
2018-07-10T10:56:22.725611,0.539,-0.119,0.229,-69.085,-108.781,-5.671,11_10_3.csv
2018-07-10T10:56:22.785773,0.229,-0.318,0.246,-1.707,37.866,-8.598,11_10_3.csv
2018-07-10T10:56:22.835910,0.229,-0.318,0.246,59.573,86.463,-11.463,11_10_3.csv
2018-07-10T10:56:22.883539,-1.126,-0.49,0.045,124.756,92.805,3.232,11_10_3.csv
2018-07-10T10:56:22.930165,-3.356,-0.347,-0.495,145.488,69.329,76.341,11_10_3.csv
2018-07-10T10:56:22.977291,-3.356,-0.347,-0.495,-24.39,-122.012,1.89,11_10_3.csv
2018-07-10T10:56:23.023976,-1.491,-0.129,0.125,-51.28,-15.671,-56.585,11_10_3.csv
2018-07-10T10:56:23.084139,-1.491,-0.129,0.125,73.293,-65.244,-63.841,11_10_3.csv
2018-07-10T10:56:23.138286,0.661,0.336,-0.057,-110.244,-9.878,39.024,11_10_3.csv
2018-07-10T10:56:23.180902,0.003,-0.068,0.14,-100.366,44.024,39.39,11_10_3.csv
2018-07-10T10:56:23.230266,0.003,-0.068,0.14,-102.195,-42.073,14.085,11_10_3.csv
2018-07-10T10:56:23.279397,-0.619,-0.377,0.165,-69.939,23.963,32.317,11_10_3.csv
2018-07-10T10:56:23.324521,-0.619,-0.377,0.165,-32.683,89.695,26.22,11_10_3.csv
2018-07-10T10:56:23.374654,-2.766,-0.502,-0.384,-102.256,-17.439,2.134,11_10_3.csv
2018-07-10T10:56:23.429315,-2.324,-0.907,0.114,-174.512,-3.354,49.878,11_10_3.csv
2018-07-10T10:56:23.476440,-2.324,-0.907,0.114,-44.024,55.915,77.012,11_10_3.csv
2018-07-10T10:56:23.525075,0.158,-0.221,0.393,136.524,-56.829,22.561,11_10_3.csv
2018-07-10T10:56:23.570195,0.158,-0.221,0.393,55.305,-152.439,-30.732,11_10_3.csv
2018-07-10T10:56:23.616823,0.234,-0.184,0.175,37.805,74.878,21.402,11_10_3.csv
2018-07-10T10:56:23.674476,-0.377,-0.113,0.249,125.427,-56.951,-1.463,11_10_3.csv
2018-07-10T10:56:23.727620,-0.377,-0.113,0.249,105.671,3.171,-7.012,11_10_3.csv
2018-07-10T10:56:23.775244,-2.189,-0.15,-0.317,-56.768,63.171,-36.098,11_10_3.csv
2018-07-10T10:56:23.899575,-0.678,-0.409,0.376,-8.415,71.524,-4.39,11_10_3.csv
2018-07-10T10:56:23.945698,-0.678,-0.409,0.376,149.024,-89.451,10.244,11_10_3.csv
2018-07-10T10:56:23.997336,0.541,0.222,0.051,27.988,-127.317,-6.28,11_10_3.csv
2018-07-10T10:56:24.048976,0.541,0.222,0.051,-108.415,62.256,30.61,11_10_3.csv
2018-07-10T10:56:24.102116,-0.104,-0.424,0.061,25.366,1.585,11.524,11_10_3.csv
2018-07-10T10:56:24.149742,-1.181,-0.399,0.058,71.098,71.341,11.89,11_10_3.csv
2018-07-10T10:56:24.197871,-1.181,-0.399,0.058,76.402,140.793,7.439,11_10_3.csv
2018-07-10T10:56:24.242490,-3.025,-0.378,-0.417,35.671,69.939,8.354,11_10_3.csv
2018-07-10T10:56:24.289615,-3.025,-0.378,-0.417,-0.793,-39.939,-2.805,11_10_3.csv
2018-07-10T10:56:24.349775,-1.693,-0.249,0.2,92.988,-23.476,-4.939,11_10_3.csv
2018-07-10T10:56:24.403919,0.336,0.184,0.143,-13.171,-173.842,-10.0,11_10_3.csv
2018-07-10T10:56:24.446533,0.336,0.184,0.143,-137.683,-103.232,12.073,11_10_3.csv
2018-07-10T10:56:24.493158,0.152,-0.177,0.002,-88.232,30.061,7.317,11_10_3.csv
2018-07-10T10:56:24.546299,-0.235,-0.306,0.229,2.012,-17.134,-3.537,11_10_3.csv
2018-07-10T10:56:24.593425,-0.235,-0.306,0.229,18.232,4.207,8.963,11_10_3.csv
2018-07-10T10:56:24.641553,-1.828,-0.421,-0.234,60.244,123.171,24.878,11_10_3.csv
2018-07-10T10:56:24.696700,-1.828,-0.421,-0.234,84.817,145.0,44.207,11_10_3.csv
2018-07-10T10:56:24.742823,-2.967,-0.462,-0.282,-15.549,31.28,18.963,11_10_3.csv
2018-07-10T10:56:24.795965,-1.758,-0.441,0.234,30.427,86.829,8.963,11_10_3.csv
2018-07-10T10:56:24.842087,-1.758,-0.441,0.234,139.878,-15.793,1.646,11_10_3.csv
2018-07-10T10:56:24.887709,0.37,0.411,0.305,38.72,-164.329,-44.634,11_10_3.csv
2018-07-10T10:56:24.952883,0.199,-0.169,0.051,-103.537,44.024,5.122,11_10_3.csv
2018-07-10T10:56:25.007529,0.199,-0.169,0.051,6.159,-2.439,22.683,11_10_3.csv
2018-07-10T10:56:25.056659,-0.354,-0.34,0.25,66.22,-45.427,34.39,11_10_3.csv
2018-07-10T10:56:25.104788,-1.263,-0.204,0.081,5.61,40.427,-27.744,11_10_3.csv
2018-07-10T10:56:25.150911,-1.263,-0.204,0.081,-83.598,127.622,-27.927,11_10_3.csv
2018-07-10T10:56:25.264714,-1.816,-0.242,0.013,48.963,17.195,-4.268,11_10_3.csv
2018-07-10T10:56:25.315348,-1.816,-0.242,0.013,56.585,15.0,-32.073,11_10_3.csv
2018-07-10T10:56:25.368491,0.033,0.06,0.322,5.061,-76.707,-40.61,11_10_3.csv
2018-07-10T10:56:25.414613,0.033,0.06,0.322,-79.207,-101.951,-13.841,11_10_3.csv
2018-07-10T10:56:25.461739,0.26,-0.165,0.209,-44.329,4.695,11.89,11_10_3.csv
2018-07-10T10:56:25.507362,-0.224,-0.137,0.255,26.341,-6.28,-6.159,11_10_3.csv
2018-07-10T10:56:25.555490,-0.224,-0.137,0.255,8.171,17.439,3.171,11_10_3.csv
2018-07-10T10:56:25.608637,-1.566,-0.397,-0.007,7.866,88.659,16.585,11_10_3.csv
2018-07-10T10:56:25.673311,-3.029,-0.419,-0.289,55.671,-6.951,55.122,11_10_3.csv
2018-07-10T10:56:25.730968,-3.029,-0.419,-0.289,21.524,-23.293,34.634,11_10_3.csv
2018-07-10T10:56:25.780099,-1.764,-0.256,0.104,-0.244,38.72,-4.268,11_10_3.csv
2018-07-10T10:56:25.824720,0.354,-0.098,0.033,-12.073,-130.61,-23.171,11_10_3.csv
2018-07-10T10:56:25.950558,0.354,-0.098,0.033,-53.476,20.061,22.317,11_10_3.csv
2018-07-10T10:56:26.004706,-0.162,-0.249,0.246,107.927,-13.11,43.293,11_10_3.csv
2018-07-10T10:56:26.055843,-0.162,-0.249,0.246,181.951,23.476,66.585,11_10_3.csv
2018-07-10T10:56:26.102470,-1.496,0.006,0.063,82.134,73.354,62.256,11_10_3.csv
2018-07-10T10:56:26.151601,-3.089,-0.422,-0.564,-27.561,-1.768,42.805,11_10_3.csv
2018-07-10T10:56:26.195720,-3.089,-0.422,-0.564,-83.841,-94.512,3.78,11_10_3.csv
2018-07-10T10:56:26.241841,-1.846,-0.359,0.031,-40.549,16.098,-55.305,11_10_3.csv
2018-07-10T10:56:26.293980,-1.846,-0.359,0.031,63.354,44.695,-74.085,11_10_3.csv
2018-07-10T10:56:26.429842,0.152,0.195,0.078,-16.402,-9.024,-8.537,11_10_3.csv
2018-07-10T10:56:26.484989,-0.234,-0.009,0.189,24.817,-34.329,-5.0,11_10_3.csv
2018-07-10T10:56:26.541640,-0.234,-0.009,0.189,31.341,-34.024,-5.61,11_10_3.csv
2018-07-10T10:56:26.652435,-3.075,-0.467,-0.426,56.402,49.878,82.683,11_10_3.csv
