time,accel_x_list,accel_y_list,accel_z_list,gyro_x_list,gyro_y_list,gyro_z_list,filename
2018-07-10T10:42:00.093265,-0.903,-0.34,0.306,-54.512,30.0,57.744,11_6_1.csv
2018-07-10T10:42:00.142401,-1.088,-0.4,0.253,-41.707,27.805,56.951,11_6_1.csv
2018-07-10T10:42:00.188523,-1.088,-0.4,0.253,-52.622,29.695,44.451,11_6_1.csv
2018-07-10T10:42:00.234651,-1.203,-0.714,0.226,-42.805,36.707,29.939,11_6_1.csv
2018-07-10T10:42:00.290305,-1.058,-0.675,0.187,151.159,31.159,-15.549,11_6_1.csv
2018-07-10T10:42:00.345957,-1.058,-0.675,0.187,232.683,16.768,-61.646,11_6_1.csv
2018-07-10T10:42:00.397597,-1.243,-0.199,0.049,235.0,-0.976,-99.146,11_6_1.csv
2018-07-10T10:42:00.441714,-1.243,-0.199,0.049,190.671,-36.585,-114.024,11_6_1.csv
2018-07-10T10:42:00.483826,-1.319,-0.187,0.101,70.549,-82.256,-111.829,11_6_1.csv
2018-07-10T10:42:00.532958,-1.085,-0.315,0.042,49.451,-78.72,-97.134,11_6_1.csv
2018-07-10T10:42:00.588104,-1.085,-0.315,0.042,60.549,-70.915,-82.927,11_6_1.csv
2018-07-10T10:42:00.641246,-0.851,-0.216,0.021,60.061,-68.11,-74.512,11_6_1.csv
2018-07-10T10:42:00.687870,-0.747,-0.172,0.106,22.195,-36.341,-48.963,11_6_1.csv
2018-07-10T10:42:00.739010,-0.747,-0.172,0.106,-1.463,-12.805,-16.402,11_6_1.csv
2018-07-10T10:42:00.799172,-0.957,-0.226,0.048,-15.183,9.207,26.951,11_6_1.csv
2018-07-10T10:42:00.844295,-1.229,-0.362,0.115,-73.232,60.854,108.049,11_6_1.csv
2018-07-10T10:42:00.895431,-1.229,-0.362,0.115,-69.085,68.049,120.854,11_6_1.csv
2018-07-10T10:42:00.980663,-0.942,-0.332,0.311,43.476,62.805,90.122,11_6_1.csv
2018-07-10T10:42:01.029797,-1.026,0.002,0.118,5.671,49.756,74.024,11_6_1.csv
2018-07-10T10:42:01.078928,-1.026,0.002,0.118,-103.171,8.963,50.671,11_6_1.csv
2018-07-10T10:42:01.124054,-1.043,-0.245,0.153,-206.342,-13.841,21.463,11_6_1.csv
2018-07-10T10:42:01.173185,-0.84,-0.524,0.214,-173.415,-23.659,8.049,11_6_1.csv
2018-07-10T10:42:01.228336,-0.84,-0.524,0.214,-65.854,11.585,22.683,11_6_1.csv
2018-07-10T10:42:01.281478,-0.889,-0.282,0.263,-16.951,15.732,26.037,11_6_1.csv
2018-07-10T10:42:01.327133,-0.981,-0.337,0.294,-62.134,18.78,3.11,11_6_1.csv
2018-07-10T10:42:01.377267,-0.981,-0.337,0.294,-42.073,30.488,-2.195,11_6_1.csv
2018-07-10T10:42:01.421401,-1.219,-0.495,0.284,14.329,36.037,0.244,11_6_1.csv
2018-07-10T10:42:01.467524,-1.219,-0.495,0.284,52.073,42.5,6.402,11_6_1.csv
2018-07-10T10:42:01.522174,-1.277,-0.496,0.316,78.415,22.927,5.793,11_6_1.csv
2018-07-10T10:42:01.581332,-1.05,-0.286,0.196,116.22,-33.476,-37.744,11_6_1.csv
2018-07-10T10:42:01.642500,-1.05,-0.286,0.196,96.585,-47.622,-69.512,11_6_1.csv
2018-07-10T10:42:01.690628,-1.148,-0.257,0.098,79.512,-76.341,-80.244,11_6_1.csv
2018-07-10T10:42:01.734258,-1.057,-0.27,0.099,47.5,-82.622,-74.268,11_6_1.csv
2018-07-10T10:42:01.782387,-1.057,-0.27,0.099,15.671,-73.171,-62.012,11_6_1.csv
2018-07-10T10:42:01.836034,-0.825,-0.275,0.022,2.317,-72.012,-51.402,11_6_1.csv
2018-07-10T10:42:01.891181,-0.73,-0.241,0.069,-7.683,-35.183,-40.183,11_6_1.csv
2018-07-10T10:42:01.941320,-0.73,-0.241,0.069,-23.049,-19.695,-25.793,11_6_1.csv
2018-07-10T10:42:01.991453,-0.828,-0.271,0.112,-25.122,10.976,0.366,11_6_1.csv
2018-07-10T10:42:02.031563,-0.828,-0.271,0.112,-22.134,41.037,40.366,11_6_1.csv
2018-07-10T10:42:02.077687,-1.181,-0.32,0.112,-29.329,64.756,81.341,11_6_1.csv
2018-07-10T10:42:02.135847,-1.19,-0.451,0.334,-27.378,91.585,119.634,11_6_1.csv
2018-07-10T10:42:02.196007,-1.19,-0.451,0.334,35.061,74.268,97.622,11_6_1.csv
2018-07-10T10:42:02.236118,-0.998,-0.146,0.264,60.732,62.317,63.232,11_6_1.csv
2018-07-10T10:42:02.345415,-1.052,-0.101,0.176,-165.0,-41.89,-25.488,11_6_1.csv
2018-07-10T10:42:02.390535,-0.872,-0.374,0.196,-180.61,-44.451,-43.537,11_6_1.csv
2018-07-10T10:42:02.438667,-0.872,-0.374,0.196,-144.878,-41.402,-40.488,11_6_1.csv
2018-07-10T10:42:02.503843,-0.816,-0.309,0.189,-36.829,-7.073,-8.049,11_6_1.csv
2018-07-10T10:42:02.547964,-0.923,-0.208,0.218,-40.915,10.122,0.244,11_6_1.csv
2018-07-10T10:42:02.601105,-0.923,-0.208,0.218,-47.5,17.5,5.61,11_6_1.csv
2018-07-10T10:42:02.650241,-1.073,-0.315,0.235,-32.195,19.329,10.732,11_6_1.csv
2018-07-10T10:42:02.698370,-1.304,-0.422,0.286,-1.28,34.512,24.329,11_6_1.csv
2018-07-10T10:42:02.757068,-1.304,-0.422,0.286,15.244,14.085,32.927,11_6_1.csv
2018-07-10T10:42:02.823249,-1.147,-0.357,0.283,30.793,-47.744,-4.939,11_6_1.csv
2018-07-10T10:42:02.882407,-1.059,-0.216,0.148,3.659,-58.72,-47.073,11_6_1.csv
2018-07-10T10:42:02.926527,-1.059,-0.216,0.148,-22.073,-76.22,-70.061,11_6_1.csv
2018-07-10T10:42:02.973653,-1.119,-0.29,0.125,-32.134,-94.939,-74.39,11_6_1.csv
2018-07-10T10:42:03.017448,-0.968,-0.28,0.077,-56.28,-96.098,-63.049,11_6_1.csv
2018-07-10T10:42:03.063571,-0.968,-0.28,0.077,-59.817,-88.841,-59.085,11_6_1.csv
2018-07-10T10:42:03.118726,-0.761,-0.203,0.11,-52.561,-70.183,-51.829,11_6_1.csv
2018-07-10T10:42:03.178886,-0.667,-0.232,0.182,-66.159,-31.951,-2.317,11_6_1.csv
2018-07-10T10:42:03.224013,-0.667,-0.232,0.182,-51.402,0.0,39.451,11_6_1.csv
2018-07-10T10:42:03.281165,-1.022,-0.266,0.09,-42.805,34.817,89.878,11_6_1.csv
2018-07-10T10:42:03.328296,-1.022,-0.266,0.09,-60.122,76.951,141.89,11_6_1.csv
2018-07-10T10:42:03.375421,-1.539,-0.46,0.1,-86.768,84.817,177.866,11_6_1.csv
2018-07-10T10:42:03.427566,-1.082,-0.302,0.192,-21.037,26.829,129.024,11_6_1.csv
2018-07-10T10:42:03.489734,-1.082,-0.302,0.192,-32.073,31.341,75.671,11_6_1.csv
2018-07-10T10:42:03.530846,-0.971,-0.107,0.062,-103.232,-13.11,35.976,11_6_1.csv
2018-07-10T10:42:03.581983,-0.871,-0.335,0.038,-240.366,-65.61,-19.573,11_6_1.csv
2018-07-10T10:42:03.626105,-0.871,-0.335,0.038,-231.159,-68.232,-34.329,11_6_1.csv
2018-07-10T10:42:03.707327,-0.762,-0.426,0.141,-93.354,-11.707,-5.732,11_6_1.csv
2018-07-10T10:42:03.758463,-0.851,-0.274,0.22,-38.476,14.39,8.354,11_6_1.csv
2018-07-10T10:42:03.812613,-0.851,-0.274,0.22,-15.732,25.305,12.622,11_6_1.csv
2018-07-10T10:42:03.861744,-0.948,-0.226,0.29,-21.463,42.866,8.902,11_6_1.csv
2018-07-10T10:42:03.913889,-1.152,-0.339,0.308,-17.5,44.207,8.171,11_6_1.csv
2018-07-10T10:42:03.951991,-1.152,-0.339,0.308,-3.78,53.11,12.622,11_6_1.csv
2018-07-10T10:42:04.004133,-1.378,-0.479,0.375,26.707,41.768,21.463,11_6_1.csv
2018-07-10T10:42:04.077329,-1.175,-0.227,0.242,64.451,-37.866,-17.256,11_6_1.csv
2018-07-10T10:42:04.125462,-1.175,-0.227,0.242,40.915,-57.988,-70.061,11_6_1.csv
2018-07-10T10:42:04.170582,-1.255,-0.161,0.141,8.963,-85.976,-103.598,11_6_1.csv
2018-07-10T10:42:04.220720,-1.255,-0.161,0.141,-14.695,-116.159,-118.354,11_6_1.csv
2018-07-10T10:42:04.265840,-1.087,-0.234,0.171,-25.122,-118.476,-107.744,11_6_1.csv
2018-07-10T10:42:04.312971,-0.808,-0.175,0.128,-22.073,-107.988,-80.976,11_6_1.csv
2018-07-10T10:42:04.364108,-0.808,-0.175,0.128,-23.171,-87.927,-53.232,11_6_1.csv
2018-07-10T10:42:04.407229,-0.674,-0.137,0.131,-33.963,-66.159,-25.915,11_6_1.csv
2018-07-10T10:42:04.454352,-0.674,-0.137,0.131,-44.756,-42.683,8.902,11_6_1.csv
2018-07-10T10:42:04.499976,-0.811,-0.223,0.129,-40.732,-3.659,52.927,11_6_1.csv
2018-07-10T10:42:04.547605,-1.274,-0.353,0.024,-83.476,58.72,145.915,11_6_1.csv
2018-07-10T10:42:04.598242,-1.274,-0.353,0.024,-133.659,55.488,176.524,11_6_1.csv
2018-07-10T10:42:04.641862,-1.189,-0.472,0.142,-122.378,45.793,173.72,11_6_1.csv
2018-07-10T10:42:04.687486,-1.189,-0.472,0.142,-75.366,44.939,142.317,11_6_1.csv
2018-07-10T10:42:04.734113,-1.124,-0.289,0.135,-54.695,48.11,108.781,11_6_1.csv
2018-07-10T10:42:04.789263,-1.001,-0.211,0.131,-165.366,-16.037,30.854,11_6_1.csv
2018-07-10T10:42:04.828370,-1.001,-0.211,0.131,-229.268,-33.293,-7.744,11_6_1.csv
2018-07-10T10:42:04.874492,-0.827,-0.416,0.178,-215.122,-32.073,-23.537,11_6_1.csv
2018-07-10T10:42:04.922626,-0.827,-0.416,0.178,-157.317,-24.085,-16.402,11_6_1.csv
2018-07-10T10:42:04.969752,-0.861,-0.374,0.284,-94.756,-5.732,-1.037,11_6_1.csv
2018-07-10T10:42:05.103616,-0.93,-0.306,0.335,-30.671,36.463,13.659,11_6_1.csv
2018-07-10T10:42:05.168261,-1.214,-0.416,0.327,3.78,48.537,17.073,11_6_1.csv
2018-07-10T10:42:05.218401,-1.293,-0.449,0.332,27.744,16.89,8.354,11_6_1.csv
2018-07-10T10:42:05.267533,-1.016,-0.249,0.226,54.939,-36.341,-66.098,11_6_1.csv
2018-07-10T10:42:05.315665,-1.016,-0.249,0.226,39.085,-44.146,-92.256,11_6_1.csv
2018-07-10T10:42:05.364796,-1.132,-0.293,0.176,49.024,-58.049,-89.573,11_6_1.csv
2018-07-10T10:42:05.411926,-1.132,-0.293,0.176,63.72,-69.451,-76.22,11_6_1.csv
2018-07-10T10:42:05.467073,-1.082,-0.249,0.151,42.134,-70.488,-52.012,11_6_1.csv
2018-07-10T10:42:05.522223,-0.882,-0.189,0.089,19.817,-67.805,-49.939,11_6_1.csv
2018-07-10T10:42:05.565839,-0.882,-0.189,0.089,3.232,-56.524,-48.841,11_6_1.csv
2018-07-10T10:42:05.611461,-0.729,-0.207,0.133,-13.598,-43.72,-36.707,11_6_1.csv
2018-07-10T10:42:05.658590,-0.729,-0.207,0.133,-23.537,-20.61,-12.744,11_6_1.csv
2018-07-10T10:42:05.705715,-0.861,-0.282,0.128,-15.488,16.341,24.512,11_6_1.csv
2018-07-10T10:42:05.760867,-1.272,-0.294,0.046,-15.854,71.524,105.0,11_6_1.csv
2018-07-10T10:42:05.813006,-1.272,-0.294,0.046,-52.195,65.976,113.598,11_6_1.csv
2018-07-10T10:42:05.860137,-1.068,-0.318,0.197,-58.415,52.988,94.451,11_6_1.csv
2018-07-10T10:42:05.907262,-1.068,-0.318,0.197,-45.183,40.061,64.573,11_6_1.csv
2018-07-10T10:42:05.953391,-0.954,-0.189,0.165,-84.756,20.183,34.024,11_6_1.csv
2018-07-10T10:42:06.000517,-0.99,-0.278,0.205,-124.451,2.866,30.366,11_6_1.csv
2018-07-10T10:42:06.053665,-0.99,-0.278,0.205,-133.354,-6.22,20.549,11_6_1.csv
2018-07-10T10:42:06.111819,-0.907,-0.37,0.233,-53.78,7.378,15.915,11_6_1.csv
2018-07-10T10:42:06.159952,-0.916,-0.288,0.254,-33.598,9.146,13.476,11_6_1.csv
2018-07-10T10:42:06.207078,-0.916,-0.288,0.254,-29.939,9.634,5.732,11_6_1.csv
2018-07-10T10:42:06.252203,-0.936,-0.312,0.263,-28.963,7.439,-1.22,11_6_1.csv
2018-07-10T10:42:06.298326,-0.936,-0.312,0.263,-20.671,14.207,-3.354,11_6_1.csv
2018-07-10T10:42:06.353977,-1.143,-0.418,0.247,12.5,23.841,-5.244,11_6_1.csv
2018-07-10T10:42:06.434692,-1.287,-0.514,0.282,79.756,-7.012,-16.89,11_6_1.csv
2018-07-10T10:42:06.484828,-1.229,-0.345,0.196,130.122,-22.744,-28.841,11_6_1.csv
2018-07-10T10:42:06.533961,-1.229,-0.345,0.196,128.902,-57.195,-55.427,11_6_1.csv
2018-07-10T10:42:06.578082,-1.237,-0.151,0.07,86.646,-80.915,-81.829,11_6_1.csv
2018-07-10T10:42:06.626714,-1.237,-0.151,0.07,43.78,-102.561,-101.707,11_6_1.csv
2018-07-10T10:42:06.682365,-1.044,-0.231,0.099,-15.244,-104.451,-95.793,11_6_1.csv
2018-07-10T10:42:06.734506,-0.759,-0.248,0.084,-7.805,-94.268,-72.927,11_6_1.csv
2018-07-10T10:42:06.780631,-0.759,-0.248,0.084,0.488,-72.805,-48.72,11_6_1.csv
2018-07-10T10:42:06.829264,-0.645,-0.195,0.11,-16.037,-46.89,-22.012,11_6_1.csv
2018-07-10T10:42:06.882909,-0.78,-0.282,0.133,-23.171,17.256,43.171,11_6_1.csv
2018-07-10T10:42:06.923017,-0.78,-0.282,0.133,-7.866,56.463,77.683,11_6_1.csv
2018-07-10T10:42:06.987193,-1.24,-0.284,0.062,-7.317,86.402,106.22,11_6_1.csv
2018-07-10T10:42:07.031313,-1.24,-0.284,0.062,-31.768,111.524,130.732,11_6_1.csv
2018-07-10T10:42:07.079445,-1.402,-0.345,0.219,-44.146,52.683,124.146,11_6_1.csv
2018-07-10T10:42:07.127074,-0.965,-0.165,0.231,-65.427,45.671,85.122,11_6_1.csv
2018-07-10T10:42:07.189744,-0.965,-0.165,0.231,-99.268,47.256,46.341,11_6_1.csv
2018-07-10T10:42:07.233864,-1.05,-0.247,0.144,-128.72,10.915,24.39,11_6_1.csv
2018-07-10T10:42:07.307062,-0.9,-0.396,0.216,-166.646,-25.61,4.329,11_6_1.csv
2018-07-10T10:42:07.362213,-0.863,-0.317,0.22,-88.476,-4.634,2.317,11_6_1.csv
2018-07-10T10:42:07.405328,-0.863,-0.317,0.22,-62.012,1.341,-2.927,11_6_1.csv
2018-07-10T10:42:07.454463,-0.907,-0.231,0.264,-61.22,4.207,-10.061,11_6_1.csv
2018-07-10T10:42:07.499583,-0.907,-0.231,0.264,-50.122,14.024,-10.854,11_6_1.csv
2018-07-10T10:42:07.546714,-1.057,-0.272,0.3,-23.598,22.378,-5.732,11_6_1.csv
2018-07-10T10:42:07.601859,-1.25,-0.367,0.297,-11.707,14.085,-7.866,11_6_1.csv
2018-07-10T10:42:07.658014,-1.25,-0.367,0.297,-4.024,11.037,-6.646,11_6_1.csv
2018-07-10T10:42:07.706142,-1.123,-0.427,0.336,27.927,-20.732,-12.927,11_6_1.csv
2018-07-10T10:42:07.862062,-1.188,-0.139,0.189,37.866,-86.707,-82.5,11_6_1.csv
2018-07-10T10:42:07.908185,-1.188,-0.139,0.189,-16.341,-105.0,-82.378,11_6_1.csv
2018-07-10T10:42:07.963837,-0.884,-0.241,0.18,-25.183,-66.22,-60.488,11_6_1.csv
2018-07-10T10:42:08.021491,-0.758,-0.179,0.148,8.476,-57.317,-33.476,11_6_1.csv
2018-07-10T10:42:08.064107,-0.758,-0.179,0.148,11.829,-36.768,-4.573,11_6_1.csv
2018-07-10T10:42:08.109226,-0.841,-0.155,0.11,-11.341,-9.695,21.524,11_6_1.csv
2018-07-10T10:42:08.157359,-0.841,-0.155,0.11,-29.146,18.963,52.683,11_6_1.csv
2018-07-10T10:42:08.202480,-1.259,-0.292,-0.072,-72.988,62.134,108.354,11_6_1.csv
2018-07-10T10:42:08.251113,-1.097,-0.375,0.154,-73.171,46.22,116.524,11_6_1.csv
2018-07-10T10:42:08.306260,-1.097,-0.375,0.154,-54.207,39.207,104.207,11_6_1.csv
2018-07-10T10:42:08.364426,-0.876,-0.253,0.152,-48.232,64.634,69.756,11_6_1.csv
2018-07-10T10:42:08.410549,-1.111,-0.267,0.172,-85.976,43.354,60.305,11_6_1.csv
2018-07-10T10:42:08.458179,-1.111,-0.267,0.172,-131.463,28.78,45.976,11_6_1.csv
2018-07-10T10:42:08.507311,-0.981,-0.378,0.264,-122.073,17.744,28.537,11_6_1.csv
2018-07-10T10:42:08.547424,-0.981,-0.378,0.264,-66.159,25.305,16.341,11_6_1.csv
2018-07-10T10:42:08.605578,-0.911,-0.112,0.241,-102.622,-3.293,-10.244,11_6_1.csv
2018-07-10T10:42:08.661369,-0.952,-0.209,0.229,-109.756,-6.829,-19.085,11_6_1.csv
2018-07-10T10:42:08.708494,-0.952,-0.209,0.229,-77.561,5.915,-16.89,11_6_1.csv
2018-07-10T10:42:08.758633,-1.15,-0.335,0.259,-29.207,11.402,-6.463,11_6_1.csv
2018-07-10T10:42:08.815784,-1.319,-0.377,0.286,14.939,10.366,-11.098,11_6_1.csv
2018-07-10T10:42:08.859904,-1.319,-0.377,0.286,28.963,-10.976,-17.866,11_6_1.csv
2018-07-10T10:42:08.919634,-1.187,-0.275,0.253,51.402,-44.817,-34.39,11_6_1.csv
2018-07-10T10:42:08.973778,-1.262,-0.165,0.112,30.488,-77.622,-101.646,11_6_1.csv
2018-07-10T10:42:09.016895,-1.262,-0.165,0.112,14.085,-107.195,-110.183,11_6_1.csv
2018-07-10T10:42:09.065024,-1.11,-0.181,0.103,-9.085,-126.281,-108.781,11_6_1.csv
2018-07-10T10:42:09.161285,-0.78,-0.183,0.083,-52.622,-111.89,-88.415,11_6_1.csv
2018-07-10T10:42:09.207413,-0.64,-0.186,0.101,-47.378,-62.988,-30.671,11_6_1.csv
2018-07-10T10:42:09.253536,-0.64,-0.186,0.101,-43.841,-30.305,10.549,11_6_1.csv
2018-07-10T10:42:09.303675,-0.846,-0.237,0.073,-38.78,10.671,57.073,11_6_1.csv
2018-07-10T10:42:09.364838,-0.846,-0.237,0.073,-42.378,40.793,102.012,11_6_1.csv
2018-07-10T10:42:09.408961,-1.346,-0.324,-0.058,-115.549,68.902,175.0,11_6_1.csv
2018-07-10T10:42:09.458092,-1.24,-0.419,0.115,-104.634,43.049,170.244,11_6_1.csv
2018-07-10T10:42:09.505223,-1.24,-0.419,0.115,-81.037,34.939,135.305,11_6_1.csv
2018-07-10T10:42:09.560370,-1.086,-0.266,0.092,-101.707,39.939,96.098,11_6_1.csv
2018-07-10T10:42:09.609505,-1.0,-0.33,0.13,-178.537,-15.0,34.695,11_6_1.csv
2018-07-10T10:42:09.658636,-1.0,-0.33,0.13,-182.683,-24.756,12.927,11_6_1.csv
2018-07-10T10:42:09.703759,-0.832,-0.308,0.182,-154.024,-25.061,1.402,11_6_1.csv
2018-07-10T10:42:09.751386,-0.832,-0.308,0.182,-126.646,-14.512,-1.037,11_6_1.csv
2018-07-10T10:42:09.799015,-0.894,-0.189,0.215,-123.842,-2.317,-2.866,11_6_1.csv
2018-07-10T10:42:09.857169,-0.973,-0.313,0.291,-94.573,17.5,9.817,11_6_1.csv
2018-07-10T10:42:09.912820,-0.973,-0.313,0.291,-32.866,43.659,19.878,11_6_1.csv
2018-07-10T10:42:09.955935,-1.273,-0.324,0.314,8.11,46.951,24.39,11_6_1.csv
2018-07-10T10:42:10.004566,-1.273,-0.324,0.314,11.524,37.988,20.122,11_6_1.csv
2018-07-10T10:42:10.053698,-1.182,-0.405,0.295,26.646,-18.78,-19.024,11_6_1.csv
2018-07-10T10:42:10.101831,-0.992,-0.373,0.228,52.988,-27.012,-46.524,11_6_1.csv
2018-07-10T10:42:10.155975,-0.992,-0.373,0.228,62.683,-33.049,-67.317,11_6_1.csv
2018-07-10T10:42:10.207115,-1.242,-0.335,0.136,77.744,-42.378,-72.378,11_6_1.csv
2018-07-10T10:42:10.259254,-1.176,-0.188,0.095,75.671,-80.305,-84.512,11_6_1.csv
2018-07-10T10:42:10.315409,-1.176,-0.188,0.095,30.183,-87.744,-95.366,11_6_1.csv
2018-07-10T10:42:10.360529,-0.917,-0.172,0.077,-4.39,-89.573,-102.378,11_6_1.csv
2018-07-10T10:42:10.407604,-0.917,-0.172,0.077,-9.939,-76.646,-94.756,11_6_1.csv
2018-07-10T10:42:10.518905,-0.872,-0.199,0.125,-18.78,-4.024,13.11,11_6_1.csv
2018-07-10T10:42:10.576562,-1.241,-0.269,0.042,-65.854,43.171,105.671,11_6_1.csv
2018-07-10T10:42:10.626197,-1.241,-0.269,0.042,-105.061,38.963,130.488,11_6_1.csv
2018-07-10T10:42:10.679342,-1.036,-0.399,0.191,-89.085,41.829,129.207,11_6_1.csv
2018-07-10T10:42:10.727470,-1.036,-0.399,0.191,-42.256,41.585,110.732,11_6_1.csv
2018-07-10T10:42:10.781614,-0.981,-0.226,0.135,-49.39,25.549,78.11,11_6_1.csv
2018-07-10T10:42:10.835760,-1.091,-0.203,0.132,-129.451,1.341,53.293,11_6_1.csv
2018-07-10T10:42:10.891410,-1.091,-0.203,0.132,-190.549,-21.829,23.354,11_6_1.csv
2018-07-10T10:42:10.937032,-0.907,-0.416,0.17,-134.817,-3.476,4.146,11_6_1.csv
2018-07-10T10:42:10.995188,-0.915,-0.368,0.254,-77.012,0.427,8.78,11_6_1.csv
2018-07-10T10:42:11.047328,-0.915,-0.368,0.254,-45.244,9.329,15.122,11_6_1.csv
2018-07-10T10:42:11.100473,-0.96,-0.305,0.309,-8.11,25.976,12.683,11_6_1.csv
2018-07-10T10:42:11.156124,-1.088,-0.371,0.29,11.28,22.317,7.622,11_6_1.csv
2018-07-10T10:42:11.202751,-1.088,-0.371,0.29,32.256,19.451,1.341,11_6_1.csv
2018-07-10T10:42:11.250880,-1.196,-0.514,0.293,61.89,27.439,-3.963,11_6_1.csv
2018-07-10T10:42:11.298011,-1.111,-0.398,0.228,165.061,-8.476,-3.598,11_6_1.csv
2018-07-10T10:42:11.343131,-1.111,-0.398,0.228,167.134,-27.683,-20.976,11_6_1.csv
2018-07-10T10:42:11.390262,-1.199,-0.213,0.128,124.085,-50.61,-44.695,11_6_1.csv
2018-07-10T10:42:11.452427,-1.199,-0.213,0.128,79.451,-70.549,-60.61,11_6_1.csv
2018-07-10T10:42:11.507577,-1.173,-0.246,0.101,16.829,-105.549,-87.683,11_6_1.csv
2018-07-10T10:42:11.548687,-0.918,-0.231,0.044,-13.476,-103.049,-98.476,11_6_1.csv
2018-07-10T10:42:11.598319,-0.918,-0.231,0.044,-28.598,-92.5,-100.488,11_6_1.csv
2018-07-10T10:42:11.645946,-0.731,-0.242,0.072,-34.817,-76.037,-87.134,11_6_1.csv
2018-07-10T10:42:11.690565,-0.731,-0.242,0.072,-34.756,-56.707,-64.024,11_6_1.csv
2018-07-10T10:42:11.743706,-0.693,-0.265,0.111,-14.878,16.037,11.159,11_6_1.csv
2018-07-10T10:42:11.797349,-1.032,-0.264,0.1,-1.585,51.585,54.268,11_6_1.csv
2018-07-10T10:42:11.885587,-1.251,-0.314,0.167,-46.768,86.463,111.768,11_6_1.csv
2018-07-10T10:42:11.942744,-1.063,-0.325,0.235,-27.195,80.854,108.537,11_6_1.csv
2018-07-10T10:42:11.988867,-1.063,-0.325,0.235,-12.012,70.793,93.659,11_6_1.csv
2018-07-10T10:42:12.031988,-1.121,-0.178,0.182,-38.354,53.78,68.72,11_6_1.csv
2018-07-10T10:42:12.095156,-1.121,-0.178,0.182,-99.939,30.366,40.549,11_6_1.csv
2018-07-10T10:42:12.142284,-0.996,-0.32,0.218,-143.11,-5.549,3.293,11_6_1.csv
2018-07-10T10:42:12.188407,-0.891,-0.359,0.244,-92.439,1.402,1.28,11_6_1.csv
2018-07-10T10:42:12.236535,-0.891,-0.359,0.244,-58.659,-1.22,1.951,11_6_1.csv
2018-07-10T10:42:12.280653,-0.904,-0.242,0.267,-63.11,-5.732,-4.329,11_6_1.csv
2018-07-10T10:42:12.328280,-0.904,-0.242,0.267,-76.098,-4.817,-13.598,11_6_1.csv
2018-07-10T10:42:12.381925,-1.016,-0.317,0.277,-55.122,-0.549,-17.439,11_6_1.csv
2018-07-10T10:42:12.435066,-1.409,-0.325,0.237,-0.61,19.695,-12.317,11_6_1.csv
2018-07-10T10:42:12.493738,-1.409,-0.325,0.237,5.671,-22.012,-16.463,11_6_1.csv
2018-07-10T10:42:12.548887,-1.271,-0.23,0.188,-3.049,-76.646,-60.488,11_6_1.csv
2018-07-10T10:42:12.594511,-1.17,-0.178,0.039,-22.378,-96.098,-83.354,11_6_1.csv
2018-07-10T10:42:12.645148,-1.17,-0.178,0.039,-47.073,-114.878,-95.915,11_6_1.csv
2018-07-10T10:42:12.708820,-1.116,-0.244,-0.045,-92.439,-133.232,-87.5,11_6_1.csv
2018-07-10T10:42:12.772996,-0.905,-0.281,-0.032,-88.171,-123.659,-68.902,11_6_1.csv
2018-07-10T10:42:12.815108,-0.905,-0.281,-0.032,-72.5,-100.732,-39.146,11_6_1.csv
2018-07-10T10:42:12.861237,-0.794,-0.245,0.022,-56.89,-87.866,-3.049,11_6_1.csv
2018-07-10T10:42:12.911370,-0.918,-0.258,-0.008,-52.683,-50.244,82.378,11_6_1.csv
2018-07-10T10:42:12.957499,-0.918,-0.258,-0.008,-68.11,-46.037,118.72,11_6_1.csv
2018-07-10T10:42:13.003623,-1.188,-0.374,-0.087,-119.268,-41.402,148.11,11_6_1.csv
2018-07-10T10:42:13.049747,-1.188,-0.374,-0.087,-184.695,-43.171,172.012,11_6_1.csv
2018-07-10T10:42:13.096873,-1.145,-0.549,-0.101,-222.988,-56.768,174.268,11_6_1.csv
2018-07-10T10:42:13.146672,-1.016,-0.389,0.097,-160.122,-6.402,160.61,11_6_1.csv
2018-07-10T10:42:13.250955,-1.016,-0.389,0.097,-38.171,25.854,129.329,11_6_1.csv
2018-07-10T10:42:13.299084,-1.016,-0.389,0.097,-74.695,33.537,88.841,11_6_1.csv
2018-07-10T10:42:13.360252,-0.947,-0.309,0.115,-164.756,14.756,23.476,11_6_1.csv
2018-07-10T10:42:13.407379,-0.938,-0.388,0.151,-170.61,12.439,9.756,11_6_1.csv
2018-07-10T10:42:13.453506,-0.938,-0.388,0.151,-157.927,18.049,5.366,11_6_1.csv
2018-07-10T10:42:13.501636,-0.956,-0.263,0.236,-144.939,17.927,-0.427,11_6_1.csv
2018-07-10T10:42:13.548762,-0.993,-0.207,0.354,-138.963,33.537,-2.256,11_6_1.csv
2018-07-10T10:42:13.595887,-0.993,-0.207,0.354,-110.122,36.159,9.878,11_6_1.csv
2018-07-10T10:42:13.654042,-1.114,-0.197,0.442,-65.122,42.622,17.5,11_6_1.csv
2018-07-10T10:42:13.706682,-1.114,-0.197,0.442,-46.28,36.768,18.354,11_6_1.csv
2018-07-10T10:42:13.754309,-1.203,-0.223,0.328,-36.829,1.524,-5.671,11_6_1.csv
2018-07-10T10:42:13.813469,-1.053,-0.388,0.228,-16.951,-17.988,-17.378,11_6_1.csv
2018-07-10T10:42:13.859592,-1.053,-0.388,0.228,12.622,-22.134,-23.11,11_6_1.csv
2018-07-10T10:42:13.913742,-1.029,-0.417,0.169,31.951,-28.232,-41.89,11_6_1.csv
2018-07-10T10:42:13.961870,-1.085,-0.392,0.159,39.146,-33.476,-45.915,11_6_1.csv
2018-07-10T10:42:14.017023,-1.085,-0.392,0.159,40.915,-41.89,-54.085,11_6_1.csv
2018-07-10T10:42:14.061140,-1.046,-0.312,0.212,39.085,-40.549,-66.829,11_6_1.csv
2018-07-10T10:42:14.111280,-0.99,-0.268,0.202,22.256,-52.073,-71.829,11_6_1.csv
2018-07-10T10:42:14.156401,-0.99,-0.268,0.202,23.415,-50.732,-63.11,11_6_1.csv
2018-07-10T10:42:14.203080,-0.904,-0.225,0.17,12.927,-50.061,-49.268,11_6_1.csv
2018-07-10T10:42:14.256222,-0.904,-0.225,0.17,-8.72,-37.439,-32.805,11_6_1.csv
2018-07-10T10:42:14.296335,-0.914,-0.269,0.146,-24.024,-30.305,-15.305,11_6_1.csv
2018-07-10T10:42:14.344463,-0.914,-0.269,0.146,-26.646,-10.732,9.939,11_6_1.csv
2018-07-10T10:42:14.393600,-1.192,-0.309,0.1,-1.89,27.073,47.439,11_6_1.csv
2018-07-10T10:42:14.436715,-1.125,-0.176,0.159,-27.561,16.341,51.829,11_6_1.csv
2018-07-10T10:42:14.484846,-1.125,-0.176,0.159,-70.061,3.293,47.5,11_6_1.csv
2018-07-10T10:42:14.611972,-0.946,-0.186,0.134,-25.732,14.756,55.061,11_6_1.csv
2018-07-10T10:42:14.661105,-0.946,-0.186,0.134,-72.134,6.22,53.537,11_6_1.csv
2018-07-10T10:42:14.712243,-0.988,-0.261,0.117,-134.939,-8.11,42.927,11_6_1.csv
2018-07-10T10:42:14.754356,-0.914,-0.452,0.2,-119.451,11.829,36.341,11_6_1.csv
2018-07-10T10:42:14.812515,-0.914,-0.452,0.2,-46.707,29.451,44.695,11_6_1.csv
2018-07-10T10:42:14.860643,-0.96,-0.307,0.296,-0.366,30.366,49.817,11_6_1.csv
2018-07-10T10:42:14.923818,-1.023,-0.297,0.306,-34.024,25.366,27.012,11_6_1.csv
2018-07-10T10:42:14.993507,-1.023,-0.297,0.306,-32.805,18.293,16.829,11_6_1.csv
2018-07-10T10:42:15.032108,-1.184,-0.465,0.301,-7.988,19.756,10.854,11_6_1.csv
2018-07-10T10:42:15.083247,-1.196,-0.538,0.317,66.89,11.037,-0.549,11_6_1.csv
2018-07-10T10:42:15.130372,-1.196,-0.538,0.317,113.842,-13.841,-11.22,11_6_1.csv
2018-07-10T10:42:15.176501,-1.065,-0.395,0.149,141.89,-30.244,-30.427,11_6_1.csv
2018-07-10T10:42:15.219616,-1.065,-0.395,0.149,146.829,-38.537,-46.585,11_6_1.csv
2018-07-10T10:42:15.268751,-1.223,-0.36,0.067,145.122,-54.878,-52.012,11_6_1.csv
2018-07-10T10:42:15.313871,-1.223,-0.36,0.067,136.951,-70.976,-56.402,11_6_1.csv
2018-07-10T10:42:15.377044,-1.136,-0.307,-0.002,87.683,-83.78,-76.159,11_6_1.csv
2018-07-10T10:42:15.426175,-0.926,-0.247,-0.026,53.598,-85.366,-85.732,11_6_1.csv
2018-07-10T10:42:15.469296,-0.926,-0.247,-0.026,19.39,-74.756,-90.244,11_6_1.csv
2018-07-10T10:42:15.515419,-0.803,-0.298,0.031,1.463,-57.134,-85.732,11_6_1.csv
2018-07-10T10:42:15.563552,-0.917,-0.292,0.075,31.524,2.622,-33.415,11_6_1.csv
2018-07-10T10:42:15.608673,-0.917,-0.292,0.075,53.659,41.159,-2.988,11_6_1.csv
2018-07-10T10:42:15.657304,-1.106,-0.095,0.193,42.683,60.244,19.085,11_6_1.csv
2018-07-10T10:42:15.709947,-1.106,-0.095,0.193,-7.317,56.098,31.463,11_6_1.csv
2018-07-10T10:42:15.752061,-0.839,-0.118,0.349,-49.146,55.671,37.5,11_6_1.csv
2018-07-10T10:42:15.812223,-0.973,-0.172,0.288,-5.732,78.293,53.354,11_6_1.csv
2018-07-10T10:42:15.860355,-0.973,-0.172,0.288,10.0,68.293,61.646,11_6_1.csv
2018-07-10T10:42:15.906479,-1.154,-0.168,0.28,-36.28,49.451,65.427,11_6_1.csv
2018-07-10T10:42:16.016778,-1.005,-0.352,0.316,-53.476,31.646,37.805,11_6_1.csv
2018-07-10T10:42:16.066917,-1.002,-0.333,0.383,-16.768,30.793,40.427,11_6_1.csv
2018-07-10T10:42:16.113040,-1.002,-0.333,0.383,-10.366,21.159,37.744,11_6_1.csv
2018-07-10T10:42:16.174208,-0.98,-0.354,0.401,8.598,11.098,18.963,11_6_1.csv
2018-07-10T10:42:16.228352,-1.161,-0.46,0.29,48.537,17.195,14.634,11_6_1.csv
2018-07-10T10:42:16.302555,-1.286,-0.551,0.221,90.061,3.415,4.878,11_6_1.csv
2018-07-10T10:42:16.346672,-1.286,-0.551,0.221,117.012,-13.841,-5.122,11_6_1.csv
2018-07-10T10:42:16.397814,-0.962,-0.439,0.112,157.378,-41.159,-24.634,11_6_1.csv
2018-07-10T10:42:16.453464,-1.117,-0.335,0.036,136.829,-42.134,-52.927,11_6_1.csv
2018-07-10T10:42:16.501593,-1.117,-0.335,0.036,95.183,-68.902,-40.976,11_6_1.csv
2018-07-10T10:42:16.548217,-1.104,-0.438,-0.004,74.756,-74.329,-34.207,11_6_1.csv
2018-07-10T10:42:16.596346,-1.104,-0.438,-0.004,65.976,-69.024,-45.0,11_6_1.csv
2018-07-10T10:42:16.640964,-0.94,-0.387,-0.083,47.317,-69.695,-63.72,11_6_1.csv
2018-07-10T10:42:16.688593,-0.933,-0.372,-0.044,32.561,-28.902,-90.305,11_6_1.csv
2018-07-10T10:42:16.744745,-0.933,-0.372,-0.044,34.756,-13.232,-85.976,11_6_1.csv
2018-07-10T10:42:16.797890,-0.964,-0.314,0.052,53.902,9.268,-70.732,11_6_1.csv
2018-07-10T10:42:16.844015,-1.077,-0.049,0.13,75.061,51.646,-24.573,11_6_1.csv
2018-07-10T10:42:16.898928,-1.077,-0.049,0.13,18.415,55.061,-0.854,11_6_1.csv
2018-07-10T10:42:16.946557,-0.862,-0.081,0.364,-34.695,55.244,17.622,11_6_1.csv
2018-07-10T10:42:16.990175,-0.862,-0.081,0.364,-31.585,71.037,36.28,11_6_1.csv
2018-07-10T10:42:17.049836,-0.942,-0.232,0.371,77.317,102.866,71.89,11_6_1.csv
2018-07-10T10:42:17.098467,-1.192,-0.149,0.336,72.134,78.232,74.146,11_6_1.csv
2018-07-10T10:42:17.142087,-1.192,-0.149,0.336,24.451,55.793,58.78,11_6_1.csv
2018-07-10T10:42:17.199743,-1.043,-0.271,0.338,-2.256,39.878,37.805,11_6_1.csv
2018-07-10T10:42:17.250380,-0.99,-0.304,0.305,38.598,20.427,24.939,11_6_1.csv
2018-07-10T10:42:17.355667,-0.959,-0.296,0.242,28.963,-1.524,1.524,11_6_1.csv
2018-07-10T10:42:17.423350,-0.987,-0.35,0.162,33.963,-11.524,-15.793,11_6_1.csv
2018-07-10T10:42:17.469477,-0.987,-0.35,0.162,40.549,-5.061,-21.402,11_6_1.csv
2018-07-10T10:42:17.517605,-1.182,-0.423,0.066,39.146,4.024,-24.756,11_6_1.csv
2018-07-10T10:42:17.566739,-1.182,-0.423,0.066,37.439,6.463,-27.866,11_6_1.csv
2018-07-10T10:42:17.615368,-1.053,-0.573,0.11,120.61,5.671,-41.89,11_6_1.csv
2018-07-10T10:42:17.673523,-1.121,-0.516,0.018,172.5,14.939,-58.537,11_6_1.csv
2018-07-10T10:42:17.721150,-1.121,-0.516,0.018,183.903,-4.329,-82.5,11_6_1.csv
2018-07-10T10:42:17.766272,-1.219,-0.387,0.04,163.171,-27.622,-102.134,11_6_1.csv
2018-07-10T10:42:17.813897,-0.993,-0.308,0.13,93.841,-53.598,-118.171,11_6_1.csv
2018-07-10T10:42:17.860521,-0.993,-0.308,0.13,60.183,-61.524,-110.61,11_6_1.csv
2018-07-10T10:42:17.906645,-0.778,-0.284,0.165,36.463,-57.439,-93.902,11_6_1.csv
2018-07-10T10:42:17.960791,-0.778,-0.284,0.165,32.012,-38.963,-69.512,11_6_1.csv
2018-07-10T10:42:18.025466,-0.784,-0.293,0.216,38.902,-4.573,11.829,11_6_1.csv
2018-07-10T10:42:18.091144,-0.995,-0.234,0.191,45.427,42.073,70.122,11_6_1.csv
2018-07-10T10:42:18.142283,-1.121,-0.195,0.228,3.72,59.512,87.866,11_6_1.csv
2018-07-10T10:42:18.196428,-1.121,-0.195,0.228,-27.5,62.195,94.085,11_6_1.csv
2018-07-10T10:42:18.256592,-0.849,-0.291,0.293,12.988,80.122,92.866,11_6_1.csv
2018-07-10T10:42:18.299707,-1.011,-0.243,0.248,40.061,86.707,91.951,11_6_1.csv
2018-07-10T10:42:18.347841,-1.011,-0.243,0.248,20.549,71.768,82.866,11_6_1.csv
2018-07-10T10:42:18.395969,-1.15,-0.183,0.252,-37.988,48.598,60.0,11_6_1.csv
2018-07-10T10:42:18.458139,-0.939,-0.259,0.286,-106.463,13.232,0.244,11_6_1.csv
2018-07-10T10:42:18.515294,-0.939,-0.259,0.286,-71.28,18.049,-8.232,11_6_1.csv
2018-07-10T10:42:18.564427,-0.9,-0.207,0.34,-38.598,16.402,-0.549,11_6_1.csv
2018-07-10T10:42:18.610550,-0.9,-0.207,0.34,-17.805,20.427,10.061,11_6_1.csv
2018-07-10T10:42:18.703803,-1.173,-0.311,0.28,21.707,23.171,22.5,11_6_1.csv
2018-07-10T10:42:18.749932,-1.173,-0.311,0.28,43.841,19.085,20.854,11_6_1.csv
2018-07-10T10:42:18.810093,-1.238,-0.388,0.223,59.512,8.537,11.524,11_6_1.csv
2018-07-10T10:42:18.871260,-0.954,-0.437,0.18,81.341,-19.939,-30.61,11_6_1.csv
2018-07-10T10:42:18.938444,-1.059,-0.511,0.115,124.207,-12.683,-46.341,11_6_1.csv
2018-07-10T10:42:18.986573,-1.059,-0.511,0.115,156.89,-19.329,-32.378,11_6_1.csv
2018-07-10T10:42:19.032700,-1.266,-0.446,-0.004,178.476,-37.256,-20.427,11_6_1.csv
2018-07-10T10:42:19.077820,-1.266,-0.446,-0.004,156.89,-53.598,-29.451,11_6_1.csv
2018-07-10T10:42:19.124948,-1.14,-0.324,-0.017,112.988,-67.256,-57.134,11_6_1.csv
2018-07-10T10:42:19.184108,-1.016,-0.293,-0.013,43.171,-67.561,-115.183,11_6_1.csv
2018-07-10T10:42:19.245276,-1.016,-0.293,-0.013,24.695,-66.829,-124.268,11_6_1.csv
2018-07-10T10:42:19.297415,-0.934,-0.304,0.012,33.78,-22.317,-96.402,11_6_1.csv
2018-07-10T10:42:19.343039,-0.997,-0.201,0.034,31.402,-8.963,-69.39,11_6_1.csv
2018-07-10T10:42:19.395179,-0.997,-0.201,0.034,11.098,27.622,-36.585,11_6_1.csv
2018-07-10T10:42:19.442304,-1.019,-0.122,0.153,-12.439,48.78,-1.585,11_6_1.csv
2018-07-10T10:42:19.488928,-1.019,-0.122,0.153,-20.732,41.646,27.5,11_6_1.csv
2018-07-10T10:42:19.543072,-0.867,-0.068,0.256,-13.354,80.061,69.39,11_6_1.csv
2018-07-10T10:42:19.595712,-1.069,-0.125,0.24,-25.488,77.195,78.293,11_6_1.csv
2018-07-10T10:42:19.640833,-1.069,-0.125,0.24,-37.744,83.659,84.329,11_6_1.csv
2018-07-10T10:42:19.691467,-1.148,-0.276,0.292,-53.415,61.951,86.463,11_6_1.csv
2018-07-10T10:42:19.735084,-1.148,-0.276,0.292,-54.451,53.902,83.537,11_6_1.csv
2018-07-10T10:42:19.780708,-1.087,-0.306,0.32,-33.11,34.268,53.841,11_6_1.csv
2018-07-10T10:42:19.837864,-1.039,-0.25,0.321,-40.305,18.902,36.951,11_6_1.csv
2018-07-10T10:42:19.895018,-1.039,-0.25,0.321,-53.11,2.744,17.683,11_6_1.csv
2018-07-10T10:42:19.936127,-1.015,-0.307,0.32,-57.622,-3.293,5.183,11_6_1.csv
2018-07-10T10:42:19.987269,-1.112,-0.396,0.268,-3.902,-6.159,2.927,11_6_1.csv
2018-07-10T10:42:20.077515,-1.169,-0.467,0.23,50.183,-3.902,2.317,11_6_1.csv
2018-07-10T10:42:20.129654,-1.169,-0.467,0.23,74.939,-23.049,-6.646,11_6_1.csv
2018-07-10T10:42:20.183805,-0.987,-0.443,0.162,133.72,-28.841,-39.268,11_6_1.csv
2018-07-10T10:42:20.242965,-1.169,-0.36,0.054,141.098,-41.951,-44.085,11_6_1.csv
2018-07-10T10:42:20.289087,-1.169,-0.36,0.054,127.988,-56.646,-42.866,11_6_1.csv
2018-07-10T10:42:20.331701,-1.119,-0.292,0.012,94.573,-73.171,-51.159,11_6_1.csv
2018-07-10T10:42:20.378325,-1.119,-0.292,0.012,52.805,-75.732,-68.232,11_6_1.csv
2018-07-10T10:42:20.423445,-0.941,-0.282,-0.012,-6.098,-66.707,-97.927,11_6_1.csv
2018-07-10T10:42:20.484608,-0.887,-0.324,0.057,-8.78,-46.524,-96.037,11_6_1.csv
2018-07-10T10:42:20.532235,-0.887,-0.324,0.057,7.134,-24.329,-77.134,11_6_1.csv
2018-07-10T10:42:20.577857,-0.957,-0.261,0.136,27.5,-5.671,-46.646,11_6_1.csv
2018-07-10T10:42:20.627992,-1.076,-0.03,0.202,33.902,34.268,11.037,11_6_1.csv
2018-07-10T10:42:20.672110,-1.076,-0.03,0.202,-26.159,40.183,40.061,11_6_1.csv
2018-07-10T10:42:20.718238,-0.896,-0.156,0.338,-71.951,49.451,62.378,11_6_1.csv
2018-07-10T10:42:20.770377,-0.896,-0.156,0.338,-50.305,66.098,81.89,11_6_1.csv
2018-07-10T10:42:20.813498,-0.957,-0.281,0.315,13.841,90.671,102.073,11_6_1.csv
2018-07-10T10:42:20.859620,-0.957,-0.281,0.315,54.268,87.012,106.159,11_6_1.csv
2018-07-10T10:42:20.907755,-1.151,-0.124,0.248,-47.622,37.317,64.939,11_6_1.csv
2018-07-10T10:42:20.951871,-1.016,-0.292,0.282,-86.28,23.415,38.11,11_6_1.csv
2018-07-10T10:42:21.001507,-1.016,-0.292,0.282,-62.195,17.805,23.72,11_6_1.csv
2018-07-10T10:42:21.059160,-0.972,-0.284,0.334,-19.024,20.244,20.61,11_6_1.csv
2018-07-10T10:42:21.113806,-0.995,-0.212,0.366,-7.439,8.659,15.671,11_6_1.csv
2018-07-10T10:42:21.155918,-0.995,-0.212,0.366,-0.305,1.402,9.878,11_6_1.csv
2018-07-10T10:42:21.211569,-1.028,-0.276,0.327,16.037,-2.134,5.61,11_6_1.csv
2018-07-10T10:42:21.248668,-1.028,-0.276,0.327,33.11,-5.305,3.537,11_6_1.csv
2018-07-10T10:42:21.296801,-1.203,-0.417,0.203,58.537,0.0,2.195,11_6_1.csv
2018-07-10T10:42:21.361974,-1.159,-0.531,0.15,97.805,-12.317,-17.073,11_6_1.csv
2018-07-10T10:42:21.469265,-1.003,-0.428,0.055,172.866,-28.476,-69.085,11_6_1.csv
2018-07-10T10:42:21.515393,-1.193,-0.346,-0.017,164.512,-40.671,-66.22,11_6_1.csv
2018-07-10T10:42:21.562519,-1.193,-0.346,-0.017,137.805,-59.817,-58.659,11_6_1.csv
2018-07-10T10:42:21.611151,-1.087,-0.326,-0.041,97.744,-65.366,-61.341,11_6_1.csv
2018-07-10T10:42:21.656772,-1.087,-0.326,-0.041,57.927,-64.573,-74.39,11_6_1.csv
2018-07-10T10:42:21.704901,-0.892,-0.336,-0.067,28.659,-58.963,-88.049,11_6_1.csv
2018-07-10T10:42:21.751024,-0.837,-0.362,-0.012,25.549,-16.341,-85.366,11_6_1.csv
2018-07-10T10:42:21.817764,-0.837,-0.362,-0.012,39.939,6.463,-65.0,11_6_1.csv
2018-07-10T10:42:21.884947,-0.954,-0.319,0.061,76.159,59.451,-7.012,11_6_1.csv
2018-07-10T10:42:21.926058,-1.191,-0.093,0.153,68.598,73.354,14.573,11_6_1.csv
2018-07-10T10:42:21.975190,-1.191,-0.093,0.153,14.085,75.0,22.805,11_6_1.csv
2018-07-10T10:42:22.027331,-0.931,-0.099,0.391,-29.817,60.671,21.463,11_6_1.csv
2018-07-10T10:42:22.077969,-1.003,-0.098,0.357,54.024,89.024,52.988,11_6_1.csv
2018-07-10T10:42:22.123593,-1.003,-0.098,0.357,53.171,62.561,61.037,11_6_1.csv
2018-07-10T10:42:22.173729,-1.188,-0.111,0.291,-1.28,49.939,53.841,11_6_1.csv
2018-07-10T10:42:22.217849,-1.188,-0.111,0.291,-33.841,26.89,36.768,11_6_1.csv
2018-07-10T10:42:22.265478,-1.016,-0.215,0.283,-21.159,13.11,29.756,11_6_1.csv
2018-07-10T10:42:22.324136,-0.999,-0.188,0.292,-2.256,11.159,33.415,11_6_1.csv
2018-07-10T10:42:22.381291,-0.999,-0.188,0.292,-1.89,3.476,33.11,11_6_1.csv
2018-07-10T10:42:22.424907,-0.99,-0.218,0.309,-7.073,-4.512,31.707,11_6_1.csv
2018-07-10T10:42:22.472534,-0.968,-0.283,0.294,7.5,-10.488,19.512,11_6_1.csv
2018-07-10T10:42:22.519660,-0.968,-0.283,0.294,12.317,-11.098,15.0,11_6_1.csv
2018-07-10T10:42:22.565282,-1.14,-0.492,0.211,40.305,-0.854,9.817,11_6_1.csv
2018-07-10T10:42:22.620429,-1.14,-0.492,0.211,77.5,10.488,5.122,11_6_1.csv
2018-07-10T10:42:22.681091,-1.177,-0.598,0.147,141.768,-23.659,-23.476,11_6_1.csv
2018-07-10T10:42:22.794393,-1.19,-0.373,-0.039,129.146,-59.207,-84.817,11_6_1.csv
2018-07-10T10:42:22.848537,-1.19,-0.373,-0.039,106.342,-68.415,-99.451,11_6_1.csv
2018-07-10T10:42:22.893156,-1.104,-0.346,-0.065,82.317,-63.354,-114.756,11_6_1.csv
2018-07-10T10:42:22.941788,-1.104,-0.346,-0.065,62.317,-57.195,-124.634,11_6_1.csv
2018-07-10T10:42:22.998940,-0.946,-0.329,-0.028,59.817,-25.427,-112.927,11_6_1.csv
2018-07-10T10:42:23.049078,-0.872,-0.292,0.049,67.134,-4.512,-89.085,11_6_1.csv
2018-07-10T10:42:23.101217,-0.872,-0.292,0.049,70.61,14.573,-59.695,11_6_1.csv
2018-07-10T10:42:23.156369,-0.971,-0.181,0.1,45.61,52.866,-2.683,11_6_1.csv
2018-07-10T10:42:23.215529,-1.054,-0.088,0.202,1.524,60.244,23.537,11_6_1.csv
2018-07-10T10:42:23.266668,-1.054,-0.088,0.202,-31.159,68.598,43.659,11_6_1.csv
2018-07-10T10:42:23.312291,-0.874,-0.22,0.381,-18.354,87.866,62.134,11_6_1.csv
2018-07-10T10:42:23.363932,-1.08,-0.171,0.263,79.878,103.902,86.951,11_6_1.csv
2018-07-10T10:42:23.406548,-1.08,-0.171,0.263,75.183,86.707,76.768,11_6_1.csv
2018-07-10T10:42:23.458188,-1.165,-0.15,0.249,16.28,63.598,52.134,11_6_1.csv
2018-07-10T10:42:23.509326,-1.165,-0.15,0.249,-22.805,41.463,23.537,11_6_1.csv
2018-07-10T10:42:23.563473,-1.0,-0.285,0.287,3.11,32.805,14.939,11_6_1.csv
2018-07-10T10:42:23.611602,-0.998,-0.217,0.302,24.878,25.854,16.646,11_6_1.csv
2018-07-10T10:42:23.660736,-0.998,-0.217,0.302,16.28,18.049,17.134,11_6_1.csv
2018-07-10T10:42:23.706859,-0.996,-0.202,0.289,6.28,4.939,12.439,11_6_1.csv
2018-07-10T10:42:23.760005,-1.11,-0.288,0.205,16.707,-5.366,3.963,11_6_1.csv
2018-07-10T10:42:23.824180,-1.11,-0.288,0.205,25.122,-8.537,0.366,11_6_1.csv
2018-07-10T10:42:23.878325,-1.237,-0.429,0.146,31.341,-11.89,-4.085,11_6_1.csv
2018-07-10T10:42:23.926956,-0.99,-0.5,0.133,78.78,-31.037,-23.72,11_6_1.csv
2018-07-10T10:42:23.990627,-0.99,-0.5,0.133,119.939,-30.427,-34.207,11_6_1.csv
2018-07-10T10:42:24.032237,-1.05,-0.366,0.031,131.342,-29.878,-47.012,11_6_1.csv
2018-07-10T10:42:24.156069,-1.128,-0.337,0.024,91.402,-49.207,-58.841,11_6_1.csv
2018-07-10T10:42:24.216230,-0.99,-0.28,0.045,44.39,-48.72,-74.39,11_6_1.csv
2018-07-10T10:42:24.266368,-0.844,-0.263,0.06,21.89,-46.159,-79.512,11_6_1.csv
2018-07-10T10:42:24.313493,-0.844,-0.263,0.06,17.744,-30.671,-77.073,11_6_1.csv
2018-07-10T10:42:24.361626,-0.938,-0.257,0.072,22.012,-10.793,-59.146,11_6_1.csv
2018-07-10T10:42:24.413765,-1.153,-0.184,0.085,7.561,25.854,-1.098,11_6_1.csv
2018-07-10T10:42:24.458889,-1.153,-0.184,0.085,-22.256,40.305,23.415,11_6_1.csv
2018-07-10T10:42:24.510025,-0.965,-0.198,0.257,-43.171,41.28,36.89,11_6_1.csv
2018-07-10T10:42:24.562170,-0.922,-0.156,0.279,8.72,70.0,57.317,11_6_1.csv
2018-07-10T10:42:24.609295,-0.922,-0.156,0.279,12.317,56.341,60.854,11_6_1.csv
2018-07-10T10:42:24.657428,-1.08,-0.121,0.214,-24.207,42.927,56.768,11_6_1.csv
2018-07-10T10:42:24.703552,-1.08,-0.121,0.214,-72.805,24.756,40.671,11_6_1.csv
2018-07-10T10:42:24.749677,-0.996,-0.26,0.218,-89.695,13.659,29.207,11_6_1.csv
2018-07-10T10:42:24.804826,-0.979,-0.281,0.244,-56.28,21.22,32.622,11_6_1.csv
2018-07-10T10:42:24.861981,-0.979,-0.281,0.244,-40.732,18.537,35.427,11_6_1.csv
2018-07-10T10:42:24.908106,-0.993,-0.233,0.268,-43.171,14.268,34.085,11_6_1.csv
2018-07-10T10:42:24.955231,-0.993,-0.233,0.268,-46.037,12.256,28.415,11_6_1.csv
2018-07-10T10:42:25.003365,-1.08,-0.306,0.267,-30.244,15.305,25.793,11_6_1.csv
2018-07-10T10:42:25.046479,-1.209,-0.394,0.221,-1.22,9.39,14.451,11_6_1.csv
2018-07-10T10:42:25.096617,-1.209,-0.394,0.221,12.744,10.0,7.744,11_6_1.csv
2018-07-10T10:42:25.145749,-1.088,-0.534,0.222,49.573,-3.963,3.171,11_6_1.csv
2018-07-10T10:42:25.186860,-1.088,-0.534,0.222,97.5,-20.549,-9.939,11_6_1.csv
2018-07-10T10:42:25.244016,-0.979,-0.383,0.133,125.915,-16.341,-32.073,11_6_1.csv
2018-07-10T10:42:25.282120,-0.979,-0.383,0.133,120.671,-31.341,-52.439,11_6_1.csv
2018-07-10T10:42:25.330248,-1.146,-0.37,0.079,117.439,-48.841,-48.171,11_6_1.csv
2018-07-10T10:42:25.385896,-1.104,-0.313,0.012,102.805,-62.805,-48.78,11_6_1.csv
2018-07-10T10:42:25.438035,-1.104,-0.313,0.012,73.963,-65.183,-62.744,11_6_1.csv
2018-07-10T10:42:25.517247,-0.951,-0.256,0.006,20.671,-57.5,-90.427,11_6_1.csv
2018-07-10T10:42:25.564873,-0.852,-0.283,0.067,16.768,-42.439,-87.317,11_6_1.csv
2018-07-10T10:42:25.611999,-0.946,-0.236,0.12,46.463,7.012,-33.232,11_6_1.csv
2018-07-10T10:42:25.658623,-0.946,-0.236,0.12,51.037,35.61,1.524,11_6_1.csv
2018-07-10T10:42:25.719786,-1.156,-0.106,0.191,27.073,51.402,30.732,11_6_1.csv
2018-07-10T10:42:25.768415,-0.867,-0.182,0.309,-24.573,40.61,47.439,11_6_1.csv
2018-07-10T10:42:25.816544,-0.867,-0.182,0.309,-45.732,49.146,55.61,11_6_1.csv
2018-07-10T10:42:25.876203,-0.951,-0.239,0.264,1.159,67.073,62.927,11_6_1.csv
2018-07-10T10:42:25.921824,-0.951,-0.239,0.264,25.488,61.768,67.378,11_6_1.csv
2018-07-10T10:42:25.972471,-1.074,-0.194,0.248,-58.354,38.11,52.866,11_6_1.csv
2018-07-10T10:42:26.019597,-0.974,-0.37,0.29,-47.927,40.61,45.244,11_6_1.csv
2018-07-10T10:42:26.080264,-0.974,-0.37,0.29,-3.354,41.89,42.744,11_6_1.csv
2018-07-10T10:42:26.130397,-0.975,-0.325,0.343,41.463,32.256,30.732,11_6_1.csv
2018-07-10T10:42:26.177528,-0.954,-0.323,0.366,35.61,23.293,21.037,11_6_1.csv
2018-07-10T10:42:26.223651,-0.954,-0.323,0.366,43.598,22.927,16.646,11_6_1.csv
2018-07-10T10:42:26.270782,-1.161,-0.396,0.28,71.524,9.939,12.561,11_6_1.csv
2018-07-10T10:42:26.315902,-1.161,-0.396,0.28,87.195,-6.524,-1.829,11_6_1.csv
2018-07-10T10:42:26.379075,-1.348,-0.409,0.147,62.134,-46.22,-44.085,11_6_1.csv
2018-07-10T10:42:26.427205,-1.06,-0.448,0.054,78.598,-62.805,-63.049,11_6_1.csv
2018-07-10T10:42:26.477342,-1.06,-0.448,0.054,103.963,-57.317,-80.549,11_6_1.csv
2018-07-10T10:42:26.516446,-1.09,-0.412,-0.023,117.988,-43.049,-84.024,11_6_1.csv
2018-07-10T10:42:26.564579,-1.09,-0.412,-0.023,125.183,-44.329,-66.524,11_6_1.csv
2018-07-10T10:42:26.609699,-1.066,-0.402,-0.037,127.195,-48.598,-41.341,11_6_1.csv
2018-07-10T10:42:26.657833,-0.908,-0.336,-0.064,83.171,-39.512,-44.024,11_6_1.csv
2018-07-10T10:42:26.709972,-0.908,-0.336,-0.064,50.732,-35.366,-55.183,11_6_1.csv
2018-07-10T10:42:26.766126,-0.834,-0.372,-0.038,37.622,-20.915,-57.866,11_6_1.csv
2018-07-10T10:42:26.813251,-0.834,-0.372,-0.038,43.171,5.183,-52.317,11_6_1.csv
2018-07-10T10:42:26.922545,-1.079,-0.205,0.144,71.768,48.963,-13.963,11_6_1.csv
2018-07-10T10:42:26.970678,-1.079,-0.205,0.144,56.524,62.866,-2.744,11_6_1.csv
2018-07-10T10:42:27.019808,-1.125,-0.099,0.288,-25.061,60.854,13.659,11_6_1.csv
2018-07-10T10:42:27.077969,-0.888,-0.169,0.433,-4.146,61.463,17.683,11_6_1.csv
2018-07-10T10:42:27.131110,-0.888,-0.169,0.433,34.207,66.951,26.463,11_6_1.csv
2018-07-10T10:42:27.176236,-1.06,-0.083,0.307,12.866,31.098,37.622,11_6_1.csv
2018-07-10T10:42:27.230380,-1.101,-0.223,0.267,-32.683,9.878,31.89,11_6_1.csv
2018-07-10T10:42:27.281522,-1.101,-0.223,0.267,-34.939,2.866,20.183,11_6_1.csv
2018-07-10T10:42:27.328648,-0.866,-0.387,0.265,0.0,11.22,12.378,11_6_1.csv
2018-07-10T10:42:27.385805,-0.858,-0.381,0.237,68.11,34.024,22.622,11_6_1.csv
2018-07-10T10:42:27.441457,-0.858,-0.381,0.237,82.866,38.963,23.232,11_6_1.csv
2018-07-10T10:42:27.488084,-0.938,-0.383,0.242,87.866,34.207,15.244,11_6_1.csv
2018-07-10T10:42:27.536212,-0.938,-0.383,0.242,96.037,28.049,1.585,11_6_1.csv
2018-07-10T10:42:27.594373,-1.151,-0.392,0.23,77.256,6.89,-39.024,11_6_1.csv
2018-07-10T10:42:27.655542,-1.416,-0.493,0.132,50.915,-12.195,-69.39,11_6_1.csv
2018-07-10T10:42:27.712694,-1.083,-0.492,0.132,24.756,-38.72,-141.524,11_6_1.csv
2018-07-10T10:42:27.768850,-1.083,-0.492,0.132,51.402,-31.22,-137.256,11_6_1.csv
2018-07-10T10:42:27.814973,-0.776,-0.413,0.073,90.549,-19.268,-116.402,11_6_1.csv
2018-07-10T10:42:27.860098,-0.792,-0.349,0.084,130.793,8.78,-43.354,11_6_1.csv
2018-07-10T10:42:27.912237,-0.792,-0.349,0.084,139.329,17.866,6.463,11_6_1.csv
2018-07-10T10:42:27.984433,-0.855,-0.254,0.056,92.622,15.122,55.671,11_6_1.csv
2018-07-10T10:42:28.038578,-0.888,-0.262,0.064,31.585,16.646,52.134,11_6_1.csv
2018-07-10T10:42:28.094732,-0.888,-0.262,0.064,-10.671,30.183,46.341,11_6_1.csv
2018-07-10T10:42:28.144868,-0.979,-0.412,0.155,35.915,45.122,61.768,11_6_1.csv
2018-07-10T10:42:28.252159,-1.091,-0.265,0.122,-25.549,47.439,44.146,11_6_1.csv
2018-07-10T10:42:28.313324,-1.271,-0.344,0.165,-63.049,49.939,32.012,11_6_1.csv
2018-07-10T10:42:28.374492,-0.945,-0.349,0.304,-3.293,48.598,31.463,11_6_1.csv
2018-07-10T10:42:28.436658,-0.845,-0.119,0.217,43.11,45.183,7.805,11_6_1.csv
2018-07-10T10:42:28.489804,-0.845,-0.119,0.217,24.939,52.073,10.305,11_6_1.csv
2018-07-10T10:42:28.547962,-1.127,-0.098,0.146,-0.244,-1.463,2.988,11_6_1.csv
2018-07-10T10:42:28.596093,-0.987,-0.104,0.145,-22.561,-2.683,-10.671,11_6_1.csv
2018-07-10T10:42:28.642218,-0.987,-0.104,0.145,2.805,6.22,-4.512,11_6_1.csv
2018-07-10T10:42:28.689346,-0.993,-0.062,0.133,30.0,7.561,13.293,11_6_1.csv
2018-07-10T10:42:28.755024,-1.033,-0.068,0.16,12.317,1.768,29.085,11_6_1.csv
2018-07-10T10:42:28.828723,-1.083,-0.144,0.144,6.22,-4.024,28.415,11_6_1.csv
2018-07-10T10:42:28.880868,-1.083,-0.144,0.144,6.646,-3.171,24.634,11_6_1.csv
2018-07-10T10:42:28.923982,-1.292,-0.375,0.095,20.0,1.89,20.915,11_6_1.csv
2018-07-10T10:42:28.969107,-1.292,-0.375,0.095,39.451,-14.39,9.207,11_6_1.csv
2018-07-10T10:42:29.017235,-0.958,-0.478,0.132,63.72,-36.89,-13.049,11_6_1.csv
2018-07-10T10:42:29.063362,-0.958,-0.478,0.132,96.707,-23.659,-32.927,11_6_1.csv
2018-07-10T10:42:29.109485,-1.015,-0.455,0.095,151.646,-29.451,-44.085,11_6_1.csv
2018-07-10T10:42:29.176669,-1.199,-0.361,0.023,132.866,-51.463,-47.622,11_6_1.csv
2018-07-10T10:42:29.222792,-1.199,-0.361,0.023,98.72,-63.537,-63.354,11_6_1.csv
2018-07-10T10:42:29.270924,-1.131,-0.31,-0.012,35.183,-73.963,-108.598,11_6_1.csv
2018-07-10T10:42:29.315042,-0.986,-0.298,0.03,14.756,-69.024,-125.0,11_6_1.csv
2018-07-10T10:42:29.364178,-0.986,-0.298,0.03,11.707,-49.634,-124.39,11_6_1.csv
2018-07-10T10:42:29.453919,-0.913,-0.287,0.116,41.28,-21.89,-72.195,11_6_1.csv
2018-07-10T10:42:29.500543,-0.952,-0.176,0.146,46.159,1.159,-39.207,11_6_1.csv
2018-07-10T10:42:29.613344,-1.042,-0.059,0.156,-71.585,31.829,34.756,11_6_1.csv
2018-07-10T10:42:29.658966,-0.835,-0.271,0.248,-80.427,40.854,65.0,11_6_1.csv
2018-07-10T10:42:29.710102,-1.021,-0.259,0.239,15.671,82.073,102.378,11_6_1.csv
2018-07-10T10:42:29.769260,-1.021,-0.259,0.239,15.976,77.073,104.817,11_6_1.csv
2018-07-10T10:42:29.813377,-1.184,-0.171,0.284,-38.659,59.451,93.72,11_6_1.csv
2018-07-10T10:42:29.860503,-1.184,-0.171,0.284,-99.817,32.134,67.561,11_6_1.csv
2018-07-10T10:42:29.907628,-1.052,-0.31,0.29,-134.756,13.415,43.841,11_6_1.csv
2018-07-10T10:42:29.953753,-0.977,-0.438,0.291,-114.329,-16.159,25.0,11_6_1.csv
2018-07-10T10:42:30.001882,-0.977,-0.438,0.291,-79.634,-20.366,19.024,11_6_1.csv
2018-07-10T10:42:30.053025,-0.925,-0.399,0.301,-56.037,-23.598,10.854,11_6_1.csv
2018-07-10T10:42:30.095135,-0.925,-0.399,0.301,-44.573,-14.146,8.659,11_6_1.csv
2018-07-10T10:42:30.141263,-0.987,-0.486,0.225,-13.902,-8.78,8.415,11_6_1.csv
2018-07-10T10:42:30.189391,-0.987,-0.486,0.225,23.354,2.866,7.195,11_6_1.csv
2018-07-10T10:42:30.235518,-1.124,-0.59,0.184,77.012,21.159,-3.963,11_6_1.csv
2018-07-10T10:42:30.281641,-1.052,-0.674,0.134,155.61,21.341,-9.39,11_6_1.csv
2018-07-10T10:42:30.337796,-1.052,-0.674,0.134,244.268,25.0,-23.11,11_6_1.csv
2018-07-10T10:42:30.394948,-1.243,-0.317,-0.02,235.488,-32.5,-56.037,11_6_1.csv
2018-07-10T10:42:30.441076,-1.268,-0.139,0.012,153.842,-70.244,-73.841,11_6_1.csv
2018-07-10T10:42:30.489708,-1.268,-0.139,0.012,62.5,-96.524,-100.244,11_6_1.csv
2018-07-10T10:42:30.535335,-1.023,-0.266,-0.011,-7.622,-96.585,-127.805,11_6_1.csv
2018-07-10T10:42:30.580455,-1.023,-0.266,-0.011,-32.622,-88.293,-143.11,11_6_1.csv
2018-07-10T10:42:30.635605,-0.79,-0.319,0.033,9.695,-39.878,-107.195,11_6_1.csv
2018-07-10T10:42:30.688245,-0.637,-0.258,0.189,36.951,-7.317,-64.512,11_6_1.csv
2018-07-10T10:42:30.736373,-0.637,-0.258,0.189,58.963,29.939,-14.756,11_6_1.csv
2018-07-10T10:42:30.786508,-0.836,-0.197,0.218,58.476,55.305,32.317,11_6_1.csv
2018-07-10T10:42:30.830625,-0.836,-0.197,0.218,41.646,85.915,74.329,11_6_1.csv
2018-07-10T10:42:30.878753,-1.303,-0.203,0.234,-20.183,92.988,107.927,11_6_1.csv
2018-07-10T10:42:30.972001,-1.038,-0.294,0.349,-17.561,63.78,77.439,11_6_1.csv
2018-07-10T10:42:31.021135,-0.968,-0.318,0.202,18.11,76.646,69.024,11_6_1.csv
2018-07-10T10:42:31.063249,-0.968,-0.318,0.202,40.854,63.049,59.39,11_6_1.csv
2018-07-10T10:42:31.115390,-1.124,-0.241,0.232,-55.61,20.671,20.671,11_6_1.csv
2018-07-10T10:42:31.159009,-0.944,-0.399,0.277,-74.39,22.012,1.829,11_6_1.csv
2018-07-10T10:42:31.205635,-0.944,-0.399,0.277,-16.707,32.866,-2.5,11_6_1.csv
2018-07-10T10:42:31.267804,-0.99,-0.285,0.297,48.232,30.549,5.244,11_6_1.csv
2018-07-10T10:42:31.332979,-1.048,-0.165,0.325,35.122,13.293,0.0,11_6_1.csv
2018-07-10T10:42:31.374094,-1.048,-0.165,0.325,25.366,4.634,-3.72,11_6_1.csv
2018-07-10T10:42:31.428238,-1.101,-0.264,0.216,35.305,-8.537,-3.902,11_6_1.csv
2018-07-10T10:42:31.474363,-1.101,-0.264,0.216,58.598,-17.134,-0.671,11_6_1.csv
2018-07-10T10:42:31.519486,-1.204,-0.343,0.134,48.78,-21.524,-6.524,11_6_1.csv
2018-07-10T10:42:31.573130,-1.021,-0.497,0.149,72.561,-34.085,-10.427,11_6_1.csv
2018-07-10T10:42:31.628781,-1.021,-0.497,0.149,125.122,-30.183,-14.268,11_6_1.csv
2018-07-10T10:42:31.675912,-1.065,-0.329,0.103,167.5,-18.293,-25.244,11_6_1.csv
2018-07-10T10:42:31.722034,-1.045,-0.283,0.085,79.817,-61.524,-37.439,11_6_1.csv
2018-07-10T10:42:31.768160,-1.045,-0.283,0.085,40.671,-63.78,-35.366,11_6_1.csv
2018-07-10T10:42:31.814285,-0.842,-0.411,0.019,15.976,-59.39,-30.732,11_6_1.csv
2018-07-10T10:42:31.866427,-0.842,-0.411,0.019,16.463,-45.915,-24.634,11_6_1.csv
2018-07-10T10:42:31.921576,-0.867,-0.449,0.0,50.244,-2.988,-19.695,11_6_1.csv
2018-07-10T10:42:31.968704,-1.003,-0.391,0.047,57.866,10.305,-24.39,11_6_1.csv
2018-07-10T10:42:32.017837,-1.003,-0.391,0.047,68.841,21.159,-30.854,11_6_1.csv
2018-07-10T10:42:32.062959,-1.165,-0.158,0.072,69.634,23.659,-40.305,11_6_1.csv
2018-07-10T10:42:32.109084,-1.165,-0.158,0.072,32.988,23.963,-48.72,11_6_1.csv
2018-07-10T10:42:32.164234,-1.051,-0.045,0.189,-68.78,32.134,-37.622,11_6_1.csv
2018-07-10T10:42:32.203340,-0.843,-0.214,0.371,-10.427,63.293,-6.159,11_6_1.csv
2018-07-10T10:42:32.249463,-0.843,-0.214,0.371,67.012,78.659,22.439,11_6_1.csv
2018-07-10T10:42:32.380823,-1.105,-0.11,0.301,12.683,39.939,29.268,11_6_1.csv
2018-07-10T10:42:32.426946,-1.105,-0.11,0.301,-2.561,26.22,23.293,11_6_1.csv
2018-07-10T10:42:32.472068,-0.988,-0.169,0.295,5.671,26.829,25.244,11_6_1.csv
2018-07-10T10:42:32.523206,-0.984,-0.166,0.284,7.439,15.915,35.671,11_6_1.csv
2018-07-10T10:42:32.578360,-0.984,-0.166,0.284,6.707,11.89,38.354,11_6_1.csv
2018-07-10T10:42:32.630499,-1.005,-0.189,0.283,3.354,7.256,37.195,11_6_1.csv
2018-07-10T10:42:32.673114,-1.005,-0.189,0.283,0.732,-1.098,32.134,11_6_1.csv
2018-07-10T10:42:32.724754,-1.071,-0.307,0.234,19.817,-2.378,21.341,11_6_1.csv
2018-07-10T10:42:32.767871,-1.236,-0.493,0.186,39.695,5.488,15.549,11_6_1.csv
2018-07-10T10:42:32.812991,-1.236,-0.493,0.186,68.72,-3.72,7.805,11_6_1.csv
2018-07-10T10:42:32.859116,-0.972,-0.523,0.15,107.134,-20.671,-9.634,11_6_1.csv
2018-07-10T10:42:32.907244,-0.972,-0.523,0.15,142.012,-18.049,-35.488,11_6_1.csv
2018-07-10T10:42:32.953370,-1.062,-0.407,0.058,158.049,-11.829,-52.744,11_6_1.csv
2018-07-10T10:42:33.001498,-1.062,-0.407,0.058,159.085,-30.671,-54.268,11_6_1.csv
2018-07-10T10:42:33.048122,-1.173,-0.37,0.006,105.488,-53.293,-59.939,11_6_1.csv
2018-07-10T10:42:33.095749,-1.046,-0.349,-0.043,82.073,-56.524,-74.695,11_6_1.csv
2018-07-10T10:42:33.143376,-1.046,-0.349,-0.043,60.61,-54.512,-93.415,11_6_1.csv
2018-07-10T10:42:33.189499,-0.956,-0.311,-0.021,44.634,-43.415,-107.988,11_6_1.csv
2018-07-10T10:42:33.239134,-0.956,-0.311,-0.021,32.256,-32.317,-109.634,11_6_1.csv
2018-07-10T10:42:33.281246,-0.882,-0.331,0.064,29.39,-16.951,-96.829,11_6_1.csv
2018-07-10T10:42:33.329379,-0.934,-0.252,0.124,63.354,26.585,-41.159,11_6_1.csv
2018-07-10T10:42:33.376505,-0.934,-0.252,0.124,65.183,45.244,-14.024,11_6_1.csv
2018-07-10T10:42:33.422153,-1.144,-0.118,0.189,51.951,62.744,9.634,11_6_1.csv
2018-07-10T10:42:33.472286,-1.144,-0.118,0.189,7.073,62.012,30.61,11_6_1.csv
2018-07-10T10:42:33.516909,-0.928,-0.169,0.335,-19.085,59.573,43.476,11_6_1.csv
2018-07-10T10:42:33.578073,-0.958,-0.202,0.28,28.171,84.207,57.561,11_6_1.csv
2018-07-10T10:42:33.627206,-0.958,-0.202,0.28,46.22,69.146,64.268,11_6_1.csv
2018-07-10T10:42:33.736503,-0.995,-0.32,0.265,-54.695,24.39,27.866,11_6_1.csv
2018-07-10T10:42:33.786641,-0.995,-0.32,0.265,-21.89,28.049,23.232,11_6_1.csv
2018-07-10T10:42:33.862345,-0.961,-0.262,0.278,16.098,19.939,22.866,11_6_1.csv
2018-07-10T10:42:33.927519,-0.974,-0.22,0.282,0.244,13.902,18.049,11_6_1.csv
2018-07-10T10:42:33.970634,-1.055,-0.27,0.223,8.476,3.354,5.915,11_6_1.csv
2018-07-10T10:42:34.023274,-1.055,-0.27,0.223,20.671,0.854,0.183,11_6_1.csv
2018-07-10T10:42:34.063882,-1.202,-0.359,0.195,24.695,1.951,-1.829,11_6_1.csv
2018-07-10T10:42:34.111509,-1.202,-0.359,0.195,37.012,-1.22,-2.073,11_6_1.csv
2018-07-10T10:42:34.162645,-1.065,-0.484,0.212,65.915,-10.0,-4.573,11_6_1.csv
2018-07-10T10:42:34.220300,-1.036,-0.387,0.127,140.854,-20.0,-22.805,11_6_1.csv
2018-07-10T10:42:34.265420,-1.036,-0.387,0.127,140.915,-27.561,-33.72,11_6_1.csv
2018-07-10T10:42:34.315052,-1.209,-0.323,0.076,120.793,-46.524,-40.061,11_6_1.csv
2018-07-10T10:42:34.359671,-1.209,-0.323,0.076,96.524,-62.378,-48.11,11_6_1.csv
2018-07-10T10:42:34.408802,-1.07,-0.261,0.039,63.171,-76.524,-64.207,11_6_1.csv
2018-07-10T10:42:34.455927,-0.888,-0.257,0.059,-4.695,-73.537,-99.634,11_6_1.csv
2018-07-10T10:42:34.502050,-0.888,-0.257,0.059,-14.756,-64.268,-101.829,11_6_1.csv
2018-07-10T10:42:34.567224,-0.785,-0.272,0.128,-11.585,-44.085,-88.902,11_6_1.csv
2018-07-10T10:42:34.615855,-0.861,-0.26,0.155,2.622,2.561,-26.524,11_6_1.csv
2018-07-10T10:42:34.658469,-0.861,-0.26,0.155,10.0,29.573,7.256,11_6_1.csv
2018-07-10T10:42:34.706097,-1.136,-0.198,0.217,8.659,56.951,37.378,11_6_1.csv
2018-07-10T10:42:34.759238,-1.136,-0.198,0.217,-10.122,64.268,63.415,11_6_1.csv
2018-07-10T10:42:34.811382,-1.05,-0.202,0.36,-32.744,64.756,82.988,11_6_1.csv
2018-07-10T10:42:34.863521,-0.932,-0.212,0.296,-26.098,57.561,85.305,11_6_1.csv
2018-07-10T10:42:34.907644,-0.932,-0.212,0.296,-20.793,51.585,78.963,11_6_1.csv
2018-07-10T10:42:34.953767,-1.133,-0.221,0.213,-48.841,33.72,68.354,11_6_1.csv
2018-07-10T10:42:35.067073,-0.987,-0.34,0.261,-76.768,6.951,15.915,11_6_1.csv
2018-07-10T10:42:35.122226,-0.916,-0.27,0.276,-38.72,12.073,16.524,11_6_1.csv
2018-07-10T10:42:35.177376,-0.95,-0.221,0.313,-38.598,5.854,16.585,11_6_1.csv
2018-07-10T10:42:35.218487,-0.95,-0.221,0.313,-36.707,7.439,16.098,11_6_1.csv
2018-07-10T10:42:35.266615,-1.028,-0.28,0.327,-12.256,8.902,15.732,11_6_1.csv
2018-07-10T10:42:35.312744,-1.028,-0.28,0.327,4.512,5.549,13.11,11_6_1.csv
2018-07-10T10:42:35.365885,-1.185,-0.339,0.289,9.085,3.049,7.012,11_6_1.csv
2018-07-10T10:42:35.421037,-1.172,-0.458,0.277,35.793,-12.195,-5.976,11_6_1.csv
2018-07-10T10:42:35.485712,-1.172,-0.458,0.277,65.976,-29.024,-22.073,11_6_1.csv
2018-07-10T10:42:35.531835,-1.099,-0.411,0.204,85.488,-31.829,-42.5,11_6_1.csv
2018-07-10T10:42:35.581468,-1.248,-0.334,0.11,109.939,-55.854,-70.0,11_6_1.csv
2018-07-10T10:42:35.627590,-1.248,-0.334,0.11,104.329,-66.524,-83.354,11_6_1.csv
2018-07-10T10:42:35.673212,-1.153,-0.24,0.041,83.049,-76.829,-101.768,11_6_1.csv
2018-07-10T10:42:35.732369,-1.153,-0.24,0.041,54.268,-77.805,-114.146,11_6_1.csv
2018-07-10T10:42:35.785511,-0.906,-0.238,0.043,34.451,-54.939,-99.451,11_6_1.csv
2018-07-10T10:42:35.830776,-0.758,-0.265,0.124,38.902,-24.817,-70.427,11_6_1.csv
2018-07-10T10:42:35.876899,-0.758,-0.265,0.124,55.976,0.183,-35.183,11_6_1.csv
2018-07-10T10:42:35.924029,-0.845,-0.199,0.181,69.939,26.098,-3.415,11_6_1.csv
2018-07-10T10:42:35.973160,-0.845,-0.199,0.181,62.988,52.5,22.5,11_6_1.csv
2018-07-10T10:42:36.024300,-0.878,-0.098,0.363,36.28,74.817,36.768,11_6_1.csv
2018-07-10T10:42:36.081956,-0.964,-0.091,0.475,43.963,95.366,41.037,11_6_1.csv
2018-07-10T10:42:36.126577,-0.964,-0.091,0.475,50.671,92.134,47.134,11_6_1.csv
2018-07-10T10:42:36.180721,-1.023,-0.127,0.436,24.329,70.366,41.585,11_6_1.csv
2018-07-10T10:42:36.218828,-1.023,-0.127,0.436,24.329,70.366,41.585,11_6_1.csv
2018-07-10T10:42:36.270966,-0.912,-0.309,0.428,23.659,58.293,22.988,11_6_1.csv
2018-07-10T10:42:36.325115,-1.02,-0.434,0.32,65.427,61.28,24.024,11_6_1.csv
2018-07-10T10:42:36.479072,-1.171,-0.401,0.171,165.427,21.951,-15.244,11_6_1.csv
2018-07-10T10:42:36.536230,-1.171,-0.401,0.171,157.988,-4.329,-20.793,11_6_1.csv
2018-07-10T10:42:36.581350,-1.147,-0.365,0.081,125.305,-24.573,-30.854,11_6_1.csv
2018-07-10T10:42:36.630113,-1.035,-0.411,0.011,101.524,-35.061,-55.61,11_6_1.csv
2018-07-10T10:42:36.675233,-1.035,-0.411,0.011,103.232,-27.195,-60.366,11_6_1.csv
2018-07-10T10:42:36.731387,-0.944,-0.471,0.002,113.902,-15.061,-54.939,11_6_1.csv
2018-07-10T10:42:36.781521,-0.944,-0.471,0.002,144.634,3.232,-36.829,11_6_1.csv
2018-07-10T10:42:36.842689,-0.922,-0.469,-0.006,196.829,27.866,-4.329,11_6_1.csv
2018-07-10T10:42:36.892324,-0.99,-0.395,0.023,193.598,29.817,-4.451,11_6_1.csv
2018-07-10T10:42:36.937947,-0.99,-0.395,0.023,172.439,18.902,-14.939,11_6_1.csv
2018-07-10T10:42:36.985577,-1.006,-0.33,0.015,107.622,6.951,-57.195,11_6_1.csv
2018-07-10T10:42:37.038219,-1.06,-0.319,0.026,87.5,6.159,-74.207,11_6_1.csv
2018-07-10T10:42:37.098382,-1.06,-0.319,0.026,77.317,11.707,-77.988,11_6_1.csv
2018-07-10T10:42:37.148516,-1.024,-0.245,0.13,60.366,11.585,-86.829,11_6_1.csv
2018-07-10T10:42:37.205167,-1.063,-0.117,0.184,57.988,26.28,-83.171,11_6_1.csv
2018-07-10T10:42:37.262344,-1.063,-0.117,0.184,63.902,28.049,-69.939,11_6_1.csv
2018-07-10T10:42:37.313984,-1.06,0.059,0.232,25.61,21.646,-29.573,11_6_1.csv
2018-07-10T10:42:37.360666,-0.956,0.013,0.321,11.402,33.72,-5.61,11_6_1.csv
2018-07-10T10:42:37.405786,-0.956,0.013,0.321,32.195,37.744,20.183,11_6_1.csv
2018-07-10T10:42:37.452916,-1.031,-0.018,0.319,39.451,45.915,45.244,11_6_1.csv
2018-07-10T10:42:37.499039,-1.031,-0.018,0.319,19.512,44.451,61.951,11_6_1.csv
2018-07-10T10:42:37.549177,-1.075,-0.134,0.316,7.5,36.037,76.524,11_6_1.csv
2018-07-10T10:42:37.594298,-1.022,-0.203,0.336,9.756,30.0,77.195,11_6_1.csv
2018-07-10T10:42:37.641428,-1.022,-0.203,0.336,-2.5,19.939,72.866,11_6_1.csv
2018-07-10T10:42:37.688554,-1.07,-0.32,0.315,-19.146,17.317,62.5,11_6_1.csv
2018-07-10T10:42:37.785818,-1.166,-0.515,0.244,-26.463,7.988,29.939,11_6_1.csv
2018-07-10T10:42:37.831945,-1.03,-0.463,0.22,28.78,-15.549,-19.634,11_6_1.csv
2018-07-10T10:42:37.875060,-1.03,-0.463,0.22,39.451,-31.159,-54.329,11_6_1.csv
2018-07-10T10:42:37.923191,-1.027,-0.389,0.182,44.817,-28.476,-86.585,11_6_1.csv
2018-07-10T10:42:37.969316,-1.027,-0.389,0.182,64.695,-29.756,-100.549,11_6_1.csv
2018-07-10T10:42:38.015943,-1.202,-0.345,0.147,96.037,-31.646,-100.366,11_6_1.csv
2018-07-10T10:42:38.063572,-1.202,-0.345,0.147,106.402,-37.622,-99.207,11_6_1.csv
2018-07-10T10:42:38.124237,-1.061,-0.213,0.175,75.488,-38.659,-96.037,11_6_1.csv
2018-07-10T10:42:38.175876,-0.913,-0.151,0.189,65.427,-38.78,-89.268,11_6_1.csv
2018-07-10T10:42:38.219997,-0.913,-0.151,0.189,50.061,-35.793,-74.024,11_6_1.csv
2018-07-10T10:42:38.272137,-0.792,-0.116,0.179,-3.537,-15.671,-27.561,11_6_1.csv
2018-07-10T10:42:38.314250,-0.885,-0.189,0.134,-25.122,5.671,5.854,11_6_1.csv
2018-07-10T10:42:38.366393,-0.885,-0.189,0.134,-35.671,27.622,40.854,11_6_1.csv
2018-07-10T10:42:38.415525,-1.201,-0.271,0.057,-55.671,51.463,72.073,11_6_1.csv
2018-07-10T10:42:38.477698,-1.085,-0.356,0.206,-81.768,58.72,97.439,11_6_1.csv
2018-07-10T10:42:38.518808,-1.085,-0.356,0.206,-48.841,60.0,89.451,11_6_1.csv
2018-07-10T10:42:38.579470,-1.041,-0.208,0.227,13.11,70.427,86.768,11_6_1.csv
2018-07-10T10:42:38.638627,-1.1,-0.009,0.199,-50.671,28.841,58.293,11_6_1.csv
2018-07-10T10:42:38.693273,-1.1,-0.009,0.199,-159.756,0.305,31.28,11_6_1.csv
2018-07-10T10:42:38.748421,-0.913,-0.334,0.183,-180.122,-8.841,15.0,11_6_1.csv
2018-07-10T10:42:38.797049,-0.889,-0.318,0.213,-93.78,-0.793,11.22,11_6_1.csv
2018-07-10T10:42:38.843312,-0.889,-0.318,0.213,-85.793,1.341,6.829,11_6_1.csv
2018-07-10T10:42:38.907488,-0.951,-0.328,0.248,-74.878,6.89,-1.22,11_6_1.csv
2018-07-10T10:42:38.953611,-0.951,-0.328,0.248,-39.878,22.927,-4.695,11_6_1.csv
2018-07-10T10:42:39.001241,-1.14,-0.293,0.251,62.805,24.146,-0.122,11_6_1.csv
2018-07-10T10:42:39.052881,-1.328,-0.177,0.259,20.488,17.988,-11.22,11_6_1.csv
2018-07-10T10:42:39.146134,-1.076,-0.227,0.197,-10.305,-48.232,-35.305,11_6_1.csv
2018-07-10T10:42:39.188246,-1.076,-0.227,0.197,-12.866,-58.171,-62.195,11_6_1.csv
2018-07-10T10:42:39.238382,-1.077,-0.276,0.171,-5.061,-64.756,-86.098,11_6_1.csv
2018-07-10T10:42:39.284505,-1.096,-0.286,0.18,22.805,-73.598,-67.073,11_6_1.csv
2018-07-10T10:42:39.331633,-1.096,-0.286,0.18,25.488,-75.488,-49.268,11_6_1.csv
2018-07-10T10:42:39.394804,-0.932,-0.125,0.191,-8.171,-74.695,-46.098,11_6_1.csv
2018-07-10T10:42:39.440929,-0.712,-0.288,0.165,-115.488,-86.585,-32.866,11_6_1.csv
2018-07-10T10:42:39.488055,-0.712,-0.288,0.165,-84.878,-55.0,-24.634,11_6_1.csv
2018-07-10T10:42:39.552232,-0.799,-0.36,0.178,-32.317,-29.451,0.244,11_6_1.csv
2018-07-10T10:42:39.596352,-0.799,-0.36,0.178,4.207,0.183,35.793,11_6_1.csv
2018-07-10T10:42:39.645482,-1.091,-0.233,0.083,-7.561,46.768,71.707,11_6_1.csv
2018-07-10T10:42:39.700129,-1.333,-0.255,0.041,-66.098,52.134,93.659,11_6_1.csv
2018-07-10T10:42:39.758785,-1.333,-0.255,0.041,-117.805,10.305,104.146,11_6_1.csv
2018-07-10T10:42:39.833987,-0.92,-0.333,0.174,-87.683,29.634,82.012,11_6_1.csv
2018-07-10T10:42:39.879107,-1.04,-0.26,0.114,-101.585,2.866,55.122,11_6_1.csv
2018-07-10T10:42:39.929246,-0.989,-0.297,0.189,-138.293,-11.646,32.012,11_6_1.csv
2018-07-10T10:42:39.986401,-0.989,-0.297,0.189,-133.11,-11.28,15.976,11_6_1.csv
2018-07-10T10:42:40.031524,-0.871,-0.291,0.22,-108.11,-10.549,12.744,11_6_1.csv
2018-07-10T10:42:40.089179,-0.893,-0.277,0.229,-90.732,-9.939,8.78,11_6_1.csv
2018-07-10T10:42:40.145833,-0.893,-0.277,0.229,-83.293,1.22,7.927,11_6_1.csv
2018-07-10T10:42:40.188449,-0.973,-0.344,0.238,-55.427,13.476,15.366,11_6_1.csv
2018-07-10T10:42:40.237081,-0.973,-0.344,0.238,-34.146,22.5,12.805,11_6_1.csv
2018-07-10T10:42:40.284711,-1.124,-0.353,0.24,11.646,27.805,-2.561,11_6_1.csv
2018-07-10T10:42:40.329332,-1.216,-0.41,0.287,19.207,21.28,-7.805,11_6_1.csv
2018-07-10T10:42:40.390498,-1.216,-0.41,0.287,41.341,-5.61,-17.927,11_6_1.csv
2018-07-10T10:42:40.437625,-1.121,-0.336,0.217,50.122,-21.646,-37.012,11_6_1.csv
2018-07-10T10:42:40.546921,-1.237,-0.219,0.136,24.573,-77.744,-100.183,11_6_1.csv
2018-07-10T10:42:40.595553,-1.152,-0.216,0.168,5.305,-95.915,-101.463,11_6_1.csv
2018-07-10T10:42:40.641177,-1.152,-0.216,0.168,-4.451,-97.866,-94.512,11_6_1.csv
2018-07-10T10:42:40.687303,-0.888,-0.16,0.18,-6.707,-81.89,-63.537,11_6_1.csv
2018-07-10T10:42:40.745461,-0.71,-0.122,0.225,-14.695,-64.878,-31.829,11_6_1.csv
2018-07-10T10:42:40.796099,-0.71,-0.122,0.225,-28.659,-49.146,8.841,11_6_1.csv
2018-07-10T10:42:40.851749,-0.733,-0.178,0.167,-61.768,-0.793,84.512,11_6_1.csv
2018-07-10T10:42:40.907901,-1.138,-0.274,-0.021,-84.146,25.061,115.793,11_6_1.csv
2018-07-10T10:42:40.959041,-1.138,-0.274,-0.021,-119.512,60.122,150.915,11_6_1.csv
2018-07-10T10:42:41.000153,-1.438,-0.529,0.022,-138.354,50.244,170.854,11_6_1.csv
2018-07-10T10:42:41.060814,-1.018,-0.345,0.191,-22.439,36.341,115.427,11_6_1.csv
2018-07-10T10:42:41.109445,-1.018,-0.345,0.191,-27.439,48.171,69.451,11_6_1.csv
2018-07-10T10:42:41.156069,-1.034,-0.141,0.087,-93.415,10.549,36.707,11_6_1.csv
2018-07-10T10:42:41.203699,-1.034,-0.141,0.087,-177.805,-20.793,13.476,11_6_1.csv
2018-07-10T10:42:41.249822,-0.891,-0.357,0.116,-201.037,-38.171,-22.073,11_6_1.csv
2018-07-10T10:42:41.314868,-0.771,-0.391,0.15,-144.817,-22.683,-18.902,11_6_1.csv
2018-07-10T10:42:41.379543,-0.752,-0.336,0.19,-69.817,12.317,-2.805,11_6_1.csv
2018-07-10T10:42:41.438203,-0.752,-0.336,0.19,-47.073,45.488,11.22,11_6_1.csv
2018-07-10T10:42:41.485330,-1.136,-0.393,0.284,-9.756,74.329,27.744,11_6_1.csv
2018-07-10T10:42:41.531955,-1.402,-0.22,0.324,7.378,42.927,-0.976,11_6_1.csv
2018-07-10T10:42:41.579081,-1.402,-0.22,0.324,-17.866,42.012,-32.256,11_6_1.csv
2018-07-10T10:42:41.626708,-1.276,-0.304,0.371,-24.817,-5.305,-41.28,11_6_1.csv
2018-07-10T10:42:41.680853,-1.276,-0.304,0.371,-1.098,-45.183,-35.427,11_6_1.csv
2018-07-10T10:42:41.738005,-0.957,-0.313,0.222,65.122,-53.415,-52.256,11_6_1.csv
2018-07-10T10:42:41.787139,-1.109,-0.3,0.147,87.378,-54.451,-36.28,11_6_1.csv
2018-07-10T10:42:41.880391,-1.005,-0.246,0.092,49.207,-76.646,-9.207,11_6_1.csv
2018-07-10T10:42:41.926516,-1.005,-0.246,0.092,8.841,-70.732,-14.817,11_6_1.csv
2018-07-10T10:42:41.975148,-0.86,-0.264,0.044,-33.963,-62.683,-23.963,11_6_1.csv
2018-07-10T10:42:42.032804,-0.778,-0.29,0.089,-38.537,-44.695,-20.488,11_6_1.csv
2018-07-10T10:42:42.094972,-0.92,-0.307,0.063,-30.427,-1.037,7.256,11_6_1.csv
2018-07-10T10:42:42.142098,-0.92,-0.307,0.063,-18.902,19.939,28.476,11_6_1.csv
2018-07-10T10:42:42.190727,-1.234,-0.325,0.024,-32.866,39.085,47.439,11_6_1.csv
2018-07-10T10:42:42.235347,-1.234,-0.325,0.024,-59.939,43.963,57.866,11_6_1.csv
2018-07-10T10:42:42.282473,-0.981,-0.335,0.262,-40.976,38.902,53.659,11_6_1.csv
2018-07-10T10:42:42.335618,-0.891,-0.146,0.209,-11.463,49.695,29.024,11_6_1.csv
2018-07-10T10:42:42.391769,-0.891,-0.146,0.209,-33.354,35.427,21.037,11_6_1.csv
2018-07-10T10:42:42.442909,-1.027,-0.246,0.257,-74.207,25.61,21.341,11_6_1.csv
2018-07-10T10:42:42.491040,-1.027,-0.246,0.257,-87.622,10.244,17.988,11_6_1.csv
2018-07-10T10:42:42.539171,-0.952,-0.351,0.303,-19.756,21.585,16.524,11_6_1.csv
2018-07-10T10:42:42.580281,-0.948,-0.224,0.297,-3.293,15.183,14.268,11_6_1.csv
2018-07-10T10:42:42.636436,-0.948,-0.224,0.297,-16.037,3.049,7.256,11_6_1.csv
2018-07-10T10:42:42.693591,-0.979,-0.238,0.253,-36.89,-6.829,-3.415,11_6_1.csv
2018-07-10T10:42:42.741219,-1.034,-0.331,0.217,-32.378,-6.829,-5.122,11_6_1.csv
2018-07-10T10:42:42.791353,-1.034,-0.331,0.217,-22.378,-4.695,-6.768,11_6_1.csv
2018-07-10T10:42:42.837476,-1.207,-0.471,0.242,-8.902,7.683,-4.634,11_6_1.csv
2018-07-10T10:42:42.877583,-1.207,-0.471,0.242,17.561,9.451,3.537,11_6_1.csv
2018-07-10T10:42:42.938245,-1.137,-0.509,0.276,116.098,-20.854,-0.183,11_6_1.csv
2018-07-10T10:42:42.986374,-1.144,-0.263,0.14,118.049,-39.085,-23.841,11_6_1.csv
2018-07-10T10:42:43.032998,-1.144,-0.263,0.14,83.415,-61.341,-46.524,11_6_1.csv
2018-07-10T10:42:43.079121,-1.173,-0.237,0.099,43.11,-81.89,-63.78,11_6_1.csv
2018-07-10T10:42:43.130258,-1.173,-0.237,0.099,12.256,-94.939,-82.134,11_6_1.csv
2018-07-10T10:42:43.250584,-0.721,-0.2,0.15,-44.573,-75.244,-87.744,11_6_1.csv
2018-07-10T10:42:43.300219,-0.633,-0.191,0.138,-40.793,-37.5,-20.183,11_6_1.csv
2018-07-10T10:42:43.360385,-0.633,-0.191,0.138,-49.756,-6.89,21.585,11_6_1.csv
2018-07-10T10:42:43.407511,-0.9,-0.264,0.131,-60.366,31.463,66.89,11_6_1.csv
2018-07-10T10:42:43.453637,-0.9,-0.264,0.131,-59.329,53.171,108.902,11_6_1.csv
2018-07-10T10:42:43.500764,-1.444,-0.404,0.101,-69.695,93.963,179.024,11_6_1.csv
2018-07-10T10:42:43.557922,-1.217,-0.437,0.244,-16.768,54.329,165.244,11_6_1.csv
2018-07-10T10:42:43.625102,-1.054,-0.116,0.127,-23.476,45.0,54.146,11_6_1.csv
2018-07-10T10:42:43.675240,-1.054,-0.116,0.127,-120.0,-2.012,10.915,11_6_1.csv
2018-07-10T10:42:43.721363,-0.98,-0.349,0.157,-198.781,-37.805,-13.354,11_6_1.csv
2018-07-10T10:42:43.771501,-0.98,-0.349,0.157,-213.293,-50.976,-28.841,11_6_1.csv
2018-07-10T10:42:43.813614,-0.79,-0.458,0.188,-167.805,-48.171,-32.073,11_6_1.csv
2018-07-10T10:42:43.864755,-0.833,-0.263,0.244,-58.293,-6.89,-19.573,11_6_1.csv
2018-07-10T10:42:43.913887,-0.833,-0.263,0.244,-41.463,0.488,-13.78,11_6_1.csv
2018-07-10T10:42:43.956503,-0.946,-0.216,0.299,-34.451,17.622,-10.61,11_6_1.csv
2018-07-10T10:42:44.000123,-0.946,-0.216,0.299,-26.585,24.024,-5.915,11_6_1.csv
2018-07-10T10:42:44.053267,-1.063,-0.305,0.3,-3.841,29.146,3.476,11_6_1.csv
2018-07-10T10:42:44.110423,-1.24,-0.422,0.298,17.927,37.195,15.122,11_6_1.csv
2018-07-10T10:42:44.169585,-1.24,-0.422,0.298,36.646,28.415,27.195,11_6_1.csv
2018-07-10T10:42:44.222728,-1.053,-0.427,0.308,104.695,-16.646,8.598,11_6_1.csv
2018-07-10T10:42:44.268352,-1.095,-0.22,0.162,91.341,-31.585,-20.244,11_6_1.csv
2018-07-10T10:42:44.314977,-1.095,-0.22,0.162,53.293,-52.866,-35.366,11_6_1.csv
2018-07-10T10:42:44.362103,-1.229,-0.269,0.121,11.037,-79.817,-41.159,11_6_1.csv
2018-07-10T10:42:44.412738,-1.229,-0.269,0.121,-27.378,-102.195,-56.341,11_6_1.csv
2018-07-10T10:42:44.468387,-0.986,-0.271,0.045,-54.634,-92.805,-95.976,11_6_1.csv
2018-07-10T10:42:44.516515,-0.815,-0.239,0.169,-58.049,-76.585,-90.61,11_6_1.csv
2018-07-10T10:42:44.601743,-0.679,-0.204,0.213,-26.646,-44.817,-29.878,11_6_1.csv
2018-07-10T10:42:44.657893,-0.679,-0.204,0.213,-16.22,-20.061,9.573,11_6_1.csv
2018-07-10T10:42:44.709029,-0.788,-0.192,0.154,-60.854,33.171,83.293,11_6_1.csv
2018-07-10T10:42:44.755156,-1.222,-0.381,0.048,-81.585,64.085,127.195,11_6_1.csv
2018-07-10T10:42:44.806292,-1.222,-0.381,0.048,-89.451,76.463,158.781,11_6_1.csv
2018-07-10T10:42:44.859440,-1.278,-0.566,0.184,-44.451,77.256,164.573,11_6_1.csv
2018-07-10T10:42:44.905562,-1.015,-0.179,0.137,47.683,44.512,81.463,11_6_1.csv
2018-07-10T10:42:44.955701,-1.015,-0.179,0.137,-32.439,18.354,24.451,11_6_1.csv
2018-07-10T10:42:44.998816,-1.038,-0.146,0.048,-152.561,-17.012,-21.829,11_6_1.csv
2018-07-10T10:42:45.046951,-1.038,-0.146,0.048,-234.756,-47.5,-50.061,11_6_1.csv
2018-07-10T10:42:45.103101,-0.82,-0.473,0.136,-236.098,-61.037,-57.012,11_6_1.csv
2018-07-10T10:42:45.160259,-0.835,-0.318,0.196,-75.915,-10.488,-19.085,11_6_1.csv
2018-07-10T10:42:45.207384,-0.835,-0.318,0.196,-44.817,10.549,-2.744,11_6_1.csv
2018-07-10T10:42:45.253513,-0.967,-0.229,0.249,-38.171,20.0,4.39,11_6_1.csv
2018-07-10T10:42:45.301641,-0.967,-0.229,0.249,-24.207,30.183,10.244,11_6_1.csv
2018-07-10T10:42:45.366820,-1.059,-0.259,0.279,5.793,29.756,16.829,11_6_1.csv
2018-07-10T10:42:45.422472,-1.27,-0.344,0.271,-3.354,27.378,18.171,11_6_1.csv
2018-07-10T10:42:45.490154,-1.162,-0.401,0.26,14.39,-27.439,18.415,11_6_1.csv
2018-07-10T10:42:45.536781,-1.162,-0.401,0.26,29.146,-46.159,-3.902,11_6_1.csv
2018-07-10T10:42:45.602457,-1.111,-0.248,0.1,-33.11,-88.11,-65.427,11_6_1.csv
2018-07-10T10:42:45.657102,-1.114,-0.378,0.111,-40.488,-92.683,-75.488,11_6_1.csv
2018-07-10T10:42:45.704228,-1.114,-0.378,0.111,-16.524,-98.354,-78.354,11_6_1.csv
2018-07-10T10:42:45.757872,-0.956,-0.284,0.116,-1.159,-76.037,-76.951,11_6_1.csv
2018-07-10T10:42:45.814023,-0.812,-0.193,0.199,-10.976,-67.378,-67.256,11_6_1.csv
2018-07-10T10:42:45.860146,-0.812,-0.193,0.199,-13.598,-53.72,-42.866,11_6_1.csv
2018-07-10T10:42:45.965433,-0.879,-0.219,0.177,-24.573,10.915,45.061,11_6_1.csv
2018-07-10T10:42:46.020586,-0.879,-0.219,0.177,-33.11,32.927,72.561,11_6_1.csv
2018-07-10T10:42:46.079245,-1.296,-0.302,0.002,-100.549,46.28,116.829,11_6_1.csv
2018-07-10T10:42:46.133533,-1.182,-0.356,0.106,-103.659,31.22,111.281,11_6_1.csv
2018-07-10T10:42:46.180661,-1.182,-0.356,0.106,-106.524,10.305,89.451,11_6_1.csv
2018-07-10T10:42:46.219768,-1.036,-0.314,0.063,-123.537,14.085,72.134,11_6_1.csv
2018-07-10T10:42:46.267897,-1.036,-0.314,0.063,-131.098,-7.5,53.902,11_6_1.csv
2018-07-10T10:42:46.328063,-0.999,-0.358,0.094,-162.683,-25.305,30.0,11_6_1.csv
2018-07-10T10:42:46.376192,-0.849,-0.375,0.151,-144.695,-27.683,22.988,11_6_1.csv
2018-07-10T10:42:46.433349,-0.903,-0.283,0.214,-107.317,-7.561,17.256,11_6_1.csv
2018-07-10T10:42:46.494516,-0.903,-0.283,0.214,-116.037,-9.268,14.39,11_6_1.csv
2018-07-10T10:42:46.538633,-0.964,-0.356,0.285,-107.073,-1.098,13.963,11_6_1.csv
2018-07-10T10:42:46.595791,-1.03,-0.313,0.321,-20.793,20.671,19.085,11_6_1.csv
2018-07-10T10:42:46.639909,-1.03,-0.313,0.321,-6.646,17.317,13.049,11_6_1.csv
2018-07-10T10:42:46.690546,-1.162,-0.313,0.26,-14.085,17.866,2.561,11_6_1.csv
2018-07-10T10:42:46.744192,-1.162,-0.313,0.26,-13.11,15.732,-3.476,11_6_1.csv
2018-07-10T10:42:46.796335,-1.105,-0.475,0.281,77.927,-11.159,-6.22,11_6_1.csv
2018-07-10T10:42:46.866523,-0.967,-0.357,0.213,107.317,-9.634,-22.561,11_6_1.csv
2018-07-10T10:42:46.911649,-0.967,-0.357,0.213,114.207,-16.22,-37.012,11_6_1.csv
2018-07-10T10:42:46.955766,-1.205,-0.27,0.148,92.683,-59.756,-47.927,11_6_1.csv
2018-07-10T10:42:47.001895,-1.117,-0.186,0.141,49.329,-74.634,-65.427,11_6_1.csv
2018-07-10T10:42:47.057042,-1.117,-0.186,0.141,3.659,-80.366,-84.695,11_6_1.csv
2018-07-10T10:42:47.110716,-0.94,-0.234,0.128,-14.878,-79.878,-92.927,11_6_1.csv
2018-07-10T10:42:47.156839,-0.76,-0.2,0.18,8.354,-55.061,-69.268,11_6_1.csv
2018-07-10T10:42:47.204472,-0.76,-0.2,0.18,6.402,-36.646,-42.866,11_6_1.csv
2018-07-10T10:42:47.251599,-0.767,-0.208,0.176,-8.537,-7.256,-6.098,11_6_1.csv
2018-07-10T10:42:47.332821,-1.127,-0.291,0.083,-26.341,41.28,67.561,11_6_1.csv
2018-07-10T10:42:47.385965,-1.127,-0.291,0.083,-64.39,51.159,91.951,11_6_1.csv
2018-07-10T10:42:47.438107,-1.176,-0.392,0.159,-72.927,41.341,87.073,11_6_1.csv
2018-07-10T10:42:47.485235,-0.89,-0.282,0.18,-49.634,40.0,64.39,11_6_1.csv
2018-07-10T10:42:47.533366,-0.89,-0.282,0.18,-47.744,44.756,46.28,11_6_1.csv
2018-07-10T10:42:47.578487,-1.027,-0.193,0.204,-73.963,26.646,35.488,11_6_1.csv
2018-07-10T10:42:47.626621,-1.027,-0.193,0.204,-122.805,8.72,33.537,11_6_1.csv
2018-07-10T10:42:47.679762,-1.033,-0.366,0.251,-129.695,-9.756,21.89,11_6_1.csv
2018-07-10T10:42:47.738926,-0.938,-0.364,0.277,-84.085,-4.146,14.024,11_6_1.csv
2018-07-10T10:42:47.784550,-0.938,-0.364,0.277,-53.841,-2.195,4.878,11_6_1.csv
2018-07-10T10:42:47.830174,-0.944,-0.295,0.284,-52.012,-3.354,-1.098,11_6_1.csv
2018-07-10T10:42:47.876298,-0.944,-0.295,0.284,-36.159,2.683,-2.378,11_6_1.csv
2018-07-10T10:42:47.926437,-1.01,-0.329,0.274,33.171,15.915,6.159,11_6_1.csv
2018-07-10T10:42:47.982089,-1.14,-0.351,0.23,44.695,15.915,4.024,11_6_1.csv
2018-07-10T10:42:48.036234,-1.14,-0.351,0.23,47.256,22.988,3.171,11_6_1.csv
2018-07-10T10:42:48.094389,-1.211,-0.481,0.269,94.817,-17.927,1.768,11_6_1.csv
2018-07-10T10:42:48.143520,-1.026,-0.298,0.184,119.573,-34.268,-19.085,11_6_1.csv
2018-07-10T10:42:48.188139,-1.026,-0.298,0.184,98.415,-47.256,-47.805,11_6_1.csv
2018-07-10T10:42:48.235265,-1.129,-0.225,0.113,56.585,-64.207,-67.317,11_6_1.csv
2018-07-10T10:42:48.289410,-1.021,-0.302,0.088,7.988,-83.72,-66.402,11_6_1.csv
2018-07-10T10:42:48.343555,-1.021,-0.302,0.088,-1.89,-80.305,-67.134,11_6_1.csv
2018-07-10T10:42:48.395192,-0.82,-0.256,0.039,-10.427,-69.085,-73.293,11_6_1.csv
2018-07-10T10:42:48.440817,-0.82,-0.256,0.039,-16.341,-41.341,-68.598,11_6_1.csv
2018-07-10T10:42:48.485937,-0.745,-0.202,0.112,-12.073,-0.976,-43.049,11_6_1.csv
2018-07-10T10:42:48.532065,-0.69,-0.227,0.2,-8.354,31.951,-4.146,11_6_1.csv
2018-07-10T10:42:48.590221,-0.69,-0.227,0.2,0.0,58.78,50.244,11_6_1.csv
2018-07-10T10:42:48.693041,-1.573,-0.527,0.189,-91.037,99.451,163.537,11_6_1.csv
2018-07-10T10:42:48.738162,-1.573,-0.527,0.189,-54.268,48.171,141.89,11_6_1.csv
2018-07-10T10:42:48.784793,-1.015,-0.288,0.19,18.11,23.293,72.134,11_6_1.csv
2018-07-10T10:42:48.827907,-1.015,-0.288,0.19,6.037,29.329,3.11,11_6_1.csv
2018-07-10T10:42:48.880052,-0.956,-0.088,0.063,-83.72,-16.829,-30.976,11_6_1.csv
2018-07-10T10:42:48.936201,-0.843,-0.403,0.069,-232.561,-72.988,-48.72,11_6_1.csv
2018-07-10T10:42:48.985339,-0.843,-0.403,0.069,-217.866,-61.524,-46.768,11_6_1.csv
2018-07-10T10:42:49.031462,-0.789,-0.485,0.124,-141.951,-29.939,-31.159,11_6_1.csv
2018-07-10T10:42:49.079594,-0.789,-0.485,0.124,-56.037,-1.829,-17.378,11_6_1.csv
2018-07-10T10:42:49.125719,-0.928,-0.268,0.277,20.183,34.939,5.061,11_6_1.csv
2018-07-10T10:42:49.172849,-1.102,-0.173,0.342,-0.122,28.293,13.902,11_6_1.csv
2018-07-10T10:42:49.223985,-1.102,-0.173,0.342,-37.866,11.037,17.378,11_6_1.csv
2018-07-10T10:42:49.288162,-1.163,-0.306,0.246,-47.012,-7.317,11.524,11_6_1.csv
2018-07-10T10:42:49.329272,-1.215,-0.499,0.23,-37.805,-9.024,15.366,11_6_1.csv
2018-07-10T10:42:49.376403,-1.215,-0.499,0.23,1.463,-22.378,17.195,11_6_1.csv
2018-07-10T10:42:49.426537,-0.965,-0.441,0.213,65.183,-29.512,8.598,11_6_1.csv
2018-07-10T10:42:49.471659,-0.965,-0.441,0.213,102.012,-25.793,-3.598,11_6_1.csv
2018-07-10T10:42:49.524803,-1.059,-0.251,0.154,92.805,-35.122,-10.488,11_6_1.csv
2018-07-10T10:42:49.578952,-1.077,-0.237,0.162,8.415,-72.561,-22.5,11_6_1.csv
2018-07-10T10:42:49.627081,-1.077,-0.237,0.162,-34.329,-78.11,-38.415,11_6_1.csv
2018-07-10T10:42:49.692259,-0.984,-0.272,0.154,-51.768,-85.0,-65.854,11_6_1.csv
2018-07-10T10:42:49.733368,-0.816,-0.238,0.192,-42.805,-75.732,-64.451,11_6_1.csv
2018-07-10T10:42:49.780500,-0.816,-0.238,0.192,-34.329,-65.671,-52.012,11_6_1.csv
2018-07-10T10:42:49.843669,-0.735,-0.201,0.174,-34.756,-50.061,-25.122,11_6_1.csv
2018-07-10T10:42:49.893808,-1.056,-0.232,0.043,-57.134,0.183,48.963,11_6_1.csv
2018-07-10T10:42:49.941936,-1.056,-0.232,0.043,-92.683,19.695,81.402,11_6_1.csv
2018-07-10T10:42:49.989067,-1.204,-0.38,0.074,-119.939,25.183,100.732,11_6_1.csv
2018-07-10T10:42:50.095356,-0.998,-0.345,0.119,-41.098,51.098,77.012,11_6_1.csv
2018-07-10T10:42:50.141479,-1.034,-0.223,0.139,-58.171,42.805,67.561,11_6_1.csv
2018-07-10T10:42:50.200642,-1.034,-0.223,0.139,-106.22,23.415,56.524,11_6_1.csv
2018-07-10T10:42:50.250280,-0.976,-0.295,0.199,-146.646,11.829,45.976,11_6_1.csv
2018-07-10T10:42:50.297912,-0.975,-0.355,0.229,-143.537,1.22,37.683,11_6_1.csv
2018-07-10T10:42:50.346040,-0.975,-0.355,0.229,-131.463,-7.073,25.976,11_6_1.csv
2018-07-10T10:42:50.390163,-0.947,-0.344,0.256,-120.305,-4.634,10.366,11_6_1.csv
2018-07-10T10:42:50.438292,-0.947,-0.344,0.256,-98.902,-0.915,-0.732,11_6_1.csv
2018-07-10T10:42:50.491439,-0.956,-0.334,0.287,-69.451,3.659,-5.427,11_6_1.csv
2018-07-10T10:42:50.541573,-1.118,-0.375,0.263,-32.866,13.049,-15.305,11_6_1.csv
2018-07-10T10:42:50.609256,-1.118,-0.375,0.263,-15.976,21.829,-16.28,11_6_1.csv
2018-07-10T10:42:50.659389,-1.269,-0.453,0.259,51.098,-33.171,-27.378,11_6_1.csv
2018-07-10T10:42:50.708521,-1.107,-0.229,0.138,45.976,-45.854,-62.378,11_6_1.csv
2018-07-10T10:42:50.753143,-1.107,-0.229,0.138,18.902,-60.671,-95.427,11_6_1.csv
2018-07-10T10:42:50.814306,-1.14,-0.273,0.126,7.744,-79.146,-97.988,11_6_1.csv
2018-07-10T10:42:50.860434,-0.984,-0.251,0.192,13.293,-84.756,-81.951,11_6_1.csv
2018-07-10T10:42:50.906557,-0.984,-0.251,0.192,-3.232,-73.902,-66.22,11_6_1.csv
2018-07-10T10:42:50.954692,-0.853,-0.185,0.251,-24.756,-68.171,-54.634,11_6_1.csv
2018-07-10T10:42:50.999812,-0.853,-0.185,0.251,-44.39,-68.963,-36.463,11_6_1.csv
2018-07-10T10:42:51.046943,-0.721,-0.232,0.228,-60.915,-71.037,-11.341,11_6_1.csv
2018-07-10T10:42:51.098080,-0.799,-0.327,0.119,-66.341,-33.72,45.244,11_6_1.csv
2018-07-10T10:42:51.141199,-0.799,-0.327,0.119,-53.841,-3.78,73.537,11_6_1.csv
2018-07-10T10:42:51.189328,-1.281,-0.383,-0.068,-58.841,35.244,105.793,11_6_1.csv
2018-07-10T10:42:51.235454,-1.281,-0.383,-0.068,-77.683,45.488,131.098,11_6_1.csv
2018-07-10T10:42:51.280577,-1.219,-0.471,0.069,-59.024,41.585,137.683,11_6_1.csv
2018-07-10T10:42:51.329210,-1.219,-0.471,0.069,-7.866,46.402,116.951,11_6_1.csv
2018-07-10T10:42:51.437002,-1.038,-0.258,0.029,-151.585,0.549,39.146,11_6_1.csv
2018-07-10T10:42:51.488141,-1.038,-0.258,0.029,-206.463,-18.598,19.085,11_6_1.csv
2018-07-10T10:42:51.534267,-0.891,-0.425,0.11,-195.671,-25.61,7.683,11_6_1.csv
2018-07-10T10:42:51.581894,-0.895,-0.326,0.215,-111.22,-4.268,11.89,11_6_1.csv
2018-07-10T10:42:51.626012,-0.895,-0.326,0.215,-98.049,-3.293,11.037,11_6_1.csv
2018-07-10T10:42:51.677650,-0.91,-0.29,0.258,-98.11,-4.695,10.122,11_6_1.csv
2018-07-10T10:42:51.730791,-0.91,-0.29,0.258,-90.0,2.927,8.11,11_6_1.csv
2018-07-10T10:42:51.782931,-1.008,-0.372,0.297,-15.671,21.28,10.671,11_6_1.csv
2018-07-10T10:42:51.830057,-1.237,-0.379,0.255,0.122,19.695,5.61,11_6_1.csv
2018-07-10T10:42:51.876681,-1.237,-0.379,0.255,3.659,22.744,0.793,11_6_1.csv
2018-07-10T10:42:51.921302,-1.171,-0.465,0.236,27.744,-7.134,-4.939,11_6_1.csv
2018-07-10T10:42:51.979458,-1.171,-0.465,0.236,68.902,-28.476,-22.134,11_6_1.csv
2018-07-10T10:42:52.041627,-0.993,-0.346,0.147,92.012,-35.0,-59.939,11_6_1.csv
2018-07-10T10:42:52.095774,-1.161,-0.337,0.134,109.939,-36.463,-54.634,11_6_1.csv
2018-07-10T10:42:52.148417,-1.069,-0.202,0.105,93.354,-64.512,-53.415,11_6_1.csv
2018-07-10T10:42:52.192033,-1.069,-0.202,0.105,49.39,-68.049,-63.78,11_6_1.csv
2018-07-10T10:42:52.237154,-0.92,-0.184,0.121,8.293,-73.659,-69.878,11_6_1.csv
2018-07-10T10:42:52.289293,-0.92,-0.184,0.121,-17.744,-71.098,-66.707,11_6_1.csv
2018-07-10T10:42:52.331406,-0.782,-0.223,0.145,-25.244,-59.695,-55.671,11_6_1.csv
2018-07-10T10:42:52.381040,-0.763,-0.245,0.157,-31.098,-20.061,-8.476,11_6_1.csv
2018-07-10T10:42:52.427665,-0.763,-0.245,0.157,-29.024,12.195,27.683,11_6_1.csv
2018-07-10T10:42:52.473789,-1.154,-0.287,0.054,-26.402,43.232,65.915,11_6_1.csv
2018-07-10T10:42:52.522924,-1.154,-0.287,0.054,-43.476,61.524,98.72,11_6_1.csv
2018-07-10T10:42:52.564034,-1.154,-0.344,0.163,-54.451,49.756,108.842,11_6_1.csv
2018-07-10T10:42:52.616177,-1.154,-0.344,0.163,-45.427,36.951,88.598,11_6_1.csv
2018-07-10T10:42:52.676338,-0.948,-0.257,0.14,-57.195,44.146,41.463,11_6_1.csv
2018-07-10T10:42:52.806693,-0.941,-0.337,0.21,-126.463,13.049,22.378,11_6_1.csv
2018-07-10T10:42:52.868486,-0.937,-0.268,0.273,-73.963,21.28,30.671,11_6_1.csv
2018-07-10T10:42:52.910601,-0.937,-0.268,0.273,-52.195,25.122,34.39,11_6_1.csv
2018-07-10T10:42:52.961739,-1.028,-0.218,0.313,-47.5,25.976,38.902,11_6_1.csv
2018-07-10T10:42:53.010873,-1.028,-0.218,0.313,-28.415,19.939,40.854,11_6_1.csv
2018-07-10T10:42:53.080060,-1.118,-0.198,0.256,-10.671,0.183,11.707,11_6_1.csv
2018-07-10T10:42:53.126187,-1.19,-0.279,0.2,-28.537,-11.037,-5.61,11_6_1.csv
2018-07-10T10:42:53.177324,-1.19,-0.279,0.2,-22.317,-13.049,-15.427,11_6_1.csv
2018-07-10T10:42:53.225129,-1.233,-0.469,0.187,7.988,-19.085,-18.171,11_6_1.csv
2018-07-10T10:42:53.287295,-1.054,-0.413,0.124,75.671,-42.5,-50.305,11_6_1.csv
2018-07-10T10:42:53.344452,-1.054,-0.413,0.124,96.28,-47.378,-71.585,11_6_1.csv
2018-07-10T10:42:53.390576,-1.122,-0.323,0.06,99.451,-58.293,-86.829,11_6_1.csv
2018-07-10T10:42:53.442717,-1.066,-0.244,0.072,96.524,-67.5,-87.256,11_6_1.csv
2018-07-10T10:42:53.505384,-1.066,-0.244,0.072,74.451,-67.622,-85.549,11_6_1.csv
2018-07-10T10:42:53.562537,-0.886,-0.167,0.119,6.159,-63.232,-76.28,11_6_1.csv
2018-07-10T10:42:53.610665,-0.727,-0.221,0.197,-10.732,-46.22,-60.671,11_6_1.csv
2018-07-10T10:42:53.673333,-0.766,-0.256,0.253,-1.159,3.72,-5.671,11_6_1.csv
2018-07-10T10:42:53.730987,-0.766,-0.256,0.253,-2.317,26.037,25.671,11_6_1.csv
2018-07-10T10:42:53.787638,-1.006,-0.244,0.183,-5.61,33.354,54.512,11_6_1.csv
2018-07-10T10:42:53.829752,-1.274,-0.327,0.157,-84.573,47.805,99.512,11_6_1.csv
2018-07-10T10:42:53.876877,-1.274,-0.327,0.157,-111.159,37.256,110.549,11_6_1.csv
2018-07-10T10:42:53.928013,-1.037,-0.399,0.297,-78.963,31.707,105.61,11_6_1.csv
2018-07-10T10:42:53.971631,-1.037,-0.399,0.297,-44.573,31.829,81.768,11_6_1.csv
2018-07-10T10:42:54.029789,-1.012,-0.196,0.257,-78.78,-9.573,26.037,11_6_1.csv
2018-07-10T10:42:54.140786,-0.973,-0.216,0.173,-184.329,-31.159,-26.28,11_6_1.csv
2018-07-10T10:42:54.188920,-1.028,-0.447,0.191,-159.329,-23.659,-26.22,11_6_1.csv
2018-07-10T10:42:54.237048,-0.85,-0.34,0.368,-46.707,-3.415,2.012,11_6_1.csv
2018-07-10T10:42:54.281169,-0.85,-0.34,0.368,3.78,16.28,7.683,11_6_1.csv
2018-07-10T10:42:54.328297,-0.839,-0.218,0.419,51.28,37.195,22.927,11_6_1.csv
2018-07-10T10:42:54.389467,-0.839,-0.218,0.419,61.22,29.695,40.671,11_6_1.csv
2018-07-10T10:42:54.442608,-0.983,-0.175,0.34,-47.805,-3.72,37.805,11_6_1.csv
2018-07-10T10:42:54.488738,-1.071,-0.379,0.259,-83.476,-14.146,14.451,11_6_1.csv
2018-07-10T10:42:54.537869,-1.071,-0.379,0.259,-72.988,-20.488,-9.756,11_6_1.csv
2018-07-10T10:42:54.596028,-1.312,-0.345,0.154,-54.878,-30.61,-49.085,11_6_1.csv
2018-07-10T10:42:54.646163,-1.171,-0.224,0.16,-61.28,-44.39,-65.305,11_6_1.csv
2018-07-10T10:42:54.701311,-1.171,-0.224,0.16,-37.622,-37.012,-68.902,11_6_1.csv
2018-07-10T10:42:54.750447,-1.018,-0.224,0.155,1.585,-32.805,-55.061,11_6_1.csv
2018-07-10T10:42:54.797573,-0.843,-0.26,0.292,68.72,-30.305,9.268,11_6_1.csv
2018-07-10T10:42:54.844703,-0.843,-0.26,0.292,90.061,-24.756,23.963,11_6_1.csv
2018-07-10T10:42:54.890827,-0.798,-0.077,0.289,47.195,-36.768,18.841,11_6_1.csv
2018-07-10T10:42:54.937958,-0.798,-0.077,0.289,-28.72,-45.854,12.805,11_6_1.csv
2018-07-10T10:42:54.997116,-0.869,-0.235,0.226,-110.122,-46.402,24.756,11_6_1.csv
2018-07-10T10:42:55.051263,-0.896,-0.38,0.199,-102.744,-31.646,30.122,11_6_1.csv
2018-07-10T10:42:55.096384,-0.896,-0.38,0.199,-89.939,-12.378,30.61,11_6_1.csv
2018-07-10T10:42:55.143510,-0.889,-0.404,0.194,-74.207,15.793,36.524,11_6_1.csv
2018-07-10T10:42:55.188630,-0.889,-0.404,0.194,-35.549,44.695,52.378,11_6_1.csv
2018-07-10T10:42:55.235255,-1.231,-0.338,0.136,0.061,66.037,66.585,11_6_1.csv
2018-07-10T10:42:55.289400,-1.262,-0.276,0.218,-40.183,49.39,58.963,11_6_1.csv
2018-07-10T10:42:55.361091,-0.849,-0.054,0.192,-72.195,3.354,-3.72,11_6_1.csv
2018-07-10T10:42:55.406212,-0.849,-0.054,0.192,-118.11,-10.732,-25.061,11_6_1.csv
2018-07-10T10:42:55.509488,-0.935,-0.185,0.053,-174.39,-38.537,-13.598,11_6_1.csv
2018-07-10T10:42:55.552101,-0.918,-0.349,0.078,-162.012,-40.427,-5.0,11_6_1.csv
2018-07-10T10:42:55.610758,-0.86,-0.242,0.057,-77.744,7.134,4.756,11_6_1.csv
2018-07-10T10:42:55.667409,-0.86,-0.242,0.057,-57.317,18.902,10.427,11_6_1.csv
2018-07-10T10:42:55.723559,-0.98,-0.223,0.121,-61.585,26.463,25.976,11_6_1.csv
2018-07-10T10:42:55.769683,-1.033,-0.293,0.208,-58.476,21.098,28.232,11_6_1.csv
2018-07-10T10:42:55.814803,-1.033,-0.293,0.208,-58.598,27.134,23.293,11_6_1.csv
2018-07-10T10:42:55.865940,-1.097,-0.349,0.22,-55.976,20.549,17.988,11_6_1.csv
2018-07-10T10:42:55.907050,-1.097,-0.349,0.22,-47.256,15.122,15.793,11_6_1.csv
2018-07-10T10:42:55.966711,-1.266,-0.491,0.299,-6.951,10.061,14.024,11_6_1.csv
2018-07-10T10:42:56.016845,-1.171,-0.394,0.256,27.805,-31.646,4.329,11_6_1.csv
2018-07-10T10:42:56.063472,-1.171,-0.394,0.256,27.317,-61.89,-32.134,11_6_1.csv
2018-07-10T10:42:56.111100,-1.118,-0.236,0.111,-3.415,-68.293,-77.622,11_6_1.csv
2018-07-10T10:42:56.157222,-1.118,-0.236,0.111,-29.817,-91.524,-103.415,11_6_1.csv
2018-07-10T10:42:56.203346,-1.221,-0.381,0.109,38.902,-102.073,-95.854,11_6_1.csv
2018-07-10T10:42:56.257992,-0.997,-0.22,0.109,35.061,-97.439,-88.232,11_6_1.csv
2018-07-10T10:42:56.331187,-0.757,-0.177,0.136,-9.085,-72.805,-72.622,11_6_1.csv
2018-07-10T10:42:56.391348,-0.757,-0.177,0.136,-11.89,-59.512,-48.293,11_6_1.csv
2018-07-10T10:42:56.439476,-0.658,-0.224,0.174,-18.049,-36.098,-14.085,11_6_1.csv
2018-07-10T10:42:56.485098,-0.835,-0.492,0.18,-118.11,17.988,33.415,11_6_1.csv
2018-07-10T10:42:56.531224,-0.835,-0.492,0.18,-119.634,68.72,41.89,11_6_1.csv
2018-07-10T10:42:56.584366,-1.24,-0.615,0.007,-21.829,71.159,79.39,11_6_1.csv
2018-07-10T10:42:56.626482,-1.24,-0.615,0.007,19.451,22.561,125.793,11_6_1.csv
2018-07-10T10:42:56.672605,-1.006,-0.299,0.104,20.244,-0.427,133.72,11_6_1.csv
2018-07-10T10:42:56.721235,-1.006,-0.299,0.104,0.61,-3.11,98.049,11_6_1.csv
2018-07-10T10:42:56.766856,-0.926,-0.116,0.095,-129.573,7.439,43.902,11_6_1.csv
2018-07-10T10:42:56.896205,-0.927,-0.39,0.121,-130.122,-5.549,35.793,11_6_1.csv
2018-07-10T10:42:56.944333,-0.927,-0.39,0.121,-97.378,10.305,33.902,11_6_1.csv
2018-07-10T10:42:56.992464,-0.938,-0.295,0.237,-87.805,11.402,30.0,11_6_1.csv
2018-07-10T10:42:57.038086,-0.938,-0.295,0.237,-90.305,7.744,23.78,11_6_1.csv
2018-07-10T10:42:57.081202,-0.976,-0.324,0.339,-99.573,4.146,18.963,11_6_1.csv
2018-07-10T10:42:57.130837,-1.094,-0.484,0.396,-50.0,15.793,34.695,11_6_1.csv
2018-07-10T10:42:57.171947,-1.094,-0.484,0.396,13.415,6.89,35.427,11_6_1.csv
2018-07-10T10:42:57.232113,-1.236,-0.382,0.249,36.707,0.854,19.146,11_6_1.csv
2018-07-10T10:42:57.280242,-1.236,-0.382,0.249,20.427,-15.854,-9.39,11_6_1.csv
2018-07-10T10:42:57.327871,-1.172,-0.423,0.168,30.976,-61.89,-55.854,11_6_1.csv
2018-07-10T10:42:57.375999,-1.016,-0.447,0.1,73.11,-57.744,-95.488,11_6_1.csv
2018-07-10T10:42:57.422123,-1.016,-0.447,0.1,71.89,-55.915,-108.781,11_6_1.csv
2018-07-10T10:42:57.470251,-1.09,-0.354,0.086,95.732,-58.415,-92.683,11_6_1.csv
2018-07-10T10:42:57.523895,-1.09,-0.354,0.086,94.451,-59.451,-77.561,11_6_1.csv
2018-07-10T10:42:57.580045,-0.946,-0.24,0.087,11.463,-47.622,-70.732,11_6_1.csv
2018-07-10T10:42:57.631181,-0.813,-0.197,0.087,2.195,-44.329,-64.024,11_6_1.csv
2018-07-10T10:42:57.680313,-0.813,-0.197,0.087,1.341,-27.317,-55.366,11_6_1.csv
2018-07-10T10:42:57.723929,-0.74,-0.177,0.209,-9.085,-9.756,-39.146,11_6_1.csv
2018-07-10T10:42:57.769550,-0.889,-0.22,0.213,-20.366,33.049,36.646,11_6_1.csv
2018-07-10T10:42:57.820186,-0.889,-0.22,0.213,-22.012,56.524,82.195,11_6_1.csv
2018-07-10T10:42:57.880347,-1.36,-0.314,0.13,-45.488,80.0,122.561,11_6_1.csv
2018-07-10T10:42:57.926472,-1.36,-0.314,0.13,-70.915,74.024,140.0,11_6_1.csv
2018-07-10T10:42:57.972593,-1.213,-0.404,0.209,-25.244,38.232,99.329,11_6_1.csv
2018-07-10T10:42:58.015207,-0.964,-0.214,0.147,-24.817,33.841,67.195,11_6_1.csv
2018-07-10T10:42:58.062333,-0.964,-0.214,0.147,-71.707,14.634,38.78,11_6_1.csv
2018-07-10T10:42:58.121992,-1.033,-0.267,0.111,-135.976,-15.61,20.549,11_6_1.csv
2018-07-10T10:42:58.231786,-0.86,-0.333,0.107,-133.72,-22.439,-31.159,11_6_1.csv
2018-07-10T10:42:58.290442,-0.822,-0.309,0.252,-84.695,-7.866,-22.927,11_6_1.csv
2018-07-10T10:42:58.332054,-0.893,-0.283,0.351,-15.793,15.122,9.451,11_6_1.csv
2018-07-10T10:42:58.379180,-0.893,-0.283,0.351,1.159,25.488,16.037,11_6_1.csv
2018-07-10T10:42:58.425303,-1.058,-0.285,0.254,19.634,32.622,14.817,11_6_1.csv
2018-07-10T10:42:58.477943,-1.058,-0.285,0.254,32.134,30.366,12.134,11_6_1.csv
2018-07-10T10:42:58.536600,-1.268,-0.382,0.2,18.293,17.012,2.317,11_6_1.csv
2018-07-10T10:42:58.595758,-1.195,-0.547,0.243,55.793,-2.683,-1.646,11_6_1.csv
2018-07-10T10:42:58.643385,-1.195,-0.547,0.243,111.281,-20.305,-10.244,11_6_1.csv
2018-07-10T10:42:58.689509,-1.047,-0.308,0.145,137.378,-29.451,-35.0,11_6_1.csv
2018-07-10T10:42:58.735130,-1.166,-0.212,0.125,91.402,-60.915,-68.232,11_6_1.csv
2018-07-10T10:42:58.790278,-1.166,-0.212,0.125,59.024,-80.061,-67.561,11_6_1.csv
2018-07-10T10:42:58.844924,-1.035,-0.205,0.101,19.085,-90.183,-65.61,11_6_1.csv
2018-07-10T10:42:58.890546,-1.035,-0.205,0.101,-22.622,-92.805,-67.988,11_6_1.csv
2018-07-10T10:42:58.944189,-0.854,-0.214,0.098,-52.134,-71.89,-70.671,11_6_1.csv
2018-07-10T10:42:58.990814,-0.684,-0.229,0.215,-38.049,-54.39,-49.817,11_6_1.csv
2018-07-10T10:42:59.036436,-0.684,-0.229,0.215,-19.329,-29.817,-15.305,11_6_1.csv
2018-07-10T10:42:59.104116,-0.774,-0.218,0.197,-6.402,37.378,72.256,11_6_1.csv
2018-07-10T10:42:59.157760,-1.211,-0.261,0.059,-31.585,59.146,106.037,11_6_1.csv
2018-07-10T10:42:59.204385,-1.211,-0.261,0.059,-70.732,67.805,124.817,11_6_1.csv
2018-07-10T10:42:59.251009,-1.356,-0.439,0.107,-87.439,72.5,133.963,11_6_1.csv
2018-07-10T10:42:59.298134,-0.987,-0.249,0.153,-26.707,39.939,87.561,11_6_1.csv
2018-07-10T10:42:59.345261,-0.987,-0.249,0.153,-55.61,36.646,53.598,11_6_1.csv
2018-07-10T10:42:59.398403,-0.997,-0.185,0.101,-124.756,14.939,28.72,11_6_1.csv
2018-07-10T10:42:59.458062,-0.917,-0.383,0.207,-187.073,-18.171,10.366,11_6_1.csv
2018-07-10T10:42:59.507193,-0.917,-0.383,0.207,-155.793,-19.024,10.61,11_6_1.csv
2018-07-10T10:42:59.600944,-0.878,-0.309,0.237,-112.744,-8.537,0.854,11_6_1.csv
2018-07-10T10:42:59.654587,-0.931,-0.277,0.273,-104.817,-6.463,-5.244,11_6_1.csv
2018-07-10T10:42:59.709233,-0.979,-0.306,0.279,-51.951,14.695,0.305,11_6_1.csv
2018-07-10T10:42:59.765885,-0.979,-0.306,0.279,-16.768,22.439,2.317,11_6_1.csv
2018-07-10T10:42:59.831058,-1.153,-0.337,0.237,7.744,26.89,1.707,11_6_1.csv
2018-07-10T10:42:59.899742,-1.394,-0.454,0.301,56.341,-19.817,-3.354,11_6_1.csv
2018-07-10T10:42:59.941854,-1.044,-0.212,0.199,51.646,-68.476,-40.427,11_6_1.csv
2018-07-10T10:42:59.984970,-1.044,-0.212,0.199,22.195,-62.988,-87.683,11_6_1.csv
2018-07-10T10:43:00.035605,-1.044,-0.212,0.199,-10.061,-85.061,-115.793,11_6_1.csv
