time,accel_x_list,accel_y_list,accel_z_list,gyro_x_list,gyro_y_list,gyro_z_list,filename
2018-07-10T10:43:04.673128,-1.058,-0.129,0.119,-42.317,26.89,59.451,11_6_2.csv
2018-07-10T10:43:04.723766,-1.058,-0.129,0.119,-42.317,26.89,59.451,11_6_2.csv
2018-07-10T10:43:04.769890,-0.939,-0.288,0.117,-180.244,-19.085,17.195,11_6_2.csv
2018-07-10T10:43:04.822530,-0.939,-0.288,0.117,-195.488,-17.256,10.122,11_6_2.csv
2018-07-10T10:43:04.876173,-0.881,-0.473,0.144,-157.256,-4.085,24.085,11_6_2.csv
2018-07-10T10:43:04.923299,-0.881,-0.473,0.144,-89.817,10.183,42.744,11_6_2.csv
2018-07-10T10:43:04.969924,-0.951,-0.323,0.212,-67.561,25.122,37.744,11_6_2.csv
2018-07-10T10:43:05.054650,-0.975,-0.313,0.238,-74.39,29.878,9.634,11_6_2.csv
2018-07-10T10:43:05.109298,-1.114,-0.392,0.277,-43.537,34.329,8.293,11_6_2.csv
2018-07-10T10:43:05.161439,-1.114,-0.392,0.277,-12.317,30.793,9.024,11_6_2.csv
2018-07-10T10:43:05.223609,-1.252,-0.375,0.288,13.293,14.512,-5.183,11_6_2.csv
2018-07-10T10:43:05.268734,-1.004,-0.33,0.299,32.073,-17.134,-18.72,11_6_2.csv
2018-07-10T10:43:05.316862,-1.004,-0.33,0.299,47.622,-34.634,-41.098,11_6_2.csv
2018-07-10T10:43:05.360481,-1.03,-0.297,0.205,50.671,-32.866,-53.415,11_6_2.csv
2018-07-10T10:43:05.422148,-1.255,-0.308,0.154,70.305,-62.134,-32.378,11_6_2.csv
2018-07-10T10:43:05.487328,-1.105,-0.23,0.122,24.817,-81.341,-50.732,11_6_2.csv
2018-07-10T10:43:05.531446,-1.105,-0.23,0.122,-2.622,-84.512,-72.561,11_6_2.csv
2018-07-10T10:43:05.578573,-0.901,-0.212,0.164,-1.524,-82.012,-78.171,11_6_2.csv
2018-07-10T10:43:05.627704,-0.901,-0.212,0.164,4.268,-72.5,-65.854,11_6_2.csv
2018-07-10T10:43:05.672324,-0.75,-0.147,0.192,-8.841,-70.0,-44.817,11_6_2.csv
2018-07-10T10:43:05.721455,-0.75,-0.147,0.192,-33.049,-53.963,-16.89,11_6_2.csv
2018-07-10T10:43:05.772090,-0.81,-0.192,0.11,-68.598,-10.122,38.598,11_6_2.csv
2018-07-10T10:43:05.847294,-1.161,-0.311,-0.047,-92.744,20.183,73.354,11_6_2.csv
2018-07-10T10:43:05.895422,-1.052,-0.506,0.148,-108.232,39.146,122.5,11_6_2.csv
2018-07-10T10:43:05.942252,-1.052,-0.506,0.148,-23.598,55.122,110.366,11_6_2.csv
2018-07-10T10:43:05.992385,-1.001,-0.284,0.194,35.854,79.329,89.39,11_6_2.csv
2018-07-10T10:43:06.031496,-1.001,-0.284,0.194,26.341,70.549,79.451,11_6_2.csv
2018-07-10T10:43:06.101682,-1.187,-0.075,0.142,-176.159,-10.366,25.732,11_6_2.csv
2018-07-10T10:43:06.142294,-0.968,-0.285,0.081,-242.439,-32.683,-11.28,11_6_2.csv
2018-07-10T10:43:06.188417,-0.968,-0.285,0.081,-229.573,-42.988,-26.037,11_6_2.csv
2018-07-10T10:43:06.236546,-0.848,-0.313,0.119,-170.305,-23.171,-19.939,11_6_2.csv
2018-07-10T10:43:06.282167,-0.848,-0.313,0.119,-125.183,-9.573,-1.22,11_6_2.csv
2018-07-10T10:43:06.328792,-0.896,-0.247,0.176,-107.134,-5.671,18.72,11_6_2.csv
2018-07-10T10:43:06.412519,-1.03,-0.358,0.222,-23.963,44.024,43.415,11_6_2.csv
2018-07-10T10:43:06.469678,-1.229,-0.388,0.269,0.427,42.988,38.354,11_6_2.csv
2018-07-10T10:43:06.514798,-1.229,-0.388,0.269,2.012,37.622,23.354,11_6_2.csv
2018-07-10T10:43:06.564936,-1.175,-0.454,0.337,-4.939,10.305,8.537,11_6_2.csv
2018-07-10T10:43:06.611060,-1.175,-0.454,0.337,12.805,-29.451,-12.195,11_6_2.csv
2018-07-10T10:43:06.663203,-1.008,-0.361,0.235,46.951,-50.122,-69.634,11_6_2.csv
2018-07-10T10:43:06.732388,-1.248,-0.334,0.125,49.329,-70.305,-77.622,11_6_2.csv
2018-07-10T10:43:06.785535,-1.229,-0.29,0.087,31.707,-98.476,-84.695,11_6_2.csv
2018-07-10T10:43:06.844193,-1.229,-0.29,0.087,8.841,-96.829,-100.305,11_6_2.csv
2018-07-10T10:43:06.891823,-0.971,-0.246,0.14,6.159,-92.744,-111.707,11_6_2.csv
2018-07-10T10:43:06.937947,-0.818,-0.146,0.235,47.317,-55.366,-75.366,11_6_2.csv
2018-07-10T10:43:06.985077,-0.818,-0.146,0.235,43.11,-45.244,-41.524,11_6_2.csv
2018-07-10T10:43:07.040229,-0.758,-0.067,0.193,17.744,-26.28,-7.134,11_6_2.csv
2018-07-10T10:43:07.095380,-0.758,-0.067,0.193,-21.341,-10.427,25.122,11_6_2.csv
2018-07-10T10:43:07.161560,-1.003,-0.187,0.006,-120.183,43.415,112.561,11_6_2.csv
2018-07-10T10:43:07.205176,-1.22,-0.49,0.099,-136.585,52.256,153.842,11_6_2.csv
2018-07-10T10:43:07.250798,-1.22,-0.49,0.099,-82.073,42.012,159.939,11_6_2.csv
2018-07-10T10:43:07.299427,-1.099,-0.291,0.086,-32.622,52.683,101.037,11_6_2.csv
2018-07-10T10:43:07.357082,-1.187,-0.145,-0.004,-135.671,9.207,76.585,11_6_2.csv
2018-07-10T10:43:07.407218,-1.187,-0.145,-0.004,-254.207,-27.256,44.207,11_6_2.csv
2018-07-10T10:43:07.453342,-0.921,-0.444,-0.01,-308.293,-47.256,15.488,11_6_2.csv
2018-07-10T10:43:07.503481,-0.85,-0.562,0.095,-206.768,-32.012,33.171,11_6_2.csv
2018-07-10T10:43:07.548602,-0.85,-0.562,0.095,-144.39,-22.317,54.268,11_6_2.csv
2018-07-10T10:43:07.593729,-0.858,-0.487,0.22,-133.232,-17.134,59.024,11_6_2.csv
2018-07-10T10:43:07.651883,-0.858,-0.487,0.22,-114.268,11.951,44.634,11_6_2.csv
2018-07-10T10:43:07.709040,-1.025,-0.528,0.305,-15.244,26.037,17.866,11_6_2.csv
2018-07-10T10:43:07.817334,-1.142,-0.455,0.311,10.305,23.78,-13.476,11_6_2.csv
2018-07-10T10:43:07.863458,-1.142,-0.554,0.321,89.085,-7.805,-28.476,11_6_2.csv
2018-07-10T10:43:07.913596,-1.086,-0.441,0.177,128.72,-9.939,-50.793,11_6_2.csv
2018-07-10T10:43:07.956712,-1.086,-0.441,0.177,149.817,-20.183,-71.463,11_6_2.csv
2018-07-10T10:43:08.017880,-1.289,-0.318,0.033,185.244,-28.537,-75.61,11_6_2.csv
2018-07-10T10:43:08.063001,-1.101,-0.154,0.039,135.61,-68.171,-93.293,11_6_2.csv
2018-07-10T10:43:08.112136,-1.101,-0.154,0.039,62.012,-67.317,-104.024,11_6_2.csv
2018-07-10T10:43:08.157257,-0.827,-0.207,0.075,16.585,-65.427,-101.89,11_6_2.csv
2018-07-10T10:43:08.203386,-0.827,-0.207,0.075,9.939,-53.476,-87.5,11_6_2.csv
2018-07-10T10:43:08.250512,-0.663,-0.182,0.168,4.329,-44.146,-65.305,11_6_2.csv
2018-07-10T10:43:08.310678,-0.789,-0.194,0.178,-19.573,4.085,-7.073,11_6_2.csv
2018-07-10T10:43:08.360812,-0.789,-0.194,0.178,-25.732,31.585,37.195,11_6_2.csv
2018-07-10T10:43:08.409948,-1.194,-0.253,0.141,-34.39,62.439,84.512,11_6_2.csv
2018-07-10T10:43:08.459078,-1.194,-0.253,0.141,-58.902,75.305,114.512,11_6_2.csv
2018-07-10T10:43:08.500193,-1.226,-0.379,0.283,-61.159,78.293,126.402,11_6_2.csv
2018-07-10T10:43:08.557346,-1.035,-0.218,0.194,10.061,54.451,97.073,11_6_2.csv
2018-07-10T10:43:08.615505,-1.035,-0.218,0.194,-14.39,35.366,69.634,11_6_2.csv
2018-07-10T10:43:08.673660,-1.086,-0.146,0.129,-171.585,-22.317,3.232,11_6_2.csv
2018-07-10T10:43:08.719790,-0.935,-0.377,0.166,-197.195,-35.793,-17.683,11_6_2.csv
2018-07-10T10:43:08.766916,-0.935,-0.377,0.166,-169.39,-37.5,-16.768,11_6_2.csv
2018-07-10T10:43:08.813043,-0.829,-0.391,0.253,-101.037,-17.256,-5.366,11_6_2.csv
2018-07-10T10:43:08.859167,-0.829,-0.391,0.253,-43.78,-7.195,3.659,11_6_2.csv
2018-07-10T10:43:08.915322,-0.817,-0.28,0.31,-36.646,7.012,2.378,11_6_2.csv
2018-07-10T10:43:08.974480,-1.149,-0.375,0.303,-8.354,19.878,1.159,11_6_2.csv
2018-07-10T10:43:09.020605,-1.149,-0.375,0.303,20.732,16.829,7.378,11_6_2.csv
2018-07-10T10:43:09.068734,-1.343,-0.328,0.257,5.061,-45.244,-17.744,11_6_2.csv
2018-07-10T10:43:09.172013,-1.256,-0.272,0.172,-7.195,-77.561,-71.89,11_6_2.csv
2018-07-10T10:43:09.227159,-1.25,-0.243,0.079,-17.317,-103.293,-82.195,11_6_2.csv
2018-07-10T10:43:09.279838,-1.002,-0.203,0.05,-40.732,-114.695,-76.159,11_6_2.csv
2018-07-10T10:43:09.330477,-1.002,-0.203,0.05,-64.207,-107.683,-61.037,11_6_2.csv
2018-07-10T10:43:09.375600,-0.881,-0.209,0.004,-73.78,-97.195,-40.061,11_6_2.csv
2018-07-10T10:43:09.423729,-0.881,-0.209,0.004,-77.317,-98.049,-10.244,11_6_2.csv
2018-07-10T10:43:09.468581,-0.894,-0.206,-0.11,-146.098,-108.659,60.793,11_6_2.csv
2018-07-10T10:43:09.515707,-0.875,-0.348,-0.194,-183.659,-101.159,84.329,11_6_2.csv
2018-07-10T10:43:09.569856,-0.875,-0.348,-0.194,-198.11,-81.22,109.085,11_6_2.csv
2018-07-10T10:43:09.628011,-0.954,-0.628,-0.109,-167.256,-25.061,194.39,11_6_2.csv
2018-07-10T10:43:09.675139,-1.118,-0.752,0.011,-141.402,4.756,213.963,11_6_2.csv
2018-07-10T10:43:09.726276,-1.118,-0.752,0.011,-123.049,33.537,222.5,11_6_2.csv
2018-07-10T10:43:09.769391,-1.261,-0.63,0.093,-60.793,45.366,221.829,11_6_2.csv
2018-07-10T10:43:09.815013,-1.261,-0.63,0.093,-39.207,42.134,180.305,11_6_2.csv
2018-07-10T10:43:09.870161,-1.122,-0.322,0.094,-200.244,12.439,25.549,11_6_2.csv
2018-07-10T10:43:09.929822,-0.938,-0.429,0.047,-229.085,-5.976,-20.305,11_6_2.csv
2018-07-10T10:43:09.973940,-0.938,-0.429,0.047,-215.61,-12.988,-33.049,11_6_2.csv
2018-07-10T10:43:10.016923,-0.897,-0.477,0.157,-182.378,-12.927,-28.598,11_6_2.csv
2018-07-10T10:43:10.063046,-0.897,-0.477,0.157,-151.707,1.463,-21.341,11_6_2.csv
2018-07-10T10:43:10.126219,-0.926,-0.396,0.244,-87.683,32.805,-32.988,11_6_2.csv
2018-07-10T10:43:10.182372,-1.056,-0.287,0.331,-23.659,62.439,-23.537,11_6_2.csv
2018-07-10T10:43:10.240529,-1.06,-0.216,0.353,10.244,39.39,12.195,11_6_2.csv
2018-07-10T10:43:10.288660,-1.06,-0.216,0.353,0.061,25.915,16.585,11_6_2.csv
2018-07-10T10:43:10.329773,-0.997,-0.278,0.234,-5.183,0.976,8.476,11_6_2.csv
2018-07-10T10:43:10.376898,-0.997,-0.278,0.234,-21.341,-28.415,-0.549,11_6_2.csv
2018-07-10T10:43:10.427740,-1.067,-0.465,0.189,-26.463,-23.78,-3.11,11_6_2.csv
2018-07-10T10:43:10.547064,-1.096,-0.444,0.192,34.085,-39.207,-31.707,11_6_2.csv
2018-07-10T10:43:10.595696,-1.115,-0.323,0.209,13.232,-58.841,-75.854,11_6_2.csv
2018-07-10T10:43:10.642323,-1.07,-0.26,0.177,7.134,-72.866,-78.659,11_6_2.csv
2018-07-10T10:43:10.690955,-1.07,-0.26,0.177,-11.646,-72.988,-73.171,11_6_2.csv
2018-07-10T10:43:10.735579,-0.93,-0.259,0.146,-25.671,-68.78,-64.512,11_6_2.csv
2018-07-10T10:43:10.782206,-0.93,-0.259,0.146,-29.512,-62.378,-52.744,11_6_2.csv
2018-07-10T10:43:10.828834,-0.979,-0.273,0.105,-26.28,-36.159,-31.707,11_6_2.csv
2018-07-10T10:43:10.874957,-0.979,-0.273,0.105,-16.463,-15.122,-3.415,11_6_2.csv
2018-07-10T10:43:10.922087,-1.134,-0.249,0.059,-42.805,9.085,46.037,11_6_2.csv
2018-07-10T10:43:10.975229,-0.868,-0.199,0.202,-44.39,12.927,51.402,11_6_2.csv
2018-07-10T10:43:11.036396,-0.846,-0.167,0.146,-50.305,24.939,69.756,11_6_2.csv
2018-07-10T10:43:11.096058,-0.846,-0.167,0.146,-59.817,20.488,74.573,11_6_2.csv
2018-07-10T10:43:11.141514,-1.112,-0.232,0.138,-89.512,15.122,76.524,11_6_2.csv
2018-07-10T10:43:11.196665,-1.011,-0.351,0.188,-124.451,-0.793,61.22,11_6_2.csv
2018-07-10T10:43:11.237776,-1.011,-0.351,0.188,-97.561,10.061,53.841,11_6_2.csv
2018-07-10T10:43:11.298942,-0.964,-0.33,0.264,-70.671,15.183,53.293,11_6_2.csv
2018-07-10T10:43:11.345069,-0.964,-0.33,0.264,-59.756,13.537,52.317,11_6_2.csv
2018-07-10T10:43:11.391194,-0.975,-0.321,0.329,-67.195,9.207,47.256,11_6_2.csv
2018-07-10T10:43:11.439325,-1.049,-0.453,0.366,-42.805,13.171,31.707,11_6_2.csv
2018-07-10T10:43:11.484949,-1.049,-0.453,0.366,-1.524,6.037,25.793,11_6_2.csv
2018-07-10T10:43:11.531573,-1.174,-0.517,0.293,41.768,13.902,15.244,11_6_2.csv
2018-07-10T10:43:11.593740,-1.174,-0.517,0.293,79.207,9.817,0.61,11_6_2.csv
2018-07-10T10:43:11.645378,-1.136,-0.568,0.216,174.39,-13.72,-27.561,11_6_2.csv
2018-07-10T10:43:11.688995,-1.147,-0.396,0.06,207.805,-30.61,-45.427,11_6_2.csv
2018-07-10T10:43:11.738627,-1.147,-0.396,0.06,200.183,-46.28,-59.573,11_6_2.csv
2018-07-10T10:43:11.786254,-1.232,-0.286,-0.034,168.537,-66.159,-67.866,11_6_2.csv
2018-07-10T10:43:11.867474,-1.128,-0.262,-0.059,91.829,-98.537,-75.183,11_6_2.csv
2018-07-10T10:43:11.915602,-1.128,-0.262,-0.059,30.183,-106.159,-88.902,11_6_2.csv
2018-07-10T10:43:11.977775,-0.847,-0.333,-0.095,-43.78,-71.707,-108.72,11_6_2.csv
2018-07-10T10:43:12.035932,-0.663,-0.512,0.046,1.646,-27.805,-91.22,11_6_2.csv
2018-07-10T10:43:12.096096,-0.991,-0.301,0.126,160.183,68.232,-24.573,11_6_2.csv
2018-07-10T10:43:12.140718,-0.991,-0.301,0.126,156.22,70.366,-14.878,11_6_2.csv
2018-07-10T10:43:12.189350,-1.255,0.084,0.205,84.695,74.146,-14.817,11_6_2.csv
2018-07-10T10:43:12.246505,-0.9,-0.056,0.433,-102.439,40.976,-19.512,11_6_2.csv
2018-07-10T10:43:12.302658,-0.9,-0.056,0.433,-91.951,45.793,5.854,11_6_2.csv
2018-07-10T10:43:12.359815,-0.921,-0.174,0.32,-16.159,63.841,43.049,11_6_2.csv
2018-07-10T10:43:12.411954,-1.166,-0.103,0.2,-34.451,40.366,74.085,11_6_2.csv
2018-07-10T10:43:12.454071,-1.166,-0.103,0.2,-111.646,25.122,64.634,11_6_2.csv
2018-07-10T10:43:12.500195,-1.024,-0.399,0.265,-117.561,21.951,58.11,11_6_2.csv
2018-07-10T10:43:12.557350,-1.024,-0.399,0.265,-61.951,34.512,66.951,11_6_2.csv
2018-07-10T10:43:12.611996,-1.017,-0.382,0.318,8.232,38.963,77.988,11_6_2.csv
2018-07-10T10:43:12.658119,-1.026,-0.288,0.357,-17.561,22.744,65.549,11_6_2.csv
2018-07-10T10:43:12.705245,-1.026,-0.288,0.357,-67.073,-4.756,43.72,11_6_2.csv
2018-07-10T10:43:12.751872,-1.025,-0.531,0.33,-43.537,7.622,23.171,11_6_2.csv
2018-07-10T10:43:12.800001,-1.025,-0.531,0.33,24.451,-5.244,8.841,11_6_2.csv
2018-07-10T10:43:12.852145,-1.205,-0.581,0.215,98.11,1.768,-4.146,11_6_2.csv
2018-07-10T10:43:12.908295,-1.166,-0.584,0.128,121.646,-21.463,-16.341,11_6_2.csv
2018-07-10T10:43:12.959333,-1.166,-0.584,0.128,147.622,-42.683,-40.427,11_6_2.csv
2018-07-10T10:43:13.001446,-1.094,-0.42,-0.04,181.585,-35.854,-74.268,11_6_2.csv
2018-07-10T10:43:13.051584,-1.25,-0.392,-0.061,163.842,-66.341,-72.683,11_6_2.csv
2018-07-10T10:43:13.094699,-1.25,-0.392,-0.061,107.012,-80.427,-71.463,11_6_2.csv
2018-07-10T10:43:13.155869,-1.071,-0.445,-0.089,82.561,-73.72,-77.5,11_6_2.csv
2018-07-10T10:43:13.266170,-0.921,-0.383,-0.144,70.183,-35.732,-107.805,11_6_2.csv
2018-07-10T10:43:13.314300,-0.939,-0.34,-0.06,68.963,-6.341,-104.146,11_6_2.csv
2018-07-10T10:43:13.363435,-0.939,-0.34,-0.06,62.866,14.451,-90.427,11_6_2.csv
2018-07-10T10:43:13.406550,-0.938,-0.304,0.078,77.805,51.768,-55.61,11_6_2.csv
2018-07-10T10:43:13.453682,-1.022,-0.085,0.222,64.207,66.341,-35.183,11_6_2.csv
2018-07-10T10:43:13.513843,-1.022,-0.085,0.222,8.476,70.732,-15.0,11_6_2.csv
2018-07-10T10:43:13.568996,-0.913,-0.08,0.457,-52.439,91.402,34.451,11_6_2.csv
2018-07-10T10:43:13.611109,-1.053,-0.225,0.496,3.11,103.476,68.659,11_6_2.csv
2018-07-10T10:43:13.662252,-1.053,-0.225,0.496,57.195,101.159,94.878,11_6_2.csv
2018-07-10T10:43:13.707372,-1.312,-0.05,0.423,42.378,67.073,93.72,11_6_2.csv
2018-07-10T10:43:13.755506,-1.312,-0.05,0.423,-29.146,30.854,73.415,11_6_2.csv
2018-07-10T10:43:13.821185,-1.107,-0.151,0.399,-110.793,-40.244,24.939,11_6_2.csv
2018-07-10T10:43:13.876836,-0.965,-0.387,0.413,-121.829,-67.073,7.622,11_6_2.csv
2018-07-10T10:43:13.923462,-0.965,-0.387,0.413,-151.281,-101.037,-10.305,11_6_2.csv
2018-07-10T10:43:13.971093,-0.858,-0.718,0.447,-120.366,-120.183,-58.049,11_6_2.csv
2018-07-10T10:43:14.017215,-0.69,-0.853,0.335,-88.049,-100.305,-77.805,11_6_2.csv
2018-07-10T10:43:14.081392,-0.69,-0.853,0.335,-47.927,-72.805,-92.256,11_6_2.csv
2018-07-10T10:43:14.129022,-0.676,-0.781,0.243,-3.841,-43.659,-96.159,11_6_2.csv
2018-07-10T10:43:14.194196,-0.748,-0.766,0.209,14.39,21.28,-70.305,11_6_2.csv
2018-07-10T10:43:14.251850,-0.705,-0.635,0.213,128.11,61.524,-52.561,11_6_2.csv
2018-07-10T10:43:14.299478,-0.705,-0.635,0.213,135.427,65.854,-47.683,11_6_2.csv
2018-07-10T10:43:14.347105,-0.836,-0.554,0.125,99.817,95.854,-38.11,11_6_2.csv
2018-07-10T10:43:14.412780,-0.938,-0.569,0.025,163.415,130.183,-2.988,11_6_2.csv
2018-07-10T10:43:14.478957,-0.938,-0.569,0.025,222.622,141.463,-8.659,11_6_2.csv
2018-07-10T10:43:14.596270,-1.059,-0.134,0.335,190.366,69.939,-57.317,11_6_2.csv
2018-07-10T10:43:14.646408,-1.059,-0.134,0.335,114.573,31.159,-70.549,11_6_2.csv
2018-07-10T10:43:14.689525,-1.055,-0.127,0.324,48.659,10.854,-67.5,11_6_2.csv
2018-07-10T10:43:14.742669,-1.017,-0.194,0.269,-29.085,-0.305,-47.683,11_6_2.csv
2018-07-10T10:43:14.787793,-1.017,-0.194,0.269,-41.646,22.988,-23.415,11_6_2.csv
2018-07-10T10:43:14.861992,-0.97,-0.231,0.283,-29.329,44.695,36.951,11_6_2.csv
2018-07-10T10:43:14.915138,-0.838,-0.222,0.328,5.427,53.841,57.683,11_6_2.csv
2018-07-10T10:43:14.970286,-0.838,-0.222,0.328,22.622,56.768,73.232,11_6_2.csv
2018-07-10T10:43:15.020424,-1.147,-0.211,0.175,-4.817,42.439,69.085,11_6_2.csv
2018-07-10T10:43:15.066547,-1.086,-0.265,0.208,-31.768,22.5,45.854,11_6_2.csv
2018-07-10T10:43:15.131726,-1.086,-0.265,0.208,-42.561,20.427,23.354,11_6_2.csv
2018-07-10T10:43:15.177848,-0.899,-0.323,0.198,14.146,38.415,25.854,11_6_2.csv
2018-07-10T10:43:15.229489,-0.96,-0.323,0.251,99.329,46.646,36.951,11_6_2.csv
2018-07-10T10:43:15.282129,-0.96,-0.323,0.251,134.39,49.39,36.951,11_6_2.csv
2018-07-10T10:43:15.350315,-1.016,-0.083,0.325,-21.28,25.793,6.768,11_6_2.csv
2018-07-10T10:43:15.413483,-1.113,-0.239,0.21,-60.61,14.39,-1.341,11_6_2.csv
2018-07-10T10:43:15.472646,-1.175,-0.422,0.197,3.841,-3.171,-4.695,11_6_2.csv
2018-07-10T10:43:15.538324,-0.984,-0.514,0.217,73.232,-14.024,-9.939,11_6_2.csv
2018-07-10T10:43:15.594474,-0.984,-0.514,0.217,122.073,-18.232,-15.061,11_6_2.csv
2018-07-10T10:43:15.647119,-1.06,-0.396,0.121,136.829,-19.329,-27.5,11_6_2.csv
2018-07-10T10:43:15.704271,-1.214,-0.361,0.052,111.524,-51.402,-45.122,11_6_2.csv
2018-07-10T10:43:15.751399,-1.214,-0.361,0.052,89.939,-65.305,-56.037,11_6_2.csv
2018-07-10T10:43:15.798525,-1.077,-0.308,0.015,61.646,-75.061,-73.232,11_6_2.csv
2018-07-10T10:43:15.844648,-1.077,-0.308,0.015,35.915,-71.28,-90.793,11_6_2.csv
2018-07-10T10:43:15.955947,-0.8,-0.303,0.168,13.171,-42.317,-89.939,11_6_2.csv
2018-07-10T10:43:16.017112,-0.8,-0.303,0.168,43.537,-20.732,-56.22,11_6_2.csv
2018-07-10T10:43:16.069254,-0.858,-0.202,0.143,7.134,29.451,8.841,11_6_2.csv
2018-07-10T10:43:16.112873,-1.088,-0.258,0.131,-25.732,51.585,34.329,11_6_2.csv
2018-07-10T10:43:16.156491,-1.088,-0.258,0.131,-39.329,64.512,51.402,11_6_2.csv
2018-07-10T10:43:16.204621,-0.978,-0.305,0.291,-27.012,74.268,63.11,11_6_2.csv
2018-07-10T10:43:16.250752,-0.978,-0.305,0.291,-6.159,67.195,66.89,11_6_2.csv
2018-07-10T10:43:16.299883,-0.942,-0.163,0.208,1.402,61.524,68.841,11_6_2.csv
2018-07-10T10:43:16.363056,-1.15,-0.274,0.24,-69.207,45.427,61.646,11_6_2.csv
2018-07-10T10:43:16.407680,-1.15,-0.274,0.24,-90.915,29.634,51.829,11_6_2.csv
2018-07-10T10:43:16.452302,-1.025,-0.396,0.299,-64.573,24.451,44.573,11_6_2.csv
2018-07-10T10:43:16.503438,-0.973,-0.266,0.293,-17.134,24.939,31.646,11_6_2.csv
2018-07-10T10:43:16.547561,-0.973,-0.266,0.293,-27.317,14.756,25.183,11_6_2.csv
2018-07-10T10:43:16.595689,-0.993,-0.267,0.279,-44.085,7.195,16.585,11_6_2.csv
2018-07-10T10:43:16.646830,-0.993,-0.267,0.279,-44.634,6.28,11.524,11_6_2.csv
2018-07-10T10:43:16.691950,-1.095,-0.35,0.272,-19.451,8.537,14.756,11_6_2.csv
2018-07-10T10:43:16.736573,-1.095,-0.35,0.272,12.927,4.695,14.573,11_6_2.csv
2018-07-10T10:43:16.783699,-1.184,-0.366,0.249,29.512,7.927,8.72,11_6_2.csv
2018-07-10T10:43:16.843871,-1.049,-0.411,0.212,76.829,-14.695,4.695,11_6_2.csv
2018-07-10T10:43:16.915565,-0.966,-0.405,0.148,118.171,-27.622,-19.695,11_6_2.csv
2018-07-10T10:43:16.965200,-0.966,-0.405,0.148,137.073,-31.951,-15.793,11_6_2.csv
2018-07-10T10:43:17.015838,-1.154,-0.362,0.054,140.366,-45.61,-9.207,11_6_2.csv
2018-07-10T10:43:17.063969,-1.154,-0.362,0.054,111.829,-60.549,-15.732,11_6_2.csv
2018-07-10T10:43:17.111098,-1.052,-0.308,0.012,27.134,-71.463,-66.037,11_6_2.csv
2018-07-10T10:43:17.161234,-0.904,-0.326,0.014,9.695,-64.939,-86.159,11_6_2.csv
2018-07-10T10:43:17.204351,-0.904,-0.326,0.014,5.976,-51.402,-92.744,11_6_2.csv
2018-07-10T10:43:17.360276,-0.933,-0.321,0.164,76.098,37.378,-9.878,11_6_2.csv
2018-07-10T10:43:17.406903,-1.207,-0.11,0.128,66.829,49.939,6.159,11_6_2.csv
2018-07-10T10:43:17.460045,-1.207,-0.11,0.128,5.244,39.878,9.451,11_6_2.csv
2018-07-10T10:43:17.520763,-1.062,-0.161,0.287,-35.854,40.122,20.488,11_6_2.csv
2018-07-10T10:43:17.572403,-0.75,-0.216,0.268,-1.098,43.902,31.89,11_6_2.csv
2018-07-10T10:43:17.626048,-0.75,-0.216,0.268,22.866,59.573,34.878,11_6_2.csv
2018-07-10T10:43:17.677921,-1.025,-0.271,0.264,41.037,64.451,35.366,11_6_2.csv
2018-07-10T10:43:17.719030,-1.038,-0.306,0.286,18.415,35.915,29.451,11_6_2.csv
2018-07-10T10:43:17.766660,-1.038,-0.306,0.286,2.683,42.256,19.634,11_6_2.csv
2018-07-10T10:43:17.813286,-0.964,-0.336,0.302,20.183,41.159,9.878,11_6_2.csv
2018-07-10T10:43:17.859410,-0.964,-0.336,0.302,44.634,34.085,10.244,11_6_2.csv
2018-07-10T10:43:17.907084,-0.984,-0.238,0.278,50.793,26.646,8.659,11_6_2.csv
2018-07-10T10:43:17.966244,-1.004,-0.313,0.243,16.159,11.037,-3.11,11_6_2.csv
2018-07-10T10:43:18.023399,-1.004,-0.313,0.243,29.695,8.537,-1.341,11_6_2.csv
2018-07-10T10:43:18.065513,-1.1,-0.405,0.185,53.232,9.085,2.134,11_6_2.csv
2018-07-10T10:43:18.112642,-1.15,-0.521,0.184,54.146,4.817,0.793,11_6_2.csv
2018-07-10T10:43:18.155757,-1.15,-0.521,0.184,82.866,0.854,0.671,11_6_2.csv
2018-07-10T10:43:18.208846,-1.069,-0.542,0.138,144.39,2.317,2.195,11_6_2.csv
2018-07-10T10:43:18.258980,-1.069,-0.542,0.138,193.11,-10.549,-2.317,11_6_2.csv
2018-07-10T10:43:18.319144,-1.159,-0.313,0.054,135.793,-52.744,-28.476,11_6_2.csv
2018-07-10T10:43:18.361257,-1.097,-0.287,0.042,81.463,-74.085,-43.415,11_6_2.csv
2018-07-10T10:43:18.416908,-1.097,-0.287,0.042,35.0,-84.573,-57.439,11_6_2.csv
2018-07-10T10:43:18.470050,-0.912,-0.335,-0.034,3.598,-85.915,-69.024,11_6_2.csv
2018-07-10T10:43:18.517176,-0.786,-0.388,0.06,-15.366,-52.805,-81.341,11_6_2.csv
2018-07-10T10:43:18.569817,-0.786,-0.388,0.06,12.439,-17.378,-72.073,11_6_2.csv
2018-07-10T10:43:18.610926,-0.756,-0.336,0.175,53.476,3.171,-47.866,11_6_2.csv
2018-07-10T10:43:18.739272,-0.932,-0.237,0.209,52.622,59.39,19.085,11_6_2.csv
2018-07-10T10:43:18.782891,-1.178,-0.197,0.237,12.439,64.207,33.415,11_6_2.csv
2018-07-10T10:43:18.827513,-1.178,-0.197,0.237,-34.39,59.085,42.5,11_6_2.csv
2018-07-10T10:43:18.876146,-0.947,-0.27,0.37,-27.5,44.207,30.305,11_6_2.csv
2018-07-10T10:43:18.932800,-0.951,-0.28,0.231,-4.146,57.5,30.427,11_6_2.csv
2018-07-10T10:43:18.986446,-0.951,-0.28,0.231,13.963,62.256,33.049,11_6_2.csv
2018-07-10T10:43:19.031068,-1.094,-0.349,0.289,13.171,48.659,32.683,11_6_2.csv
2018-07-10T10:43:19.080202,-0.949,-0.348,0.299,52.622,57.622,21.89,11_6_2.csv
2018-07-10T10:43:19.125327,-0.949,-0.348,0.299,83.11,59.024,19.817,11_6_2.csv
2018-07-10T10:43:19.172452,-0.974,-0.206,0.291,81.28,43.354,16.646,11_6_2.csv
2018-07-10T10:43:19.227606,-0.974,-0.206,0.291,52.378,28.415,12.683,11_6_2.csv
2018-07-10T10:43:19.285764,-0.973,-0.249,0.286,27.073,5.671,2.439,11_6_2.csv
2018-07-10T10:43:19.327879,-1.076,-0.286,0.231,33.354,3.232,-6.463,11_6_2.csv
2018-07-10T10:43:19.378015,-1.076,-0.286,0.231,32.988,-1.829,-14.085,11_6_2.csv
2018-07-10T10:43:19.425792,-1.154,-0.394,0.126,22.012,-13.11,-14.817,11_6_2.csv
2018-07-10T10:43:19.473921,-1.154,-0.394,0.126,22.317,-17.012,-13.659,11_6_2.csv
2018-07-10T10:43:19.523558,-1.006,-0.599,0.178,100.976,-4.695,6.463,11_6_2.csv
2018-07-10T10:43:19.571687,-1.026,-0.542,0.105,167.378,-3.049,14.878,11_6_2.csv
2018-07-10T10:43:19.631850,-1.026,-0.542,0.105,194.939,-5.183,8.78,11_6_2.csv
2018-07-10T10:43:19.679476,-1.201,-0.335,0.057,106.585,-62.256,-30.183,11_6_2.csv
2018-07-10T10:43:19.727605,-1.012,-0.306,0.015,36.951,-80.61,-63.293,11_6_2.csv
2018-07-10T10:43:19.774232,-1.012,-0.306,0.015,-14.451,-78.841,-95.61,11_6_2.csv
2018-07-10T10:43:19.828377,-0.885,-0.424,-0.003,-8.049,-62.622,-110.793,11_6_2.csv
2018-07-10T10:43:19.875508,-0.885,-0.424,-0.003,26.28,-41.463,-102.988,11_6_2.csv
2018-07-10T10:43:19.921631,-0.888,-0.332,0.164,44.695,-10.671,-57.256,11_6_2.csv
2018-07-10T10:43:19.970766,-0.817,-0.231,0.194,28.537,-12.378,-36.951,11_6_2.csv
2018-07-10T10:43:20.078057,-0.987,-0.293,0.216,3.415,28.598,-11.098,11_6_2.csv
2018-07-10T10:43:20.126186,-1.025,-0.326,0.285,15.793,59.695,30.976,11_6_2.csv
2018-07-10T10:43:20.178330,-1.025,-0.326,0.285,22.866,67.683,38.72,11_6_2.csv
2018-07-10T10:43:20.235484,-0.842,-0.25,0.291,50.61,70.671,39.451,11_6_2.csv
2018-07-10T10:43:20.281612,-1.085,-0.147,0.205,18.659,66.951,37.866,11_6_2.csv
2018-07-10T10:43:20.329741,-1.085,-0.147,0.205,-36.646,49.756,38.293,11_6_2.csv
2018-07-10T10:43:20.375866,-1.052,-0.326,0.278,-93.293,26.159,35.427,11_6_2.csv
2018-07-10T10:43:20.438051,-1.052,-0.326,0.278,-88.476,32.256,27.927,11_6_2.csv
2018-07-10T10:43:20.495204,-0.981,-0.396,0.347,29.146,41.707,36.28,11_6_2.csv
2018-07-10T10:43:20.554367,-1.005,-0.235,0.364,23.598,31.89,39.451,11_6_2.csv
2018-07-10T10:43:20.595477,-1.005,-0.235,0.364,-2.256,16.22,30.0,11_6_2.csv
2018-07-10T10:43:20.643482,-1.034,-0.316,0.313,8.049,5.061,15.793,11_6_2.csv
2018-07-10T10:43:20.689605,-1.174,-0.311,0.21,7.805,-6.037,7.622,11_6_2.csv
2018-07-10T10:43:20.735733,-1.174,-0.311,0.21,-23.11,-30.671,-14.573,11_6_2.csv
2018-07-10T10:43:20.788876,-1.08,-0.455,0.175,-28.293,-25.244,-29.878,11_6_2.csv
2018-07-10T10:43:20.838011,-1.08,-0.455,0.175,11.829,-21.585,-25.915,11_6_2.csv
2018-07-10T10:43:20.878118,-0.86,-0.499,0.159,68.171,-31.28,-15.427,11_6_2.csv
2018-07-10T10:43:20.929259,-1.047,-0.385,0.105,114.146,-2.866,-27.134,11_6_2.csv
2018-07-10T10:43:20.973377,-1.047,-0.385,0.105,101.037,-18.841,-27.317,11_6_2.csv
2018-07-10T10:43:21.018502,-1.085,-0.372,0.071,86.098,-35.061,-30.366,11_6_2.csv
2018-07-10T10:43:21.076658,-1.085,-0.372,0.071,71.159,-38.537,-43.902,11_6_2.csv
2018-07-10T10:43:21.126795,-0.93,-0.321,0.044,40.0,-32.012,-81.341,11_6_2.csv
2018-07-10T10:43:21.178936,-0.884,-0.286,0.162,37.5,-19.207,-89.146,11_6_2.csv
2018-07-10T10:43:21.221054,-0.884,-0.286,0.162,41.585,-9.512,-80.671,11_6_2.csv
2018-07-10T10:43:21.269180,-0.828,-0.235,0.242,48.902,-2.195,-56.585,11_6_2.csv
2018-07-10T10:43:21.314805,-0.828,-0.235,0.242,48.659,13.476,-24.695,11_6_2.csv
2018-07-10T10:43:21.411066,-1.168,-0.34,0.242,-60.366,40.549,60.854,11_6_2.csv
2018-07-10T10:43:21.453681,-1.168,-0.34,0.242,-56.585,34.695,55.305,11_6_2.csv
2018-07-10T10:43:21.509834,-0.89,-0.39,0.334,1.463,40.671,39.329,11_6_2.csv
2018-07-10T10:43:21.549944,-0.89,-0.39,0.334,63.537,47.622,34.268,11_6_2.csv
2018-07-10T10:43:21.594061,-0.976,-0.113,0.224,61.159,36.28,32.988,11_6_2.csv
2018-07-10T10:43:21.642195,-0.976,-0.113,0.224,-16.159,8.963,25.244,11_6_2.csv
2018-07-10T10:43:21.708375,-1.03,-0.219,0.209,-147.134,-18.72,-2.622,11_6_2.csv
2018-07-10T10:43:21.750490,-0.9,-0.408,0.239,-116.646,-8.659,-1.159,11_6_2.csv
2018-07-10T10:43:21.796613,-0.9,-0.408,0.239,-49.207,6.402,9.512,11_6_2.csv
2018-07-10T10:43:21.846753,-0.901,-0.273,0.27,-12.622,16.098,18.476,11_6_2.csv
2018-07-10T10:43:21.890870,-0.97,-0.364,0.299,-7.012,27.805,24.695,11_6_2.csv
2018-07-10T10:43:21.939004,-0.97,-0.364,0.299,21.463,32.561,27.866,11_6_2.csv
2018-07-10T10:43:21.996157,-1.092,-0.381,0.287,36.524,31.768,32.927,11_6_2.csv
2018-07-10T10:43:22.056323,-1.179,-0.52,0.299,26.28,26.707,28.476,11_6_2.csv
2018-07-10T10:43:22.124172,-1.179,-0.52,0.299,52.683,15.793,25.122,11_6_2.csv
2018-07-10T10:43:22.174306,-1.01,-0.552,0.274,155.61,-6.707,2.195,11_6_2.csv
2018-07-10T10:43:22.219434,-1.134,-0.328,0.176,160.793,-16.524,-15.915,11_6_2.csv
2018-07-10T10:43:22.266558,-1.134,-0.328,0.176,129.207,-46.524,-23.537,11_6_2.csv
2018-07-10T10:43:22.323717,-1.127,-0.265,0.104,80.122,-77.988,-31.098,11_6_2.csv
2018-07-10T10:43:22.376858,-0.926,-0.328,0.001,-25.61,-90.366,-83.11,11_6_2.csv
2018-07-10T10:43:22.425996,-0.926,-0.328,0.001,-41.707,-80.732,-100.0,11_6_2.csv
2018-07-10T10:43:22.472119,-0.746,-0.407,0.024,-21.22,-60.366,-99.268,11_6_2.csv
2018-07-10T10:43:22.516742,-0.746,-0.407,0.024,25.854,-25.671,-80.183,11_6_2.csv
2018-07-10T10:43:22.572393,-0.774,-0.303,0.057,60.61,3.72,-52.317,11_6_2.csv
2018-07-10T10:43:22.619524,-1.086,-0.214,0.08,41.22,39.878,14.695,11_6_2.csv
2018-07-10T10:43:22.677680,-1.086,-0.214,0.08,-9.512,52.927,35.793,11_6_2.csv
2018-07-10T10:43:22.766923,-1.129,-0.328,0.285,-54.39,61.037,39.939,11_6_2.csv
2018-07-10T10:43:22.815555,-0.867,-0.279,0.402,53.598,60.122,40.366,11_6_2.csv
2018-07-10T10:43:22.877222,-1.058,-0.073,0.237,14.207,44.329,35.671,11_6_2.csv
2018-07-10T10:43:22.923350,-1.058,-0.073,0.237,-59.024,21.463,29.573,11_6_2.csv
2018-07-10T10:43:22.977495,-1.033,-0.371,0.318,-60.366,5.183,23.049,11_6_2.csv
2018-07-10T10:43:23.035655,-0.933,-0.424,0.315,2.134,19.512,33.537,11_6_2.csv
2018-07-10T10:43:23.077768,-0.933,-0.424,0.315,38.963,21.951,40.061,11_6_2.csv
2018-07-10T10:43:23.132924,-0.932,-0.323,0.292,25.854,14.39,37.073,11_6_2.csv
2018-07-10T10:43:23.190075,-0.985,-0.48,0.28,19.634,12.195,18.049,11_6_2.csv
2018-07-10T10:43:23.239210,-0.985,-0.48,0.28,51.951,16.646,15.732,11_6_2.csv
2018-07-10T10:43:23.293355,-1.129,-0.526,0.204,79.207,12.012,9.634,11_6_2.csv
2018-07-10T10:43:23.344500,-1.208,-0.611,0.147,116.89,18.232,-7.744,11_6_2.csv
2018-07-10T10:43:23.392130,-1.208,-0.611,0.147,174.207,5.671,-11.768,11_6_2.csv
2018-07-10T10:43:23.440261,-0.936,-0.379,0.046,218.963,-15.427,-32.073,11_6_2.csv
2018-07-10T10:43:23.485885,-0.936,-0.379,0.046,202.744,-9.451,-53.415,11_6_2.csv
2018-07-10T10:43:23.533011,-1.039,-0.417,0.101,170.61,-10.183,-40.854,11_6_2.csv
2018-07-10T10:43:23.586158,-1.093,-0.405,0.037,193.72,-31.707,28.049,11_6_2.csv
2018-07-10T10:43:23.643311,-1.093,-0.405,0.037,141.402,-47.439,10.854,11_6_2.csv
2018-07-10T10:43:23.693948,-0.957,-0.269,-0.067,62.256,-69.634,-32.134,11_6_2.csv
2018-07-10T10:43:23.739069,-0.902,-0.404,-0.025,-39.207,-48.72,-104.146,11_6_2.csv
2018-07-10T10:43:23.788200,-0.902,-0.404,-0.025,-31.402,-24.817,-112.927,11_6_2.csv
2018-07-10T10:43:23.831316,-0.945,-0.401,0.015,1.524,-7.927,-99.634,11_6_2.csv
2018-07-10T10:43:23.886463,-0.945,-0.401,0.015,27.073,15.854,-74.573,11_6_2.csv
2018-07-10T10:43:23.938101,-1.048,-0.2,0.115,34.39,32.866,-49.268,11_6_2.csv
2018-07-10T10:43:23.987232,-1.014,-0.095,0.362,-23.293,55.61,-3.11,11_6_2.csv
2018-07-10T10:43:24.041888,-1.014,-0.095,0.362,-36.89,62.195,16.89,11_6_2.csv
2018-07-10T10:43:24.133637,-0.969,-0.187,0.544,52.622,71.829,64.756,11_6_2.csv
2018-07-10T10:43:24.173744,-1.208,-0.068,0.49,43.963,48.171,79.207,11_6_2.csv
2018-07-10T10:43:24.231904,-1.104,-0.238,0.46,-104.695,-29.39,55.244,11_6_2.csv
2018-07-10T10:43:24.283041,-1.104,-0.238,0.46,-99.695,-46.22,39.085,11_6_2.csv
2018-07-10T10:43:24.329170,-1.021,-0.41,0.474,-107.012,-70.305,20.915,11_6_2.csv
2018-07-10T10:43:24.379303,-1.021,-0.41,0.474,-144.512,-102.622,-0.854,11_6_2.csv
2018-07-10T10:43:24.423427,-0.925,-0.774,0.464,-129.39,-147.683,-90.61,11_6_2.csv
2018-07-10T10:43:24.483589,-0.715,-0.893,0.377,-62.988,-140.671,-114.939,11_6_2.csv
2018-07-10T10:43:24.546761,-0.594,-0.719,0.314,50.793,-107.866,-139.451,11_6_2.csv
2018-07-10T10:43:24.596895,-0.594,-0.719,0.314,13.537,-80.854,-124.939,11_6_2.csv
2018-07-10T10:43:24.642018,-0.46,-0.7,0.268,-16.22,-23.659,-103.72,11_6_2.csv
2018-07-10T10:43:24.691651,-0.46,-0.7,0.268,16.707,51.646,-71.037,11_6_2.csv
2018-07-10T10:43:24.740284,-0.466,-0.579,0.206,64.085,127.195,-32.5,11_6_2.csv
2018-07-10T10:43:24.798439,-0.726,-0.462,-0.047,140.854,187.805,-4.817,11_6_2.csv
2018-07-10T10:43:24.851586,-0.726,-0.462,-0.047,144.634,162.927,7.439,11_6_2.csv
2018-07-10T10:43:24.893698,-1.021,-0.558,0.071,123.781,188.232,12.805,11_6_2.csv
2018-07-10T10:43:24.940826,-1.021,-0.558,0.071,145.732,188.963,5.305,11_6_2.csv
2018-07-10T10:43:24.989456,-1.125,-0.554,0.171,264.695,161.402,-27.012,11_6_2.csv
2018-07-10T10:43:25.033073,-1.216,-0.163,0.334,228.354,122.012,-56.585,11_6_2.csv
2018-07-10T10:43:25.094236,-1.216,-0.163,0.334,164.695,81.768,-75.0,11_6_2.csv
2018-07-10T10:43:25.148882,-1.208,-0.037,0.394,69.939,23.049,-68.232,11_6_2.csv
2018-07-10T10:43:25.204531,-1.114,-0.07,0.31,28.659,3.11,-48.902,11_6_2.csv
2018-07-10T10:43:25.251657,-1.114,-0.07,0.31,-27.5,20.976,-12.927,11_6_2.csv
2018-07-10T10:43:25.298782,-1.074,-0.255,0.249,-47.683,24.024,21.707,11_6_2.csv
2018-07-10T10:43:25.360949,-0.833,-0.252,0.194,-19.39,8.78,44.512,11_6_2.csv
2018-07-10T10:43:25.408075,-0.833,-0.252,0.194,-19.268,14.756,45.366,11_6_2.csv
2018-07-10T10:43:25.534415,-0.96,-0.375,0.116,-101.707,-14.085,40.427,11_6_2.csv
2018-07-10T10:43:25.580037,-0.96,-0.375,0.116,-91.829,-0.732,30.915,11_6_2.csv
2018-07-10T10:43:25.629672,-0.917,-0.469,0.177,15.0,28.963,37.195,11_6_2.csv
2018-07-10T10:43:25.683318,-0.936,-0.342,0.24,35.732,31.098,33.841,11_6_2.csv
2018-07-10T10:43:25.723928,-0.936,-0.342,0.24,29.329,31.768,24.329,11_6_2.csv
2018-07-10T10:43:25.774064,-0.986,-0.348,0.215,23.293,33.659,12.5,11_6_2.csv
2018-07-10T10:43:25.815176,-0.986,-0.348,0.215,25.183,26.951,0.366,11_6_2.csv
2018-07-10T10:43:25.861300,-1.113,-0.376,0.168,37.439,26.646,-5.244,11_6_2.csv
2018-07-10T10:43:25.907427,-1.113,-0.376,0.168,36.707,25.0,-10.122,11_6_2.csv
2018-07-10T10:43:25.952548,-1.114,-0.515,0.25,87.805,22.256,-7.622,11_6_2.csv
2018-07-10T10:43:26.014719,-0.956,-0.474,0.215,163.72,17.622,-2.744,11_6_2.csv
2018-07-10T10:43:26.063849,-0.956,-0.474,0.215,205.122,12.805,-4.573,11_6_2.csv
2018-07-10T10:43:26.109977,-1.161,-0.262,0.159,193.049,-4.268,-5.488,11_6_2.csv
2018-07-10T10:43:26.157104,-1.156,-0.216,0.097,86.341,-70.0,-12.866,11_6_2.csv
2018-07-10T10:43:26.203230,-1.156,-0.216,0.097,16.768,-95.0,-38.963,11_6_2.csv
2018-07-10T10:43:26.251358,-0.923,-0.278,0.03,-40.61,-98.415,-70.488,11_6_2.csv
2018-07-10T10:43:26.303502,-0.923,-0.278,0.03,-57.561,-89.512,-92.805,11_6_2.csv
2018-07-10T10:43:26.362660,-0.753,-0.365,0.127,-0.61,-44.451,-64.634,11_6_2.csv
2018-07-10T10:43:26.411796,-0.793,-0.299,0.148,39.024,-11.098,-27.5,11_6_2.csv
2018-07-10T10:43:26.455914,-0.793,-0.299,0.148,53.963,19.39,8.476,11_6_2.csv
2018-07-10T10:43:26.502041,-1.107,-0.187,0.081,26.037,35.183,31.951,11_6_2.csv
2018-07-10T10:43:26.550170,-1.107,-0.187,0.081,-39.39,34.878,38.232,11_6_2.csv
2018-07-10T10:43:26.598303,-1.141,-0.299,0.147,-105.244,31.585,44.695,11_6_2.csv
2018-07-10T10:43:26.659465,-0.847,-0.317,0.303,-55.549,41.341,45.061,11_6_2.csv
2018-07-10T10:43:26.707596,-0.847,-0.317,0.303,-21.463,59.756,50.061,11_6_2.csv
2018-07-10T10:43:26.760738,-1.051,-0.273,0.281,-11.341,47.561,61.341,11_6_2.csv
2018-07-10T10:43:26.862510,-1.021,-0.317,0.329,-19.512,30.61,38.354,11_6_2.csv
2018-07-10T10:43:26.907129,-0.986,-0.302,0.305,-13.537,21.707,31.28,11_6_2.csv
2018-07-10T10:43:26.966287,-0.938,-0.307,0.293,-30.183,-0.549,11.829,11_6_2.csv
2018-07-10T10:43:27.025445,-0.938,-0.307,0.293,-25.61,3.476,4.573,11_6_2.csv
2018-07-10T10:43:27.071067,-1.039,-0.367,0.285,-1.463,7.5,6.463,11_6_2.csv
2018-07-10T10:43:27.114182,-1.039,-0.367,0.285,28.049,5.549,10.915,11_6_2.csv
2018-07-10T10:43:27.157799,-1.174,-0.371,0.207,11.402,-5.915,-15.976,11_6_2.csv
2018-07-10T10:43:27.209938,-1.116,-0.609,0.189,29.329,-7.683,-17.5,11_6_2.csv
2018-07-10T10:43:27.264083,-1.116,-0.609,0.189,104.024,-15.976,-10.671,11_6_2.csv
2018-07-10T10:43:27.314217,-0.927,-0.432,0.1,167.378,-18.354,-18.537,11_6_2.csv
2018-07-10T10:43:27.360841,-1.072,-0.304,0.079,142.988,-22.134,-37.134,11_6_2.csv
2018-07-10T10:43:27.408970,-1.072,-0.304,0.079,123.049,-38.537,-30.671,11_6_2.csv
2018-07-10T10:43:27.462111,-1.021,-0.295,0.057,96.524,-43.415,-27.561,11_6_2.csv
2018-07-10T10:43:27.502721,-1.021,-0.295,0.057,60.793,-47.317,-34.756,11_6_2.csv
2018-07-10T10:43:27.557366,-0.854,-0.315,0.036,26.28,-49.085,-46.585,11_6_2.csv
2018-07-10T10:43:27.610508,-0.825,-0.353,0.082,15.732,-20.244,-48.354,11_6_2.csv
2018-07-10T10:43:27.656632,-0.825,-0.353,0.082,31.707,-4.756,-36.646,11_6_2.csv
2018-07-10T10:43:27.705763,-1.026,-0.303,0.104,37.805,12.805,-21.463,11_6_2.csv
2018-07-10T10:43:27.750883,-1.026,-0.303,0.104,33.415,30.915,-8.476,11_6_2.csv
2018-07-10T10:43:27.798511,-1.221,-0.185,0.192,-27.134,26.159,-1.22,11_6_2.csv
2018-07-10T10:43:27.869200,-0.814,-0.189,0.331,-39.695,26.951,-1.463,11_6_2.csv
2018-07-10T10:43:27.929360,-0.954,-0.228,0.259,16.159,57.866,26.768,11_6_2.csv
2018-07-10T10:43:27.976987,-0.954,-0.228,0.259,30.976,44.695,38.659,11_6_2.csv
2018-07-10T10:43:28.018599,-1.064,-0.215,0.258,-7.073,33.11,37.5,11_6_2.csv
2018-07-10T10:43:28.062217,-1.064,-0.215,0.258,-33.415,28.171,27.988,11_6_2.csv
2018-07-10T10:43:28.125387,-0.977,-0.324,0.3,30.122,33.78,31.28,11_6_2.csv
2018-07-10T10:43:28.224657,-1.0,-0.206,0.331,18.537,12.5,33.659,11_6_2.csv
2018-07-10T10:43:28.266774,-0.983,-0.24,0.313,-7.378,-2.256,27.988,11_6_2.csv
2018-07-10T10:43:28.313899,-0.983,-0.24,0.313,-11.28,-8.902,21.951,11_6_2.csv
2018-07-10T10:43:28.361030,-1.023,-0.369,0.23,-4.634,-15.854,15.793,11_6_2.csv
2018-07-10T10:43:28.406151,-1.129,-0.518,0.191,13.902,-2.439,2.744,11_6_2.csv
2018-07-10T10:43:28.453283,-1.129,-0.518,0.191,36.037,3.293,0.366,11_6_2.csv
2018-07-10T10:43:28.507427,-1.01,-0.627,0.173,81.768,-1.524,-1.037,11_6_2.csv
2018-07-10T10:43:28.548542,-1.01,-0.627,0.173,138.049,-2.683,-12.073,11_6_2.csv
2018-07-10T10:43:28.594665,-1.09,-0.453,0.056,175.976,0.366,-29.817,11_6_2.csv
2018-07-10T10:43:28.643799,-1.147,-0.307,0.018,132.378,-47.256,-68.72,11_6_2.csv
2018-07-10T10:43:28.687919,-1.147,-0.307,0.018,88.476,-52.927,-94.085,11_6_2.csv
2018-07-10T10:43:28.735047,-1.066,-0.351,0.048,52.5,-49.207,-111.037,11_6_2.csv
2018-07-10T10:43:28.790196,-1.066,-0.351,0.048,40.244,-48.171,-115.488,11_6_2.csv
2018-07-10T10:43:28.844844,-0.954,-0.327,0.21,77.317,-31.037,-93.11,11_6_2.csv
2018-07-10T10:43:28.891471,-0.817,-0.121,0.215,71.037,-51.524,-69.695,11_6_2.csv
2018-07-10T10:43:28.945618,-0.817,-0.121,0.215,40.915,-33.171,-49.39,11_6_2.csv
2018-07-10T10:43:28.984727,-0.87,-0.164,0.149,-5.305,-13.171,-34.878,11_6_2.csv
2018-07-10T10:43:29.033858,-0.87,-0.164,0.149,-45.976,16.341,-5.854,11_6_2.csv
2018-07-10T10:43:29.086000,-1.037,-0.371,0.146,-43.72,54.329,62.805,11_6_2.csv
2018-07-10T10:43:29.141650,-0.893,-0.385,0.333,8.11,83.841,83.415,11_6_2.csv
2018-07-10T10:43:29.203317,-0.893,-0.385,0.333,47.561,93.78,85.244,11_6_2.csv
2018-07-10T10:43:29.250448,-1.006,-0.249,0.269,44.695,82.805,59.817,11_6_2.csv
2018-07-10T10:43:29.297573,-1.112,-0.235,0.298,12.805,58.598,39.085,11_6_2.csv
2018-07-10T10:43:29.343700,-1.112,-0.235,0.298,-24.512,34.817,17.195,11_6_2.csv
2018-07-10T10:43:29.399852,-0.981,-0.335,0.353,-29.329,32.683,5.0,11_6_2.csv
2018-07-10T10:43:29.459015,-1.013,-0.302,0.351,20.915,25.549,16.098,11_6_2.csv
2018-07-10T10:43:29.504136,-1.013,-0.302,0.351,29.268,19.817,22.561,11_6_2.csv
2018-07-10T10:43:29.605409,-0.976,-0.302,0.35,36.463,7.622,18.049,11_6_2.csv
2018-07-10T10:43:29.646518,-1.032,-0.375,0.282,50.915,2.012,16.524,11_6_2.csv
2018-07-10T10:43:29.693645,-1.219,-0.52,0.188,58.476,-2.683,13.354,11_6_2.csv
2018-07-10T10:43:29.736763,-1.219,-0.52,0.188,73.841,-7.805,11.037,11_6_2.csv
2018-07-10T10:43:29.800934,-1.083,-0.575,0.132,117.134,-24.268,5.793,11_6_2.csv
2018-07-10T10:43:29.844055,-1.083,-0.575,0.132,156.159,-40.549,-18.11,11_6_2.csv
2018-07-10T10:43:29.893185,-1.084,-0.379,0.022,137.073,-42.561,-62.317,11_6_2.csv
2018-07-10T10:43:29.940316,-1.095,-0.325,0.01,112.927,-67.012,-68.11,11_6_2.csv
2018-07-10T10:43:29.993458,-1.095,-0.325,0.01,73.841,-64.207,-76.341,11_6_2.csv
2018-07-10T10:43:30.047607,-0.876,-0.346,-0.009,31.402,-60.915,-85.732,11_6_2.csv
2018-07-10T10:43:30.114288,-0.802,-0.405,0.031,31.22,-19.634,-77.988,11_6_2.csv
2018-07-10T10:43:30.157905,-0.802,-0.405,0.031,62.073,10.427,-61.098,11_6_2.csv
2018-07-10T10:43:30.208543,-0.851,-0.326,0.147,77.927,21.707,-43.476,11_6_2.csv
2018-07-10T10:43:30.254167,-0.971,-0.247,0.202,70.061,47.256,-18.659,11_6_2.csv
2018-07-10T10:43:30.301294,-0.971,-0.247,0.202,50.183,58.171,-5.732,11_6_2.csv
2018-07-10T10:43:30.348224,-1.154,-0.22,0.243,11.037,63.78,3.841,11_6_2.csv
2018-07-10T10:43:30.423428,-0.93,-0.287,0.365,-9.207,61.098,11.28,11_6_2.csv
2018-07-10T10:43:30.468549,-0.93,-0.287,0.365,33.902,61.037,17.5,11_6_2.csv
2018-07-10T10:43:30.518685,-0.964,-0.164,0.24,45.427,60.0,23.598,11_6_2.csv
2018-07-10T10:43:30.565815,-0.964,-0.164,0.24,29.024,53.841,25.671,11_6_2.csv
2018-07-10T10:43:30.610937,-1.099,-0.255,0.235,2.683,47.439,22.744,11_6_2.csv
2018-07-10T10:43:30.664581,-0.987,-0.316,0.264,40.549,48.902,24.085,11_6_2.csv
2018-07-10T10:43:30.725243,-0.987,-0.316,0.264,84.817,54.146,30.366,11_6_2.csv
2018-07-10T10:43:30.771368,-0.999,-0.061,0.244,81.098,41.037,29.634,11_6_2.csv
2018-07-10T10:43:30.813980,-0.999,-0.061,0.244,18.902,17.805,25.61,11_6_2.csv
2018-07-10T10:43:30.860103,-1.006,-0.091,0.225,-48.902,-12.866,22.073,11_6_2.csv
2018-07-10T10:43:30.949341,-1.059,-0.228,0.184,-44.634,-18.232,15.915,11_6_2.csv
2018-07-10T10:43:31.014017,-1.165,-0.421,0.135,-23.293,-10.488,14.329,11_6_2.csv
2018-07-10T10:43:31.068166,-1.019,-0.576,0.183,50.671,-5.366,2.378,11_6_2.csv
2018-07-10T10:43:31.110278,-1.019,-0.576,0.183,99.024,-3.232,-8.659,11_6_2.csv
2018-07-10T10:43:31.167435,-0.929,-0.448,0.123,127.378,-2.256,-26.951,11_6_2.csv
2018-07-10T10:43:31.219574,-1.109,-0.403,0.102,116.646,-15.0,-50.915,11_6_2.csv
2018-07-10T10:43:31.266705,-1.109,-0.403,0.102,109.756,-24.756,-54.512,11_6_2.csv
2018-07-10T10:43:31.319847,-1.123,-0.355,0.055,104.451,-35.183,-61.159,11_6_2.csv
2018-07-10T10:43:31.362966,-1.123,-0.355,0.055,89.39,-41.89,-76.28,11_6_2.csv
2018-07-10T10:43:31.406081,-1.057,-0.242,0.075,62.744,-45.793,-95.732,11_6_2.csv
2018-07-10T10:43:31.456219,-1.057,-0.242,0.075,34.451,-51.951,-110.549,11_6_2.csv
2018-07-10T10:43:31.501340,-0.878,-0.23,0.167,35.183,-32.683,-96.646,11_6_2.csv
2018-07-10T10:43:31.548468,-0.809,-0.191,0.215,44.085,-12.927,-63.232,11_6_2.csv
2018-07-10T10:43:31.598605,-0.809,-0.191,0.215,42.256,8.78,-20.915,11_6_2.csv
2018-07-10T10:43:31.643226,-1.048,-0.133,0.161,22.317,32.134,25.671,11_6_2.csv
2018-07-10T10:43:31.689350,-1.048,-0.133,0.161,-27.012,38.537,60.549,11_6_2.csv
2018-07-10T10:43:31.737979,-1.154,-0.259,0.167,-86.098,37.744,81.585,11_6_2.csv
2018-07-10T10:43:31.782097,-0.956,-0.321,0.202,-71.585,29.512,83.293,11_6_2.csv
2018-07-10T10:43:31.865820,-1.026,-0.239,0.192,-45.122,33.963,62.683,11_6_2.csv
2018-07-10T10:43:31.919464,-1.026,-0.239,0.192,-70.0,18.11,52.622,11_6_2.csv
2018-07-10T10:43:31.969598,-0.98,-0.288,0.199,-96.768,9.146,42.988,11_6_2.csv
2018-07-10T10:43:32.017225,-0.98,-0.288,0.199,-100.671,12.317,37.5,11_6_2.csv
2018-07-10T10:43:32.064351,-0.957,-0.36,0.232,-63.537,14.756,36.707,11_6_2.csv
2018-07-10T10:43:32.110475,-0.959,-0.327,0.302,-42.561,14.268,32.927,11_6_2.csv
2018-07-10T10:43:32.157099,-0.959,-0.327,0.302,-33.902,17.744,29.207,11_6_2.csv
2018-07-10T10:43:32.206233,-1.007,-0.321,0.316,-37.988,13.78,24.207,11_6_2.csv
2018-07-10T10:43:32.313020,-1.07,-0.399,0.219,8.415,10.183,-3.902,11_6_2.csv
2018-07-10T10:43:32.361650,-1.174,-0.579,0.23,37.439,10.976,-5.122,11_6_2.csv
2018-07-10T10:43:32.409277,-1.174,-0.579,0.23,90.305,4.634,-7.927,11_6_2.csv
2018-07-10T10:43:32.457907,-1.043,-0.511,0.15,159.024,2.927,-16.89,11_6_2.csv
2018-07-10T10:43:32.505035,-1.232,-0.26,0.053,196.098,-25.488,-43.415,11_6_2.csv
2018-07-10T10:43:32.561185,-1.232,-0.26,0.053,148.72,-53.354,-51.28,11_6_2.csv
2018-07-10T10:43:32.611324,-1.182,-0.241,0.041,89.695,-79.878,-62.988,11_6_2.csv
2018-07-10T10:43:32.664466,-0.934,-0.295,0.057,-8.72,-85.671,-98.72,11_6_2.csv
2018-07-10T10:43:32.709591,-0.934,-0.295,0.057,-46.768,-79.695,-119.146,11_6_2.csv
2018-07-10T10:43:32.766744,-0.768,-0.429,0.125,-76.098,-54.329,-130.122,11_6_2.csv
2018-07-10T10:43:32.814880,-0.768,-0.429,0.125,-74.573,-37.927,-123.293,11_6_2.csv
2018-07-10T10:43:32.867017,-0.625,-0.503,0.15,-8.598,5.305,-60.305,11_6_2.csv
2018-07-10T10:43:32.928184,-0.732,-0.422,0.159,17.622,26.829,-19.817,11_6_2.csv
2018-07-10T10:43:32.970296,-0.732,-0.422,0.159,37.805,45.976,18.78,11_6_2.csv
2018-07-10T10:43:33.022435,-1.037,-0.341,0.19,79.207,66.768,71.402,11_6_2.csv
2018-07-10T10:43:33.067055,-0.887,-0.162,0.347,106.585,83.537,146.159,11_6_2.csv
2018-07-10T10:43:33.127718,-0.887,-0.162,0.347,76.89,103.415,129.024,11_6_2.csv
2018-07-10T10:43:33.185371,-1.156,-0.214,0.264,53.72,129.573,119.329,11_6_2.csv
2018-07-10T10:43:33.235006,-1.224,-0.267,0.244,4.878,49.817,94.512,11_6_2.csv
2018-07-10T10:43:33.281129,-1.224,-0.267,0.244,-56.89,22.317,46.098,11_6_2.csv
2018-07-10T10:43:33.330266,-0.965,-0.384,0.277,-79.634,23.78,-1.22,11_6_2.csv
2018-07-10T10:43:33.377392,-0.965,-0.384,0.277,-51.402,18.902,-17.012,11_6_2.csv
2018-07-10T10:43:33.425526,-0.947,-0.367,0.294,-3.902,13.354,-7.195,11_6_2.csv
2018-07-10T10:43:33.483681,-1.005,-0.254,0.316,45.732,15.427,12.622,11_6_2.csv
2018-07-10T10:43:33.535823,-1.005,-0.254,0.316,57.439,8.293,7.439,11_6_2.csv
2018-07-10T10:43:33.582448,-1.115,-0.149,0.233,71.463,5.976,0.61,11_6_2.csv
2018-07-10T10:43:33.689734,-1.189,-0.265,0.14,94.634,-6.098,9.146,11_6_2.csv
2018-07-10T10:43:33.737361,-1.087,-0.496,0.163,113.659,-12.317,17.073,11_6_2.csv
2018-07-10T10:43:33.782484,-1.087,-0.496,0.163,127.683,-17.195,17.134,11_6_2.csv
2018-07-10T10:43:33.833621,-0.977,-0.483,0.107,133.659,-20.366,-10.915,11_6_2.csv
2018-07-10T10:43:33.878746,-1.126,-0.442,0.023,118.963,-49.329,-22.866,11_6_2.csv
2018-07-10T10:43:33.923866,-1.126,-0.442,0.023,87.988,-65.732,-42.195,11_6_2.csv
2018-07-10T10:43:33.973003,-1.091,-0.427,-0.047,63.293,-68.232,-70.488,11_6_2.csv
2018-07-10T10:43:34.020128,-1.091,-0.427,-0.047,45.244,-68.902,-96.524,11_6_2.csv
2018-07-10T10:43:34.066256,-0.988,-0.413,-0.084,34.573,-59.024,-114.878,11_6_2.csv
2018-07-10T10:43:34.120400,-0.937,-0.405,-0.038,56.28,-18.598,-115.244,11_6_2.csv
2018-07-10T10:43:34.173548,-0.937,-0.405,-0.038,81.159,4.634,-99.878,11_6_2.csv
2018-07-10T10:43:34.219671,-0.947,-0.281,0.025,86.524,19.024,-83.415,11_6_2.csv
2018-07-10T10:43:34.267804,-0.947,-0.281,0.025,68.354,29.756,-67.744,11_6_2.csv
2018-07-10T10:43:34.313929,-0.981,-0.208,0.138,34.573,67.317,-26.707,11_6_2.csv
2018-07-10T10:43:34.360054,-0.967,-0.269,0.313,20.061,81.768,-4.085,11_6_2.csv
2018-07-10T10:43:34.415204,-0.967,-0.269,0.313,37.622,98.11,12.256,11_6_2.csv
2018-07-10T10:43:34.455814,-0.919,-0.329,0.337,71.707,102.5,24.146,11_6_2.csv
2018-07-10T10:43:34.500436,-0.919,-0.329,0.337,93.841,107.683,39.573,11_6_2.csv
2018-07-10T10:43:34.550071,-1.194,-0.25,0.323,116.159,101.829,45.061,11_6_2.csv
2018-07-10T10:43:34.595695,-1.164,-0.17,0.528,-44.634,-6.646,-27.927,11_6_2.csv
2018-07-10T10:43:34.656360,-1.164,-0.17,0.528,-184.939,-85.976,-94.329,11_6_2.csv
2018-07-10T10:43:34.718027,-0.759,-0.612,0.245,42.683,0.549,-21.89,11_6_2.csv
2018-07-10T10:43:34.776186,-0.75,-0.398,0.116,84.695,19.451,-1.28,11_6_2.csv
2018-07-10T10:43:34.828326,-0.75,-0.398,0.116,59.268,35.427,7.988,11_6_2.csv
2018-07-10T10:43:34.877466,-0.849,-0.346,0.219,-33.902,34.451,-7.744,11_6_2.csv
2018-07-10T10:43:34.923587,-0.976,-0.661,0.16,-82.012,26.829,-15.793,11_6_2.csv
2018-07-10T10:43:35.045919,-1.148,-0.724,0.127,99.268,40.427,9.085,11_6_2.csv
2018-07-10T10:43:35.112101,-0.978,-0.443,0.208,167.683,30.854,19.085,11_6_2.csv
2018-07-10T10:43:35.159730,-0.826,-0.35,0.197,131.463,26.22,4.878,11_6_2.csv
2018-07-10T10:43:35.204351,-0.826,-0.35,0.197,71.585,21.768,24.451,11_6_2.csv
2018-07-10T10:43:35.252983,-0.917,-0.588,0.202,57.378,-3.11,39.268,11_6_2.csv
2018-07-10T10:43:35.299106,-0.917,-0.588,0.202,76.28,-15.915,34.329,11_6_2.csv
2018-07-10T10:43:35.357261,-0.905,-0.458,0.179,50.122,-34.451,-6.585,11_6_2.csv
2018-07-10T10:43:35.420431,-0.887,-0.377,0.188,23.476,-34.634,-20.305,11_6_2.csv
2018-07-10T10:43:35.478087,-0.868,-0.376,0.183,21.341,-26.951,-17.927,11_6_2.csv
2018-07-10T10:43:35.532232,-0.868,-0.376,0.183,29.817,-12.012,-10.488,11_6_2.csv
2018-07-10T10:43:35.581368,-0.922,-0.256,0.186,32.622,2.622,-2.805,11_6_2.csv
2018-07-10T10:43:35.626489,-0.922,-0.256,0.186,12.561,7.5,5.183,11_6_2.csv
2018-07-10T10:43:35.673619,-1.094,-0.084,0.069,-50.549,18.232,19.817,11_6_2.csv
2018-07-10T10:43:35.734783,-0.937,-0.513,0.176,-136.463,18.232,40.183,11_6_2.csv
2018-07-10T10:43:35.799525,-0.996,-0.263,0.125,126.342,79.207,57.195,11_6_2.csv
2018-07-10T10:43:35.860529,-0.996,-0.263,0.125,118.902,70.793,37.012,11_6_2.csv
2018-07-10T10:43:35.906652,-1.093,-0.063,0.139,29.39,45.854,14.085,11_6_2.csv
2018-07-10T10:43:35.955787,-1.093,-0.063,0.139,-39.634,34.695,-6.524,11_6_2.csv
2018-07-10T10:43:36.000908,-0.975,-0.271,0.23,34.39,49.329,17.073,11_6_2.csv
2018-07-10T10:43:36.048038,-0.998,-0.096,0.305,55.793,48.354,36.22,11_6_2.csv
2018-07-10T10:43:36.100180,-0.998,-0.096,0.305,41.463,39.756,45.732,11_6_2.csv
2018-07-10T10:43:36.153324,-1.084,-0.074,0.365,0.732,22.988,57.134,11_6_2.csv
2018-07-10T10:43:36.211482,-1.182,-0.301,0.234,-39.146,-16.585,58.11,11_6_2.csv
2018-07-10T10:43:36.257610,-1.182,-0.301,0.234,-6.707,-30.61,14.756,11_6_2.csv
2018-07-10T10:43:36.302731,-1.215,-0.33,0.135,-4.756,-33.049,-18.049,11_6_2.csv
2018-07-10T10:43:36.345348,-1.215,-0.33,0.135,4.695,-40.427,-34.329,11_6_2.csv
2018-07-10T10:43:36.463169,-1.019,-0.396,0.024,128.415,-39.329,-62.439,11_6_2.csv
2018-07-10T10:43:36.510295,-1.019,-0.396,0.024,139.146,-33.049,-79.39,11_6_2.csv
2018-07-10T10:43:36.564445,-1.121,-0.317,-0.004,86.28,-56.768,-92.5,11_6_2.csv
2018-07-10T10:43:36.629619,-0.964,-0.302,0.066,58.415,-50.488,-95.183,11_6_2.csv
2018-07-10T10:43:36.678755,-0.964,-0.302,0.066,36.037,-40.427,-97.256,11_6_2.csv
2018-07-10T10:43:36.725881,-0.825,-0.311,0.183,45.366,-12.622,-80.488,11_6_2.csv
2018-07-10T10:43:36.780605,-0.811,-0.2,0.264,68.476,1.22,-58.537,11_6_2.csv
2018-07-10T10:43:36.827732,-0.811,-0.2,0.264,53.841,7.073,-36.037,11_6_2.csv
2018-07-10T10:43:36.876868,-0.878,-0.179,0.292,-30.183,12.317,-15.976,11_6_2.csv
2018-07-10T10:43:36.927002,-1.169,-0.365,0.25,-15.305,43.902,47.561,11_6_2.csv
2018-07-10T10:43:36.977639,-1.169,-0.365,0.25,27.561,53.537,78.232,11_6_2.csv
2018-07-10T10:43:37.032289,-1.161,-0.188,0.281,39.085,43.78,87.012,11_6_2.csv
2018-07-10T10:43:37.104485,-0.917,-0.043,0.262,-17.988,31.89,57.622,11_6_2.csv
2018-07-10T10:43:37.161641,-0.917,-0.043,0.262,-57.866,28.049,48.537,11_6_2.csv
2018-07-10T10:43:37.215786,-1.004,-0.181,0.187,-92.439,6.463,55.793,11_6_2.csv
2018-07-10T10:43:37.266922,-0.979,-0.3,0.204,-86.22,3.72,54.268,11_6_2.csv
2018-07-10T10:43:37.312544,-0.979,-0.3,0.204,-69.329,18.171,56.402,11_6_2.csv
2018-07-10T10:43:37.361177,-0.94,-0.321,0.282,-35.854,29.024,59.451,11_6_2.csv
2018-07-10T10:43:37.406297,-0.94,-0.321,0.282,-5.244,33.598,59.939,11_6_2.csv
2018-07-10T10:43:37.454431,-0.948,-0.256,0.317,-14.024,23.841,33.415,11_6_2.csv
2018-07-10T10:43:37.505567,-0.983,-0.264,0.292,-13.659,14.756,11.707,11_6_2.csv
2018-07-10T10:43:37.548688,-0.983,-0.264,0.292,-25.61,8.171,-1.707,11_6_2.csv
2018-07-10T10:43:37.594811,-1.088,-0.46,0.251,-15.061,6.22,-5.366,11_6_2.csv
2018-07-10T10:43:37.642942,-1.088,-0.46,0.251,28.049,14.573,-8.232,11_6_2.csv
2018-07-10T10:43:37.688063,-1.195,-0.587,0.229,74.878,20.366,-15.854,11_6_2.csv
2018-07-10T10:43:37.765271,-1.204,-0.526,0.085,170.305,-3.72,-47.5,11_6_2.csv
2018-07-10T10:43:37.836965,-1.347,-0.274,-0.097,208.232,-42.988,-92.622,11_6_2.csv
2018-07-10T10:43:37.914674,-1.106,-0.221,-0.008,77.866,-80.793,-139.878,11_6_2.csv
2018-07-10T10:43:37.952776,-1.106,-0.221,-0.008,17.622,-75.549,-152.439,11_6_2.csv
2018-07-10T10:43:38.002916,-0.841,-0.371,0.03,15.0,-53.841,-140.61,11_6_2.csv
2018-07-10T10:43:38.053050,-0.723,-0.306,0.165,86.159,-9.817,-73.415,11_6_2.csv
2018-07-10T10:43:38.097173,-0.723,-0.306,0.165,90.732,10.915,-38.293,11_6_2.csv
2018-07-10T10:43:38.151317,-0.728,-0.23,0.226,83.171,24.39,-8.476,11_6_2.csv
2018-07-10T10:43:38.203462,-0.728,-0.23,0.226,66.037,34.451,17.988,11_6_2.csv
2018-07-10T10:43:38.249585,-0.877,-0.205,0.191,38.11,41.402,36.585,11_6_2.csv
2018-07-10T10:43:38.298722,-1.354,-0.264,0.134,-38.049,82.012,72.317,11_6_2.csv
2018-07-10T10:43:38.343843,-1.354,-0.264,0.134,-73.354,50.915,67.683,11_6_2.csv
2018-07-10T10:43:38.390974,-0.98,-0.344,0.24,-94.634,32.805,45.0,11_6_2.csv
2018-07-10T10:43:38.444116,-0.98,-0.344,0.24,-63.171,57.561,37.866,11_6_2.csv
2018-07-10T10:43:38.502275,-0.952,-0.377,0.211,31.768,65.244,72.134,11_6_2.csv
2018-07-10T10:43:38.550404,-1.078,-0.331,0.259,9.573,57.561,75.61,11_6_2.csv
2018-07-10T10:43:38.594528,-1.078,-0.331,0.259,-22.561,46.707,58.171,11_6_2.csv
2018-07-10T10:43:38.645664,-0.992,-0.43,0.292,-13.78,46.402,41.646,11_6_2.csv
2018-07-10T10:43:38.699814,-1.008,-0.322,0.295,43.902,29.512,19.512,11_6_2.csv
2018-07-10T10:43:38.755964,-1.008,-0.322,0.295,34.146,11.098,7.866,11_6_2.csv
2018-07-10T10:43:38.800088,-0.978,-0.251,0.275,21.524,-1.707,-5.549,11_6_2.csv
2018-07-10T10:43:38.848216,-0.978,-0.251,0.275,19.817,-12.195,-23.659,11_6_2.csv
2018-07-10T10:43:38.892339,-1.08,-0.349,0.215,9.268,-19.329,-30.122,11_6_2.csv
2018-07-10T10:43:38.939465,-1.181,-0.472,0.096,24.39,-17.134,-16.341,11_6_2.csv
2018-07-10T10:43:38.994616,-1.181,-0.472,0.096,50.0,-13.232,-9.024,11_6_2.csv
2018-07-10T10:43:39.047759,-1.004,-0.561,0.108,106.342,-6.646,-1.037,11_6_2.csv
2018-07-10T10:43:39.129982,-1.0,-0.383,0.072,188.354,-8.841,-7.744,11_6_2.csv
2018-07-10T10:43:39.175105,-1.0,-0.383,0.072,167.988,-13.171,-13.598,11_6_2.csv
2018-07-10T10:43:39.227248,-1.158,-0.375,0.04,110.427,-52.5,-17.012,11_6_2.csv
2018-07-10T10:43:39.270866,-0.992,-0.34,0.001,72.988,-58.11,-37.5,11_6_2.csv
2018-07-10T10:43:39.320502,-0.992,-0.34,0.001,36.28,-59.512,-60.793,11_6_2.csv
2018-07-10T10:43:39.375653,-0.875,-0.345,0.027,27.134,-49.268,-74.329,11_6_2.csv
2018-07-10T10:43:39.421776,-0.896,-0.333,0.11,36.951,-23.293,-63.537,11_6_2.csv
2018-07-10T10:43:39.470406,-0.896,-0.333,0.11,48.049,-4.817,-44.878,11_6_2.csv
2018-07-10T10:43:39.517031,-1.021,-0.201,0.135,63.11,10.061,-27.622,11_6_2.csv
2018-07-10T10:43:39.563655,-1.021,-0.201,0.135,47.256,16.037,-15.549,11_6_2.csv
2018-07-10T10:43:39.618301,-1.086,-0.096,0.182,-45.488,41.341,13.171,11_6_2.csv
2018-07-10T10:43:39.676459,-0.89,-0.25,0.335,-28.049,57.012,29.451,11_6_2.csv
2018-07-10T10:43:39.721579,-0.89,-0.25,0.335,31.159,73.598,41.951,11_6_2.csv
2018-07-10T10:43:39.769373,-0.942,-0.188,0.281,68.354,84.146,52.134,11_6_2.csv
2018-07-10T10:43:39.813491,-0.942,-0.188,0.281,72.317,81.524,53.659,11_6_2.csv
2018-07-10T10:43:39.860622,-1.125,-0.113,0.277,13.232,42.683,22.866,11_6_2.csv
2018-07-10T10:43:39.917775,-1.003,-0.158,0.333,-1.402,34.207,10.915,11_6_2.csv
2018-07-10T10:43:39.974434,-1.003,-0.158,0.333,6.707,31.585,9.512,11_6_2.csv
2018-07-10T10:43:40.019002,-1.001,-0.123,0.33,-10.061,6.22,20.0,11_6_2.csv
2018-07-10T10:43:40.067135,-1.006,-0.175,0.332,-6.22,1.341,23.78,11_6_2.csv
2018-07-10T10:43:40.111253,-1.006,-0.175,0.332,4.939,-8.598,22.744,11_6_2.csv
2018-07-10T10:43:40.158882,-0.981,-0.229,0.303,8.78,-12.073,18.232,11_6_2.csv
2018-07-10T10:43:40.220046,-0.981,-0.229,0.303,12.134,-9.024,16.89,11_6_2.csv
2018-07-10T10:43:40.267171,-1.173,-0.425,0.223,59.207,-7.439,9.512,11_6_2.csv
2018-07-10T10:43:40.313796,-1.095,-0.441,0.164,75.427,-23.415,-19.573,11_6_2.csv
2018-07-10T10:43:40.361925,-1.095,-0.441,0.164,80.488,-23.78,-48.476,11_6_2.csv
2018-07-10T10:43:40.408048,-0.962,-0.448,0.086,87.744,-30.061,-58.354,11_6_2.csv
2018-07-10T10:43:40.493276,-1.074,-0.45,0.014,120.671,-24.329,-46.037,11_6_2.csv
2018-07-10T10:43:40.546074,-1.123,-0.391,-0.048,97.378,-31.646,-61.159,11_6_2.csv
2018-07-10T10:43:40.604230,-1.123,-0.391,-0.048,73.415,-30.488,-82.561,11_6_2.csv
2018-07-10T10:43:40.661885,-0.98,-0.401,0.04,66.28,-15.671,-100.793,11_6_2.csv
2018-07-10T10:43:40.711017,-0.961,-0.332,0.153,149.146,19.512,-103.11,11_6_2.csv
2018-07-10T10:43:40.753136,-0.961,-0.332,0.153,187.927,21.707,-86.951,11_6_2.csv
2018-07-10T10:43:40.801265,-0.931,-0.058,0.2,170.549,17.012,-67.561,11_6_2.csv
2018-07-10T10:43:40.854410,-0.931,-0.058,0.2,98.78,14.39,-48.78,11_6_2.csv
2018-07-10T10:43:40.911562,-0.976,-0.078,0.186,-45.183,24.756,-0.61,11_6_2.csv
2018-07-10T10:43:40.954683,-1.158,-0.253,0.157,-79.939,30.0,23.841,11_6_2.csv
2018-07-10T10:43:41.003814,-1.158,-0.253,0.157,-95.915,27.622,37.073,11_6_2.csv
2018-07-10T10:43:41.050944,-0.901,-0.318,0.294,-72.073,34.695,39.268,11_6_2.csv
2018-07-10T10:43:41.096065,-0.901,-0.318,0.294,-18.049,48.537,42.561,11_6_2.csv
2018-07-10T10:43:41.164252,-0.965,-0.193,0.217,20.549,49.268,54.146,11_6_2.csv
2018-07-10T10:43:41.224415,-1.073,-0.164,0.208,-45.0,28.232,44.024,11_6_2.csv
2018-07-10T10:43:41.273549,-0.962,-0.342,0.229,-90.671,21.646,19.085,11_6_2.csv
2018-07-10T10:43:41.314660,-0.962,-0.342,0.229,-48.11,25.488,23.049,11_6_2.csv
2018-07-10T10:43:41.379840,-0.995,-0.26,0.272,-18.049,26.768,32.378,11_6_2.csv
2018-07-10T10:43:41.427470,-1.006,-0.287,0.313,-39.878,17.744,28.963,11_6_2.csv
2018-07-10T10:43:41.483122,-1.006,-0.287,0.313,-23.902,17.378,29.573,11_6_2.csv
2018-07-10T10:43:41.531754,-1.069,-0.301,0.278,9.634,11.646,28.415,11_6_2.csv
2018-07-10T10:43:41.579383,-1.069,-0.301,0.278,14.817,6.89,21.646,11_6_2.csv
2018-07-10T10:43:41.627012,-1.199,-0.382,0.219,1.463,2.866,12.744,11_6_2.csv
2018-07-10T10:43:41.674640,-1.053,-0.524,0.211,42.195,-15.793,-3.598,11_6_2.csv
2018-07-10T10:43:41.720262,-1.053,-0.524,0.211,87.622,-22.195,-16.402,11_6_2.csv
2018-07-10T10:43:41.771900,-0.992,-0.402,0.129,119.085,-22.927,-33.598,11_6_2.csv
2018-07-10T10:43:41.906882,-1.178,-0.335,0.086,91.159,-52.073,-54.756,11_6_2.csv
2018-07-10T10:43:41.954012,-1.036,-0.313,0.146,56.829,-56.098,-77.744,11_6_2.csv
2018-07-10T10:43:42.002141,-0.924,-0.264,0.155,54.817,-56.463,-82.378,11_6_2.csv
2018-07-10T10:43:42.048268,-0.924,-0.264,0.155,48.354,-57.988,-77.744,11_6_2.csv
2018-07-10T10:43:42.112442,-0.83,-0.215,0.166,20.61,-36.341,-47.927,11_6_2.csv
2018-07-10T10:43:42.187648,-0.918,-0.218,0.123,1.707,-23.293,-23.354,11_6_2.csv
2018-07-10T10:43:42.236781,-1.117,-0.21,0.108,-44.207,17.805,21.89,11_6_2.csv
2018-07-10T10:43:42.282907,-1.117,-0.21,0.108,-72.744,24.329,36.341,11_6_2.csv
2018-07-10T10:43:42.330033,-0.91,-0.257,0.299,-69.451,38.78,50.732,11_6_2.csv
2018-07-10T10:43:42.376161,-0.91,-0.257,0.299,-32.805,55.366,62.622,11_6_2.csv
2018-07-10T10:43:42.423287,-0.941,-0.167,0.274,-8.11,62.561,72.195,11_6_2.csv
2018-07-10T10:43:42.477436,-1.119,-0.193,0.263,-54.939,46.646,72.866,11_6_2.csv
2018-07-10T10:43:42.532583,-1.119,-0.193,0.263,-92.317,25.183,59.756,11_6_2.csv
2018-07-10T10:43:42.583723,-1.015,-0.355,0.281,-84.878,25.061,50.427,11_6_2.csv
2018-07-10T10:43:42.627840,-1.015,-0.355,0.281,-54.39,23.963,45.427,11_6_2.csv
2018-07-10T10:43:42.676974,-0.962,-0.306,0.297,-38.171,14.268,33.78,11_6_2.csv
2018-07-10T10:43:42.722094,-0.943,-0.333,0.317,-47.866,11.829,26.707,11_6_2.csv
2018-07-10T10:43:42.785269,-0.943,-0.333,0.317,-37.012,10.671,21.768,11_6_2.csv
2018-07-10T10:43:42.835403,-1.046,-0.415,0.298,7.622,8.537,12.805,11_6_2.csv
2018-07-10T10:43:42.876518,-1.196,-0.514,0.254,18.598,15.244,4.939,11_6_2.csv
2018-07-10T10:43:42.923644,-1.196,-0.514,0.254,42.805,9.512,-2.988,11_6_2.csv
2018-07-10T10:43:42.972780,-1.081,-0.594,0.213,88.72,-1.402,-12.5,11_6_2.csv
2018-07-10T10:43:43.018904,-1.081,-0.594,0.213,149.39,-10.671,-30.122,11_6_2.csv
2018-07-10T10:43:43.076061,-1.144,-0.387,0.069,190.732,-31.28,-69.39,11_6_2.csv
2018-07-10T10:43:43.126196,-1.27,-0.257,0.026,162.561,-55.427,-74.512,11_6_2.csv
2018-07-10T10:43:43.222458,-1.041,-0.262,0.032,70.366,-81.037,-81.463,11_6_2.csv
2018-07-10T10:43:43.268586,-1.041,-0.262,0.032,32.439,-77.866,-85.793,11_6_2.csv
2018-07-10T10:43:43.313706,-0.843,-0.295,0.04,15.305,-71.402,-87.317,11_6_2.csv
2018-07-10T10:43:43.361841,-0.782,-0.318,0.143,22.5,-31.463,-63.841,11_6_2.csv
2018-07-10T10:43:43.414982,-0.782,-0.318,0.143,36.829,-6.585,-38.415,11_6_2.csv
2018-07-10T10:43:43.476150,-0.866,-0.279,0.249,37.195,34.085,8.963,11_6_2.csv
2018-07-10T10:43:43.524279,-1.083,-0.461,0.549,-22.073,43.293,14.207,11_6_2.csv
2018-07-10T10:43:43.569406,-1.083,-0.461,0.549,-88.902,20.793,-8.659,11_6_2.csv
2018-07-10T10:43:43.611517,-1.032,-1.219,0.94,-48.841,-0.854,-35.915,11_6_2.csv
2018-07-10T10:43:43.659650,-1.032,-1.219,0.94,39.024,-27.622,-75.427,11_6_2.csv
2018-07-10T10:43:43.717805,-1.196,-1.606,1.001,63.232,-65.61,-153.781,11_6_2.csv
2018-07-10T10:43:43.769446,-1.221,-1.228,0.53,56.707,-126.22,-349.024,11_6_2.csv
2018-07-10T10:43:43.813644,-1.221,-1.228,0.53,69.146,-156.159,-409.146,11_6_2.csv
2018-07-10T10:43:43.878821,-0.163,-0.07,0.138,117.256,-129.939,-381.707,11_6_2.csv
2018-07-10T10:43:43.922941,0.067,-0.171,0.155,69.512,21.463,-295.671,11_6_2.csv
2018-07-10T10:43:43.973078,0.067,-0.171,0.155,74.634,39.756,-260.244,11_6_2.csv
2018-07-10T10:43:44.026222,0.037,-0.127,0.368,61.28,91.707,-228.11,11_6_2.csv
2018-07-10T10:43:44.083878,0.261,0.173,0.722,2.988,65.427,-174.085,11_6_2.csv
2018-07-10T10:43:44.127498,0.261,0.173,0.722,-57.195,60.183,-144.268,11_6_2.csv
2018-07-10T10:43:44.174626,0.412,0.05,0.845,-112.134,45.366,-92.744,11_6_2.csv
2018-07-10T10:43:44.220752,0.412,0.05,0.845,-100.366,10.183,-45.061,11_6_2.csv
2018-07-10T10:43:44.271891,0.5,-0.453,0.782,-87.073,-2.866,-11.159,11_6_2.csv
2018-07-10T10:43:44.322026,0.491,-0.839,0.942,-39.329,5.305,9.085,11_6_2.csv
2018-07-10T10:43:44.376674,0.491,-0.839,0.942,-29.756,28.415,-12.927,11_6_2.csv
2018-07-10T10:43:44.432325,0.396,-0.474,0.834,-56.22,16.646,-45.366,11_6_2.csv
2018-07-10T10:43:44.476445,0.396,-0.474,0.834,-137.317,25.122,-50.061,11_6_2.csv
2018-07-10T10:43:44.578723,0.376,-0.529,0.875,-96.768,38.537,-45.122,11_6_2.csv
2018-07-10T10:43:44.626854,0.376,-0.529,0.875,-100.793,76.768,-45.061,11_6_2.csv
2018-07-10T10:43:44.687017,0.192,-0.546,0.787,-30.244,103.963,-20.549,11_6_2.csv
2018-07-10T10:43:44.740161,0.135,-0.389,0.766,11.768,112.378,-22.073,11_6_2.csv
2018-07-10T10:43:44.787289,0.135,-0.389,0.766,-11.159,123.415,-5.61,11_6_2.csv
2018-07-10T10:43:44.833414,-0.097,-0.545,0.866,28.354,145.61,32.683,11_6_2.csv
2018-07-10T10:43:44.877535,-0.097,-0.545,0.866,93.78,140.793,57.012,11_6_2.csv
2018-07-10T10:43:44.926668,-0.473,-0.39,0.939,-5.549,116.159,37.012,11_6_2.csv
2018-07-10T10:43:44.981317,-0.727,-0.416,0.869,-38.841,135.488,31.341,11_6_2.csv
2018-07-10T10:43:45.034963,-0.727,-0.416,0.869,-13.049,83.78,35.122,11_6_2.csv
2018-07-10T10:43:45.079585,-0.705,-0.362,0.687,-100.976,75.366,30.793,11_6_2.csv
2018-07-10T10:43:45.128218,-0.86,-0.436,0.672,1.829,88.598,77.256,11_6_2.csv
2018-07-10T10:43:45.173340,-0.86,-0.436,0.672,-0.427,105.854,82.195,11_6_2.csv
2018-07-10T10:43:45.227486,-0.96,-0.305,0.622,-25.976,92.683,73.537,11_6_2.csv
2018-07-10T10:43:45.284140,-0.96,-0.305,0.622,-52.805,63.11,54.451,11_6_2.csv
2018-07-10T10:43:45.329764,-0.932,-0.48,0.533,-53.963,71.829,75.488,11_6_2.csv
2018-07-10T10:43:45.377394,-0.874,-0.458,0.45,16.951,60.0,68.902,11_6_2.csv
2018-07-10T10:43:45.424020,-0.874,-0.458,0.45,-10.793,64.878,49.268,11_6_2.csv
2018-07-10T10:43:45.469141,-0.877,-0.469,0.389,-54.878,69.268,36.037,11_6_2.csv
2018-07-10T10:43:45.519280,-0.877,-0.469,0.389,-31.463,72.683,38.354,11_6_2.csv
2018-07-10T10:43:45.574932,-1.116,-0.533,0.334,43.78,62.683,45.244,11_6_2.csv
2018-07-10T10:43:45.626570,-1.13,-0.437,0.293,25.793,35.915,36.098,11_6_2.csv
2018-07-10T10:43:45.676203,-1.13,-0.437,0.293,14.573,-11.037,3.171,11_6_2.csv
2018-07-10T10:43:45.725334,-0.907,-0.462,0.237,8.963,-29.939,-36.341,11_6_2.csv
2018-07-10T10:43:45.773463,-1.051,-0.575,0.164,90.915,-27.012,-32.744,11_6_2.csv
2018-07-10T10:43:45.816578,-1.051,-0.575,0.164,142.683,-16.159,-20.183,11_6_2.csv
2018-07-10T10:43:45.944660,-1.032,-0.322,0.178,76.646,-55.976,-63.78,11_6_2.csv
2018-07-10T10:43:46.008332,-1.032,-0.322,0.178,48.232,-61.098,-75.061,11_6_2.csv
2018-07-10T10:43:46.048442,-0.888,-0.32,0.185,47.561,-53.841,-73.598,11_6_2.csv
2018-07-10T10:43:46.104595,-0.886,-0.254,0.151,42.195,-33.11,-45.732,11_6_2.csv
2018-07-10T10:43:46.141196,-0.886,-0.254,0.151,15.244,-15.061,-25.915,11_6_2.csv
2018-07-10T10:43:46.205872,-1.057,-0.227,0.102,-10.122,5.488,-7.5,11_6_2.csv
2018-07-10T10:43:46.260022,-0.935,-0.276,0.187,-64.329,36.22,26.037,11_6_2.csv
2018-07-10T10:43:46.313164,-0.935,-0.276,0.187,-47.134,53.293,46.829,11_6_2.csv
2018-07-10T10:43:46.361298,-0.823,-0.237,0.242,-8.354,64.451,59.634,11_6_2.csv
2018-07-10T10:43:46.409427,-0.823,-0.237,0.242,-0.854,74.756,66.037,11_6_2.csv
2018-07-10T10:43:46.453552,-1.067,-0.149,0.103,-124.451,40.732,64.512,11_6_2.csv
2018-07-10T10:43:46.501680,-1.018,-0.447,0.193,-165.976,31.707,52.134,11_6_2.csv
2018-07-10T10:43:46.563851,-1.018,-0.447,0.193,-117.012,39.512,42.256,11_6_2.csv
2018-07-10T10:43:46.631030,-1.001,-0.394,0.249,16.098,45.732,33.841,11_6_2.csv
2018-07-10T10:43:46.677657,-1.011,-0.209,0.281,-24.39,28.354,21.341,11_6_2.csv
2018-07-10T10:43:46.722276,-1.011,-0.209,0.281,-58.659,28.11,9.39,11_6_2.csv
2018-07-10T10:43:46.766896,-1.072,-0.399,0.345,-29.756,29.939,7.195,11_6_2.csv
2018-07-10T10:43:46.813520,-1.285,-0.267,0.265,53.841,11.585,3.963,11_6_2.csv
2018-07-10T10:43:46.883710,-1.285,-0.267,0.265,27.012,-15.549,-6.646,11_6_2.csv
2018-07-10T10:43:46.922815,-1.134,-0.229,0.14,-36.89,-70.976,-30.793,11_6_2.csv
2018-07-10T10:43:46.968942,-1.134,-0.229,0.14,-78.598,-97.195,-62.439,11_6_2.csv
2018-07-10T10:43:47.019076,-0.883,-0.432,0.133,-9.634,-54.451,-79.024,11_6_2.csv
2018-07-10T10:43:47.064202,-1.114,-0.447,0.178,47.683,-45.854,-56.28,11_6_2.csv
2018-07-10T10:43:47.110326,-1.114,-0.447,0.178,83.293,-49.695,-38.841,11_6_2.csv
2018-07-10T10:43:47.162969,-1.085,-0.296,0.253,81.402,-51.524,-40.854,11_6_2.csv
2018-07-10T10:43:47.224634,-0.933,-0.23,0.271,22.256,-76.037,-58.171,11_6_2.csv
2018-07-10T10:43:47.308357,-0.744,-0.249,0.227,-19.451,-79.085,-30.549,11_6_2.csv
2018-07-10T10:43:47.363505,-0.744,-0.249,0.227,-28.659,-65.61,-12.256,11_6_2.csv
2018-07-10T10:43:47.409129,-0.69,-0.239,0.11,-41.037,-47.744,7.195,11_6_2.csv
2018-07-10T10:43:47.458261,-0.969,-0.295,-0.044,-61.707,10.0,36.707,11_6_2.csv
2018-07-10T10:43:47.515918,-0.969,-0.295,-0.044,-113.963,43.78,70.793,11_6_2.csv
2018-07-10T10:43:47.563043,-1.293,-0.492,-0.101,-154.695,48.598,107.622,11_6_2.csv
2018-07-10T10:43:47.611172,-1.293,-0.492,-0.101,-152.683,52.317,121.585,11_6_2.csv
2018-07-10T10:43:47.661807,-1.096,-0.588,0.181,43.72,106.037,106.22,11_6_2.csv
2018-07-10T10:43:47.704922,-1.122,-0.207,0.183,71.829,95.488,93.293,11_6_2.csv
2018-07-10T10:43:47.751549,-1.122,-0.207,0.183,4.268,65.732,72.683,11_6_2.csv
2018-07-10T10:43:47.806697,-1.016,-0.144,0.221,-96.707,32.805,40.854,11_6_2.csv
2018-07-10T10:43:47.846808,-1.016,-0.144,0.221,-160.305,11.89,9.634,11_6_2.csv
2018-07-10T10:43:47.893934,-0.95,-0.441,0.198,-180.0,-9.939,-3.537,11_6_2.csv
2018-07-10T10:43:47.940062,-0.909,-0.39,0.244,-110.854,-25.0,-2.317,11_6_2.csv
2018-07-10T10:43:47.991199,-0.909,-0.39,0.244,-90.0,-24.39,-10.122,11_6_2.csv
2018-07-10T10:43:48.036324,-0.956,-0.348,0.281,-67.866,-3.171,-20.183,11_6_2.csv
2018-07-10T10:43:48.091474,-0.956,-0.348,0.281,-22.256,13.598,-18.841,11_6_2.csv
2018-07-10T10:43:48.140610,-1.128,-0.258,0.229,-0.793,-1.037,-20.793,11_6_2.csv
2018-07-10T10:43:48.189741,-1.343,-0.352,0.21,-27.073,-4.817,-23.72,11_6_2.csv
2018-07-10T10:43:48.236368,-1.343,-0.352,0.21,-14.817,-35.61,-26.341,11_6_2.csv
2018-07-10T10:43:48.280989,-1.15,-0.292,0.076,17.988,-67.195,-47.012,11_6_2.csv
2018-07-10T10:43:48.329121,-1.15,-0.292,0.076,25.793,-74.512,-80.793,11_6_2.csv
2018-07-10T10:43:48.392290,-0.999,-0.212,-0.097,-95.244,-105.305,-141.524,11_6_2.csv
2018-07-10T10:43:48.459473,-0.804,-0.493,0.188,-67.378,-69.329,-122.683,11_6_2.csv
2018-07-10T10:43:48.501586,-0.804,-0.493,0.188,22.256,-35.793,-71.159,11_6_2.csv
2018-07-10T10:43:48.548715,-0.795,-0.415,0.253,77.256,-13.049,-7.378,11_6_2.csv
2018-07-10T10:43:48.594838,-0.768,-0.278,0.292,51.402,-13.171,9.878,11_6_2.csv
2018-07-10T10:43:48.706138,-0.884,-0.306,0.223,-23.232,-0.61,61.585,11_6_2.csv
2018-07-10T10:43:48.760286,-1.086,-0.321,0.076,-56.341,-3.415,81.768,11_6_2.csv
2018-07-10T10:43:48.818442,-1.086,-0.321,0.076,-102.134,-7.744,94.939,11_6_2.csv
2018-07-10T10:43:48.861562,-1.227,-0.459,-0.007,-158.171,1.22,102.195,11_6_2.csv
2018-07-10T10:43:48.909690,-0.963,-0.493,0.123,-102.866,-8.963,73.902,11_6_2.csv
2018-07-10T10:43:48.957825,-0.963,-0.493,0.123,-44.085,22.805,44.878,11_6_2.csv
2018-07-10T10:43:49.003948,-0.979,-0.218,0.044,-52.988,15.671,22.073,11_6_2.csv
2018-07-10T10:43:49.058098,-0.979,-0.218,0.044,-103.659,-6.646,12.561,11_6_2.csv
2018-07-10T10:43:49.125278,-0.825,-0.269,0.101,-154.146,2.927,6.341,11_6_2.csv
2018-07-10T10:43:49.172409,-0.871,-0.413,0.16,-111.524,15.671,20.671,11_6_2.csv
2018-07-10T10:43:49.220538,-0.871,-0.413,0.16,-62.134,30.61,37.073,11_6_2.csv
2018-07-10T10:43:49.265664,-0.981,-0.334,0.233,-42.622,32.439,33.049,11_6_2.csv
2018-07-10T10:43:49.313792,-1.108,-0.278,0.246,-45.061,34.573,19.695,11_6_2.csv
2018-07-10T10:43:49.366940,-1.108,-0.278,0.246,-51.341,23.598,8.049,11_6_2.csv
2018-07-10T10:43:49.408050,-1.194,-0.259,0.184,-67.195,-1.463,-4.634,11_6_2.csv
2018-07-10T10:43:49.453674,-1.194,-0.259,0.184,-90.366,-12.439,-16.524,11_6_2.csv
2018-07-10T10:43:49.502306,-1.161,-0.406,0.217,-93.415,-21.402,-20.854,11_6_2.csv
2018-07-10T10:43:49.547427,-1.161,-0.406,0.217,-55.122,-41.768,-20.854,11_6_2.csv
2018-07-10T10:43:49.595557,-0.96,-0.317,0.192,3.841,-55.244,-49.268,11_6_2.csv
2018-07-10T10:43:49.652710,-1.043,-0.371,0.182,1.341,-57.073,-50.915,11_6_2.csv
2018-07-10T10:43:49.710868,-1.13,-0.342,0.124,76.463,-58.902,-16.159,11_6_2.csv
2018-07-10T10:43:49.756492,-1.13,-0.342,0.124,54.268,-60.366,-18.11,11_6_2.csv
2018-07-10T10:43:49.803119,-1.001,-0.279,0.091,32.317,-60.0,-32.683,11_6_2.csv
2018-07-10T10:43:49.847239,-1.001,-0.279,0.091,23.659,-62.988,-45.976,11_6_2.csv
2018-07-10T10:43:49.914422,-0.823,-0.195,0.164,-40.305,-52.134,-51.585,11_6_2.csv
2018-07-10T10:43:50.033744,-1.072,-0.188,0.057,-77.195,-12.561,26.159,11_6_2.csv
2018-07-10T10:43:50.082883,-1.072,-0.188,0.057,-123.537,8.659,67.988,11_6_2.csv
2018-07-10T10:43:50.124995,-1.211,-0.421,0.076,-163.171,3.78,101.646,11_6_2.csv
2018-07-10T10:43:50.177139,-1.211,-0.421,0.076,-139.878,-16.768,105.549,11_6_2.csv
2018-07-10T10:43:50.222260,-0.91,-0.372,0.138,-74.573,8.598,80.732,11_6_2.csv
2018-07-10T10:43:50.270392,-0.91,-0.372,0.138,-26.768,35.549,56.585,11_6_2.csv
2018-07-10T10:43:50.327544,-1.045,-0.161,0.065,-107.256,-6.89,43.476,11_6_2.csv
2018-07-10T10:43:50.378686,-0.903,-0.315,0.145,-155.305,-5.122,36.951,11_6_2.csv
2018-07-10T10:43:50.423807,-0.903,-0.315,0.145,-143.232,3.354,39.329,11_6_2.csv
2018-07-10T10:43:50.477956,-0.945,-0.356,0.163,-62.256,13.659,43.72,11_6_2.csv
2018-07-10T10:43:50.524080,-0.995,-0.302,0.209,-88.537,14.024,32.683,11_6_2.csv
2018-07-10T10:43:50.579232,-0.995,-0.302,0.209,-89.573,14.146,22.256,11_6_2.csv
2018-07-10T10:43:50.640396,-1.022,-0.38,0.304,4.451,26.402,17.561,11_6_2.csv
2018-07-10T10:43:50.692540,-1.172,-0.257,0.221,4.329,11.768,2.988,11_6_2.csv
2018-07-10T10:43:50.739666,-1.172,-0.257,0.221,-27.561,3.72,-13.293,11_6_2.csv
2018-07-10T10:43:50.786797,-1.162,-0.468,0.252,-35.061,-11.341,-19.146,11_6_2.csv
2018-07-10T10:43:50.832922,-1.162,-0.468,0.252,12.134,-37.439,-22.927,11_6_2.csv
2018-07-10T10:43:50.877045,-0.955,-0.401,0.175,88.415,-32.012,-64.451,11_6_2.csv
2018-07-10T10:43:50.928182,-1.188,-0.361,0.166,101.463,-28.841,-61.951,11_6_2.csv
2018-07-10T10:43:50.971800,-1.188,-0.361,0.166,120.061,-50.549,-48.72,11_6_2.csv
2018-07-10T10:43:51.017423,-1.108,-0.294,0.141,110.732,-66.768,-46.524,11_6_2.csv
2018-07-10T10:43:51.068261,-1.108,-0.294,0.141,77.561,-72.866,-60.732,11_6_2.csv
2018-07-10T10:43:51.130931,-0.908,-0.234,0.123,-5.61,-78.049,-73.11,11_6_2.csv
2018-07-10T10:43:51.174550,-0.753,-0.283,0.118,-12.378,-68.841,-62.805,11_6_2.csv
2018-07-10T10:43:51.233209,-0.753,-0.283,0.118,-10.366,-43.415,-40.244,11_6_2.csv
2018-07-10T10:43:51.282841,-0.868,-0.283,0.083,1.28,13.537,19.329,11_6_2.csv
2018-07-10T10:43:51.329471,-1.198,-0.253,0.03,-26.098,42.561,49.512,11_6_2.csv
2018-07-10T10:43:51.443270,-1.01,-0.29,0.191,-46.524,40.244,62.317,11_6_2.csv
2018-07-10T10:43:51.487889,-0.939,-0.208,0.152,-37.073,55.183,50.427,11_6_2.csv
2018-07-10T10:43:51.537020,-0.939,-0.208,0.152,-44.634,53.049,43.902,11_6_2.csv
2018-07-10T10:43:51.590664,-1.076,-0.272,0.179,-73.049,40.427,44.207,11_6_2.csv
2018-07-10T10:43:51.644808,-0.997,-0.363,0.213,-67.927,39.512,40.671,11_6_2.csv
2018-07-10T10:43:51.688926,-0.997,-0.363,0.213,-34.573,39.573,37.683,11_6_2.csv
2018-07-10T10:43:51.745775,-0.961,-0.26,0.23,-21.89,31.402,30.915,11_6_2.csv
2018-07-10T10:43:51.785882,-0.961,-0.26,0.23,-37.683,22.378,18.415,11_6_2.csv
2018-07-10T10:43:51.833014,-0.972,-0.284,0.24,-55.0,16.28,6.341,11_6_2.csv
2018-07-10T10:43:51.890166,-1.025,-0.34,0.24,-33.902,8.293,-1.524,11_6_2.csv
2018-07-10T10:43:51.938952,-1.025,-0.34,0.24,-15.305,8.902,-2.5,11_6_2.csv
2018-07-10T10:43:51.986078,-1.135,-0.323,0.208,-11.098,3.232,-7.622,11_6_2.csv
2018-07-10T10:43:52.033209,-1.135,-0.323,0.208,-17.012,-3.354,-15.122,11_6_2.csv
2018-07-10T10:43:52.078329,-1.223,-0.391,0.187,-10.854,-9.573,-18.78,11_6_2.csv
2018-07-10T10:43:52.146516,-1.121,-0.283,0.091,22.012,-53.659,-48.232,11_6_2.csv
2018-07-10T10:43:52.197653,-1.121,-0.283,0.091,5.915,-59.634,-78.902,11_6_2.csv
2018-07-10T10:43:52.258821,-1.179,-0.316,0.062,-4.085,-71.037,-87.5,11_6_2.csv
2018-07-10T10:43:52.301437,-0.985,-0.356,0.196,38.963,-63.841,-68.659,11_6_2.csv
2018-07-10T10:43:52.356086,-0.985,-0.356,0.196,70.61,-55.671,-51.341,11_6_2.csv
2018-07-10T10:43:52.396193,-0.792,-0.267,0.267,55.671,-55.793,-42.378,11_6_2.csv
2018-07-10T10:43:52.443822,-0.719,-0.419,0.304,3.78,-52.683,-13.354,11_6_2.csv
2018-07-10T10:43:52.490447,-0.719,-0.419,0.304,0.427,-43.841,8.78,11_6_2.csv
2018-07-10T10:43:52.541584,-0.729,-0.496,0.267,3.537,-32.378,19.146,11_6_2.csv
2018-07-10T10:43:52.595227,-0.729,-0.496,0.267,6.037,-18.049,24.451,11_6_2.csv
2018-07-10T10:43:52.644360,-0.831,-0.424,0.211,15.061,19.39,40.244,11_6_2.csv
2018-07-10T10:43:52.690986,-1.138,-0.274,0.086,5.793,34.573,52.988,11_6_2.csv
2018-07-10T10:43:52.803290,-1.054,-0.241,0.149,-81.098,17.378,41.707,11_6_2.csv
2018-07-10T10:43:52.871976,-0.961,-0.174,0.14,-68.354,27.744,35.366,11_6_2.csv
2018-07-10T10:43:52.923616,-0.961,-0.174,0.14,-76.768,23.659,31.707,11_6_2.csv
2018-07-10T10:43:52.969742,-1.017,-0.23,0.167,-94.207,21.768,42.988,11_6_2.csv
2018-07-10T10:43:53.018875,-0.947,-0.264,0.177,-78.841,26.707,48.72,11_6_2.csv
2018-07-10T10:43:53.064500,-0.947,-0.264,0.177,-78.293,28.232,46.159,11_6_2.csv
2018-07-10T10:43:53.111127,-0.967,-0.277,0.19,-108.598,28.476,43.232,11_6_2.csv
2018-07-10T10:43:53.165775,-0.945,-0.434,0.282,-126.037,29.634,45.793,11_6_2.csv
2018-07-10T10:43:53.221426,-0.945,-0.434,0.282,-57.195,49.39,56.951,11_6_2.csv
2018-07-10T10:43:53.266548,-1.088,-0.458,0.393,-6.463,52.866,54.39,11_6_2.csv
2018-07-10T10:43:53.317687,-1.088,-0.458,0.393,50.976,35.549,43.841,11_6_2.csv
2018-07-10T10:43:53.380861,-1.354,-0.107,0.19,-58.841,-32.378,-23.659,11_6_2.csv
2018-07-10T10:43:53.423976,-1.211,-0.355,0.135,-173.781,-75.366,-70.0,11_6_2.csv
2018-07-10T10:43:53.482130,-1.211,-0.355,0.135,-156.402,-82.683,-104.207,11_6_2.csv
2018-07-10T10:43:53.532264,-0.939,-0.536,0.184,87.134,-39.146,-109.573,11_6_2.csv
2018-07-10T10:43:53.579892,-1.06,-0.247,0.203,134.024,-29.268,-85.305,11_6_2.csv
2018-07-10T10:43:53.628525,-1.06,-0.247,0.203,132.744,-36.341,-53.415,11_6_2.csv
2018-07-10T10:43:53.673647,-1.058,-0.18,0.213,99.268,-50.793,-30.854,11_6_2.csv
2018-07-10T10:43:53.723280,-1.058,-0.18,0.213,51.22,-62.195,-27.561,11_6_2.csv
2018-07-10T10:43:53.772412,-0.934,-0.235,0.215,-17.317,-67.988,-28.963,11_6_2.csv
2018-07-10T10:43:53.813521,-0.775,-0.262,0.191,-27.195,-62.988,-19.939,11_6_2.csv
2018-07-10T10:43:53.860146,-0.775,-0.262,0.191,-32.805,-46.524,-7.988,11_6_2.csv
2018-07-10T10:43:53.909279,-0.777,-0.279,0.11,-36.89,-23.78,7.866,11_6_2.csv
2018-07-10T10:43:53.954400,-0.777,-0.279,0.11,-29.939,6.463,33.476,11_6_2.csv
2018-07-10T10:43:54.002533,-1.083,-0.275,0.011,-30.366,32.683,57.561,11_6_2.csv
2018-07-10T10:43:54.054673,-1.238,-0.488,0.078,-74.39,62.439,111.463,11_6_2.csv
2018-07-10T10:43:54.173998,-0.999,-0.089,0.239,-8.11,61.037,63.293,11_6_2.csv
2018-07-10T10:43:54.235165,-1.065,-0.043,0.121,-151.524,42.317,15.488,11_6_2.csv
2018-07-10T10:43:54.284302,-1.065,-0.043,0.121,-212.195,11.22,-8.659,11_6_2.csv
2018-07-10T10:43:54.329422,-0.971,-0.368,0.133,-185.732,-6.585,-12.988,11_6_2.csv
2018-07-10T10:43:54.377052,-0.845,-0.284,0.194,-131.89,-6.159,-11.28,11_6_2.csv
2018-07-10T10:43:54.428692,-0.845,-0.284,0.194,-122.378,0.427,-8.171,11_6_2.csv
2018-07-10T10:43:54.471809,-0.941,-0.289,0.205,-94.268,12.256,-0.183,11_6_2.csv
2018-07-10T10:43:54.516933,-0.941,-0.289,0.205,-67.805,14.939,7.012,11_6_2.csv
2018-07-10T10:43:54.566064,-1.023,-0.276,0.214,-69.695,7.988,3.171,11_6_2.csv
2018-07-10T10:43:54.610187,-1.023,-0.276,0.214,-81.829,11.098,-7.256,11_6_2.csv
2018-07-10T10:43:54.659319,-1.063,-0.354,0.237,-36.585,21.463,-10.305,11_6_2.csv
2018-07-10T10:43:54.709956,-1.301,-0.39,0.294,-17.866,24.39,-4.634,11_6_2.csv
2018-07-10T10:43:54.754074,-1.301,-0.39,0.294,-3.598,8.78,1.402,11_6_2.csv
2018-07-10T10:43:54.798192,-1.161,-0.282,0.189,0.061,-48.415,-7.317,11_6_2.csv
2018-07-10T10:43:54.847324,-1.161,-0.282,0.189,-19.634,-81.585,-46.951,11_6_2.csv
2018-07-10T10:43:54.892945,-1.038,-0.253,0.064,-45.0,-75.183,-93.841,11_6_2.csv
2018-07-10T10:43:54.940573,-1.031,-0.456,0.161,-17.256,-91.524,-94.573,11_6_2.csv
2018-07-10T10:43:54.998226,-1.031,-0.456,0.161,24.756,-71.829,-78.293,11_6_2.csv
2018-07-10T10:43:55.053376,-0.995,-0.392,0.247,19.268,-61.707,-74.878,11_6_2.csv
2018-07-10T10:43:55.098497,-0.828,-0.377,0.207,-3.841,-62.622,-68.902,11_6_2.csv
2018-07-10T10:43:55.142619,-0.828,-0.377,0.207,4.268,-63.232,-49.817,11_6_2.csv
2018-07-10T10:43:55.188743,-0.647,-0.316,0.204,-1.22,-52.378,-30.915,11_6_2.csv
2018-07-10T10:43:55.241889,-0.647,-0.316,0.204,-15.366,-33.11,-12.927,11_6_2.csv
2018-07-10T10:43:55.297037,-0.687,-0.333,0.166,-10.183,18.171,65.732,11_6_2.csv
2018-07-10T10:43:55.345751,-1.21,-0.368,0.067,0.732,52.988,126.951,11_6_2.csv
2018-07-10T10:43:55.391875,-1.21,-0.368,0.067,-4.207,67.5,169.512,11_6_2.csv
2018-07-10T10:43:55.484126,-1.286,-0.318,0.225,-34.268,49.024,115.976,11_6_2.csv
2018-07-10T10:43:55.539276,-1.07,-0.211,0.078,-80.061,11.402,54.268,11_6_2.csv
2018-07-10T10:43:55.586904,-1.023,-0.226,0.007,-137.622,-21.524,42.256,11_6_2.csv
2018-07-10T10:43:55.638541,-1.023,-0.226,0.007,-218.232,-46.463,22.073,11_6_2.csv
2018-07-10T10:43:55.689679,-0.838,-0.436,0.025,-259.085,-55.671,2.927,11_6_2.csv
2018-07-10T10:43:55.735801,-0.838,-0.436,0.025,-227.5,-39.512,3.171,11_6_2.csv
2018-07-10T10:43:55.783429,-0.835,-0.495,0.108,-82.561,7.561,33.171,11_6_2.csv
2018-07-10T10:43:55.829052,-0.943,-0.364,0.253,-46.159,24.451,37.5,11_6_2.csv
2018-07-10T10:43:55.875176,-0.943,-0.364,0.253,-33.963,35.0,31.707,11_6_2.csv
2018-07-10T10:43:55.932334,-1.052,-0.337,0.299,-26.341,42.683,24.268,11_6_2.csv
2018-07-10T10:43:55.988484,-1.163,-0.377,0.299,7.378,36.402,12.378,11_6_2.csv
2018-07-10T10:43:56.036618,-1.163,-0.377,0.299,29.512,37.439,7.256,11_6_2.csv
2018-07-10T10:43:56.083744,-1.289,-0.314,0.427,51.646,25.793,4.329,11_6_2.csv
2018-07-10T10:43:56.124859,-1.289,-0.314,0.427,46.402,-27.195,-7.073,11_6_2.csv
2018-07-10T10:43:56.176997,-0.954,-0.229,0.263,-10.854,-67.866,-31.463,11_6_2.csv
2018-07-10T10:43:56.232150,-0.969,-0.452,0.151,14.268,-67.256,-57.5,11_6_2.csv
2018-07-10T10:43:56.286294,-0.969,-0.452,0.151,64.939,-57.317,-29.024,11_6_2.csv
2018-07-10T10:43:56.331420,-1.105,-0.445,0.142,105.122,-53.354,-5.732,11_6_2.csv
2018-07-10T10:43:56.378546,-1.105,-0.445,0.142,114.39,-51.22,-5.732,11_6_2.csv
2018-07-10T10:43:56.422668,-1.046,-0.204,0.13,39.634,-60.976,-45.915,11_6_2.csv
2018-07-10T10:43:56.478819,-0.92,-0.06,0.151,-34.695,-86.646,-69.878,11_6_2.csv
2018-07-10T10:43:56.525446,-0.92,-0.06,0.151,-107.866,-96.22,-83.72,11_6_2.csv
2018-07-10T10:43:56.578591,-0.775,-0.285,0.133,-127.256,-81.585,-85.366,11_6_2.csv
2018-07-10T10:43:56.625720,-0.971,-0.383,0.147,-30.0,-8.598,-9.817,11_6_2.csv
2018-07-10T10:43:56.675353,-0.971,-0.383,0.147,2.5,34.756,51.341,11_6_2.csv
2018-07-10T10:43:56.719972,-1.067,-0.344,0.133,3.476,54.878,84.878,11_6_2.csv
2018-07-10T10:43:56.767098,-1.067,-0.344,0.133,7.622,73.963,90.793,11_6_2.csv
2018-07-10T10:43:56.850822,-0.887,-0.323,0.183,53.293,96.646,65.061,11_6_2.csv
2018-07-10T10:43:56.908475,-1.064,-0.185,0.187,-1.829,68.537,37.683,11_6_2.csv
2018-07-10T10:43:56.953098,-1.02,-0.262,0.256,-67.317,46.951,16.707,11_6_2.csv
2018-07-10T10:43:57.001226,-1.02,-0.262,0.256,-86.463,47.561,5.305,11_6_2.csv
2018-07-10T10:43:57.047356,-0.979,-0.377,0.385,-55.305,48.293,8.232,11_6_2.csv
2018-07-10T10:43:57.094481,-0.979,-0.377,0.385,-24.207,36.159,15.61,11_6_2.csv
2018-07-10T10:43:57.146625,-1.011,-0.286,0.417,-25.183,13.354,10.915,11_6_2.csv
2018-07-10T10:43:57.208791,-1.079,-0.279,0.319,-25.183,-9.939,-5.854,11_6_2.csv
2018-07-10T10:43:57.256421,-1.079,-0.279,0.319,-24.939,-26.159,-24.268,11_6_2.csv
2018-07-10T10:43:57.303546,-1.152,-0.315,0.212,-26.037,-40.122,-36.707,11_6_2.csv
2018-07-10T10:43:57.348745,-1.24,-0.41,0.2,-34.695,-42.5,-31.768,11_6_2.csv
2018-07-10T10:43:57.393865,-1.24,-0.41,0.2,-37.744,-46.037,-25.122,11_6_2.csv
2018-07-10T10:43:57.453028,-0.982,-0.459,0.125,18.78,-45.793,-33.659,11_6_2.csv
2018-07-10T10:43:57.508180,-0.935,-0.247,0.073,114.756,-30.488,-40.427,11_6_2.csv
2018-07-10T10:43:57.547286,-0.935,-0.247,0.073,114.756,-30.488,-40.427,11_6_2.csv
2018-07-10T10:43:57.602433,-1.0,-0.228,0.151,82.317,-40.061,-5.305,11_6_2.csv
2018-07-10T10:43:57.644047,-1.0,-0.228,0.151,38.293,-45.549,4.634,11_6_2.csv
2018-07-10T10:43:57.693178,-0.897,-0.224,0.206,-21.098,-50.488,-6.28,11_6_2.csv
2018-07-10T10:43:57.752839,-0.791,-0.383,0.278,-95.0,-36.524,-37.256,11_6_2.csv
2018-07-10T10:43:57.818517,-0.791,-0.383,0.278,-55.0,-20.976,-26.768,11_6_2.csv
2018-07-10T10:43:57.875171,-0.852,-0.323,0.301,11.89,-3.72,0.427,11_6_2.csv
2018-07-10T10:43:57.941353,-0.866,-0.194,0.205,3.049,6.22,10.427,11_6_2.csv
2018-07-10T10:43:57.985472,-0.866,-0.194,0.205,-23.415,18.415,27.073,11_6_2.csv
2018-07-10T10:43:58.031599,-1.312,-0.292,0.03,-53.598,51.341,85.488,11_6_2.csv
2018-07-10T10:43:58.092763,-1.223,-0.401,0.08,-81.768,17.561,81.402,11_6_2.csv
2018-07-10T10:43:58.140897,-1.223,-0.401,0.08,-71.585,10.915,45.549,11_6_2.csv
2018-07-10T10:43:58.252200,-0.939,-0.214,0.149,-87.744,12.378,48.963,11_6_2.csv
2018-07-10T10:43:58.304339,-0.939,-0.214,0.149,-148.781,-3.232,68.902,11_6_2.csv
2018-07-10T10:43:58.348461,-0.981,-0.427,0.125,-191.524,-18.293,68.232,11_6_2.csv
2018-07-10T10:43:58.394584,-0.933,-0.55,0.2,-140.122,1.22,26.829,11_6_2.csv
2018-07-10T10:43:58.446224,-0.933,-0.55,0.2,-73.171,12.866,10.671,11_6_2.csv
2018-07-10T10:43:58.501873,-0.917,-0.436,0.232,-23.171,20.488,1.707,11_6_2.csv
2018-07-10T10:43:58.548498,-0.917,-0.436,0.232,0.793,34.695,-7.866,11_6_2.csv
2018-07-10T10:43:58.598130,-1.016,-0.349,0.255,31.28,39.634,-24.39,11_6_2.csv
2018-07-10T10:43:58.660797,-1.264,-0.243,0.207,22.683,25.0,-30.549,11_6_2.csv
2018-07-10T10:43:58.706921,-1.264,-0.243,0.207,-0.915,13.11,-33.659,11_6_2.csv
2018-07-10T10:43:58.762570,-1.38,-0.204,0.309,0.183,-55.976,-42.622,11_6_2.csv
2018-07-10T10:43:58.814207,-1.004,-0.13,0.223,-33.902,-108.171,-65.122,11_6_2.csv
2018-07-10T10:43:58.861333,-1.004,-0.13,0.223,-95.244,-117.378,-82.622,11_6_2.csv
2018-07-10T10:43:58.909966,-0.909,-0.435,0.148,-91.707,-114.573,-82.561,11_6_2.csv
2018-07-10T10:43:58.961103,-0.905,-0.501,0.193,29.085,-73.354,-5.732,11_6_2.csv
2018-07-10T10:43:59.002217,-0.905,-0.501,0.193,57.927,-48.293,20.122,11_6_2.csv
2018-07-10T10:43:59.060372,-0.986,-0.25,0.224,58.72,-31.646,22.195,11_6_2.csv
2018-07-10T10:43:59.130564,-0.851,-0.178,0.133,-99.817,-84.207,5.427,11_6_2.csv
2018-07-10T10:43:59.176189,-0.851,-0.178,0.133,-159.329,-72.683,-9.39,11_6_2.csv
2018-07-10T10:43:59.222816,-0.766,-0.501,0.146,-121.098,-59.024,-10.427,11_6_2.csv
2018-07-10T10:43:59.270445,-0.766,-0.501,0.146,-35.0,-23.963,19.024,11_6_2.csv
2018-07-10T10:43:59.316070,-1.022,-0.381,0.054,48.78,37.134,65.61,11_6_2.csv
2018-07-10T10:43:59.387266,-1.166,-0.335,0.032,-5.366,59.695,77.683,11_6_2.csv
2018-07-10T10:43:59.438403,-0.849,-0.361,0.212,6.28,68.476,58.232,11_6_2.csv
2018-07-10T10:43:59.485531,-0.849,-0.361,0.212,29.756,93.171,41.159,11_6_2.csv
2018-07-10T10:43:59.576779,-1.073,-0.164,0.167,-31.402,56.402,24.939,11_6_2.csv
2018-07-10T10:43:59.625912,-1.066,-0.205,0.254,-104.817,29.207,9.39,11_6_2.csv
2018-07-10T10:43:59.676048,-1.066,-0.205,0.254,-132.195,22.866,0.244,11_6_2.csv
2018-07-10T10:43:59.730193,-0.976,-0.32,0.255,-72.622,18.049,8.598,11_6_2.csv
2018-07-10T10:43:59.788348,-0.971,-0.223,0.215,-69.329,12.439,14.146,11_6_2.csv
2018-07-10T10:43:59.829959,-0.971,-0.223,0.215,-82.073,5.793,10.671,11_6_2.csv
2018-07-10T10:43:59.898142,-0.996,-0.286,0.257,-65.244,-0.976,-1.829,11_6_2.csv
2018-07-10T10:43:59.937747,-1.091,-0.268,0.233,-44.573,-6.28,-2.317,11_6_2.csv
2018-07-10T10:43:59.993897,-1.091,-0.268,0.233,-53.11,-16.707,-5.366,11_6_2.csv
2018-07-10T10:44:00.051050,-1.258,-0.355,0.213,-71.037,-37.683,-5.0,11_6_2.csv
2018-07-10T10:44:00.111712,-1.025,-0.352,0.202,-34.939,-64.268,-22.439,11_6_2.csv
2018-07-10T10:44:00.160342,-1.025,-0.352,0.202,-1.707,-55.488,-56.463,11_6_2.csv
2018-07-10T10:44:00.211980,-1.062,-0.232,0.095,-6.646,-69.451,-71.585,11_6_2.csv
2018-07-10T10:44:00.252087,-1.016,-0.293,0.17,-5.549,-76.707,-51.463,11_6_2.csv
2018-07-10T10:44:00.298712,-1.016,-0.293,0.17,-5.183,-72.561,-32.744,11_6_2.csv
2018-07-10T10:44:00.355363,-0.873,-0.264,0.198,-7.561,-60.854,-23.537,11_6_2.csv
2018-07-10T10:44:00.410513,-0.899,-0.243,0.204,-17.805,-46.098,-6.22,11_6_2.csv
2018-07-10T10:44:00.456636,-0.899,-0.243,0.204,-28.476,-47.561,7.927,11_6_2.csv
2018-07-10T10:44:00.501761,-0.864,-0.246,0.146,-51.341,-43.963,16.829,11_6_2.csv
2018-07-10T10:44:00.547885,-0.864,-0.246,0.146,-73.232,-33.598,22.988,11_6_2.csv
2018-07-10T10:44:00.599026,-0.963,-0.312,0.049,-75.793,-15.305,35.0,11_6_2.csv
2018-07-10T10:44:00.663199,-1.228,-0.412,-0.023,-92.561,25.732,85.122,11_6_2.csv
2018-07-10T10:44:00.705316,-1.228,-0.412,-0.023,-98.476,21.341,99.085,11_6_2.csv
2018-07-10T10:44:00.750436,-0.975,-0.393,0.141,-57.195,22.5,83.78,11_6_2.csv
2018-07-10T10:44:00.799571,-0.975,-0.393,0.141,-23.841,42.256,51.22,11_6_2.csv
2018-07-10T10:44:00.844693,-1.021,-0.193,0.133,-84.695,18.659,17.683,11_6_2.csv
2018-07-10T10:44:00.945968,-0.93,-0.264,0.188,-134.085,1.098,4.817,11_6_2.csv
2018-07-10T10:44:00.999114,-0.911,-0.333,0.211,-104.024,9.024,8.232,11_6_2.csv
2018-07-10T10:44:01.052256,-0.953,-0.271,0.239,-80.671,9.451,13.476,11_6_2.csv
2018-07-10T10:44:01.098384,-0.953,-0.271,0.239,-90.305,9.451,11.89,11_6_2.csv
2018-07-10T10:44:01.164561,-0.997,-0.348,0.248,-87.805,11.463,10.244,11_6_2.csv
2018-07-10T10:44:01.204670,-0.997,-0.348,0.248,-55.183,14.695,8.902,11_6_2.csv
2018-07-10T10:44:01.261825,-1.041,-0.395,0.291,26.28,29.146,8.537,11_6_2.csv
2018-07-10T10:44:01.333020,-1.239,-0.394,0.256,46.463,23.232,10.976,11_6_2.csv
2018-07-10T10:44:01.375133,-1.213,-0.459,0.274,79.878,-9.878,11.646,11_6_2.csv
2018-07-10T10:44:01.427776,-1.213,-0.459,0.274,122.805,-37.317,-1.402,11_6_2.csv
2018-07-10T10:44:01.474400,-1.179,-0.178,0.091,117.805,-65.61,-30.854,11_6_2.csv
2018-07-10T10:44:01.518518,-1.179,-0.178,0.091,51.829,-93.841,-64.756,11_6_2.csv
2018-07-10T10:44:01.565644,-1.235,-0.21,0.022,-6.951,-114.39,-90.549,11_6_2.csv
2018-07-10T10:44:01.620290,-0.923,-0.389,0.052,-32.378,-114.695,-100.061,11_6_2.csv
2018-07-10T10:44:01.680953,-0.923,-0.389,0.052,13.171,-88.354,-76.037,11_6_2.csv
2018-07-10T10:44:01.722062,-0.697,-0.269,0.081,53.78,-58.963,-48.232,11_6_2.csv
2018-07-10T10:44:01.777212,-0.647,-0.167,0.117,32.561,-17.622,-4.329,11_6_2.csv
2018-07-10T10:44:01.831356,-0.647,-0.167,0.117,4.878,0.122,19.756,11_6_2.csv
2018-07-10T10:44:01.876480,-0.785,-0.259,0.11,-13.232,20.549,42.439,11_6_2.csv
2018-07-10T10:44:01.938148,-1.313,-0.359,0.039,-36.22,77.988,94.207,11_6_2.csv
2018-07-10T10:44:01.991342,-1.313,-0.359,0.039,-55.854,89.024,106.281,11_6_2.csv
2018-07-10T10:44:02.037467,-1.326,-0.502,0.263,-53.841,87.439,96.463,11_6_2.csv
2018-07-10T10:44:02.084595,-1.326,-0.502,0.263,14.512,91.037,66.707,11_6_2.csv
2018-07-10T10:44:02.147264,-0.919,-0.209,0.345,51.159,58.415,6.098,11_6_2.csv
2018-07-10T10:44:02.192888,-1.019,-0.009,0.178,-43.354,11.28,-0.488,11_6_2.csv
2018-07-10T10:44:02.302185,-0.988,-0.344,0.135,-208.781,-59.634,-25.854,11_6_2.csv
2018-07-10T10:44:02.351819,-0.829,-0.45,0.195,-141.829,-39.451,-30.0,11_6_2.csv
2018-07-10T10:44:02.391427,-0.829,-0.45,0.195,-54.878,-11.585,-21.037,11_6_2.csv
2018-07-10T10:44:02.440560,-0.848,-0.217,0.237,0.549,9.024,-3.232,11_6_2.csv
2018-07-10T10:44:02.485683,-0.848,-0.217,0.237,3.232,24.817,15.244,11_6_2.csv
2018-07-10T10:44:02.532809,-1.027,-0.271,0.227,5.122,27.683,27.073,11_6_2.csv
2018-07-10T10:44:02.587963,-1.239,-0.397,0.333,26.098,26.463,27.561,11_6_2.csv
2018-07-10T10:44:02.642609,-1.239,-0.397,0.333,11.646,15.427,22.927,11_6_2.csv
2018-07-10T10:44:02.690236,-1.189,-0.445,0.31,0.366,-3.11,5.61,11_6_2.csv
2018-07-10T10:44:02.736360,-1.01,-0.392,0.207,38.598,-35.915,-21.22,11_6_2.csv
2018-07-10T10:44:02.786995,-1.01,-0.392,0.207,52.561,-44.451,-37.5,11_6_2.csv
2018-07-10T10:44:02.830110,-1.012,-0.322,0.104,46.89,-54.512,-54.634,11_6_2.csv
2018-07-10T10:44:02.884254,-1.012,-0.322,0.104,44.939,-54.939,-56.829,11_6_2.csv
2018-07-10T10:44:02.928373,-1.052,-0.373,0.085,57.744,-52.988,-44.695,11_6_2.csv
2018-07-10T10:44:02.974999,-1.052,-0.373,0.085,64.146,-50.793,-32.195,11_6_2.csv
2018-07-10T10:44:03.022125,-0.977,-0.317,0.042,59.573,-38.598,-39.207,11_6_2.csv
2018-07-10T10:44:03.065245,-0.886,-0.183,0.141,34.573,-33.171,-51.829,11_6_2.csv
2018-07-10T10:44:03.130419,-0.886,-0.183,0.141,-2.561,-32.012,-57.012,11_6_2.csv
2018-07-10T10:44:03.196602,-0.712,-0.183,0.259,-24.512,-5.0,-18.049,11_6_2.csv
2018-07-10T10:44:03.250247,-0.799,-0.222,0.23,-20.854,14.817,20.305,11_6_2.csv
2018-07-10T10:44:03.307903,-1.292,-0.307,0.087,-50.061,60.793,92.744,11_6_2.csv
2018-07-10T10:44:03.367066,-1.292,-0.307,0.087,-77.5,60.366,107.622,11_6_2.csv
2018-07-10T10:44:03.410181,-1.198,-0.433,0.208,-64.939,49.329,103.049,11_6_2.csv
2018-07-10T10:44:03.455805,-1.198,-0.433,0.208,-18.537,30.671,66.89,11_6_2.csv
2018-07-10T10:44:03.505440,-0.933,-0.194,0.162,-46.768,20.976,7.805,11_6_2.csv
2018-07-10T10:44:03.549060,-1.035,-0.183,0.134,-107.683,-6.707,-0.915,11_6_2.csv
2018-07-10T10:44:03.665880,-0.906,-0.359,0.146,-136.707,-15.122,-12.927,11_6_2.csv
2018-07-10T10:44:03.704984,-0.893,-0.342,0.201,-75.976,0.549,0.305,11_6_2.csv
2018-07-10T10:44:03.751612,-0.893,-0.342,0.201,-31.768,13.171,11.524,11_6_2.csv
2018-07-10T10:44:03.819295,-0.926,-0.237,0.249,-15.915,28.415,16.28,11_6_2.csv
2018-07-10T10:44:03.872441,-0.999,-0.282,0.278,-12.378,26.341,14.451,11_6_2.csv
2018-07-10T10:44:03.932602,-0.999,-0.282,0.278,-8.841,23.232,10.854,11_6_2.csv
2018-07-10T10:44:03.987753,-1.071,-0.313,0.249,-22.561,13.049,2.622,11_6_2.csv
2018-07-10T10:44:04.033876,-1.258,-0.45,0.246,-29.451,6.951,8.354,11_6_2.csv
2018-07-10T10:44:04.079001,-1.258,-0.45,0.246,-12.317,-25.305,10.183,11_6_2.csv
2018-07-10T10:44:04.126127,-1.027,-0.38,0.206,17.988,-44.817,-9.329,11_6_2.csv
2018-07-10T10:44:04.177269,-1.027,-0.38,0.206,31.768,-43.78,-41.646,11_6_2.csv
2018-07-10T10:44:04.240437,-1.061,-0.268,0.092,-0.732,-71.28,-72.927,11_6_2.csv
2018-07-10T10:44:04.284560,-1.086,-0.347,0.121,3.171,-66.341,-62.134,11_6_2.csv
2018-07-10T10:44:04.331686,-1.086,-0.347,0.121,6.768,-64.512,-41.768,11_6_2.csv
2018-07-10T10:44:04.377814,-0.921,-0.271,0.146,9.695,-61.951,-31.341,11_6_2.csv
2018-07-10T10:44:04.423937,-0.876,-0.189,0.198,-1.28,-43.598,-35.427,11_6_2.csv
2018-07-10T10:44:04.484102,-0.876,-0.189,0.198,-7.988,-37.561,-28.659,11_6_2.csv
2018-07-10T10:44:04.532230,-0.793,-0.167,0.228,-19.512,-29.329,-12.561,11_6_2.csv
2018-07-10T10:44:04.579361,-0.793,-0.167,0.228,-33.11,-16.463,12.256,11_6_2.csv
2018-07-10T10:44:04.642530,-0.983,-0.227,0.115,-66.22,23.963,84.024,11_6_2.csv
