time,accel_x_list,accel_y_list,accel_z_list,gyro_x_list,gyro_y_list,gyro_z_list,filename
2018-07-10T11:52:08.036287,0.677,-0.465,-0.453,-9.878,11.098,17.622,12_10_2.csv
2018-07-10T11:52:08.095951,0.705,-0.443,-0.447,-8.049,7.195,13.415,12_10_2.csv
2018-07-10T11:52:08.143080,0.705,-0.443,-0.447,-2.256,3.78,3.902,12_10_2.csv
2018-07-10T11:52:08.195222,0.682,-0.465,-0.453,9.085,1.585,-4.573,12_10_2.csv
2018-07-10T11:52:08.237839,0.682,-0.465,-0.453,15.488,-0.366,-7.439,12_10_2.csv
2018-07-10T11:52:08.284465,0.674,-0.459,-0.477,14.634,-1.463,-6.037,12_10_2.csv
2018-07-10T11:52:08.331591,0.678,-0.462,-0.468,0.427,-0.488,-1.585,12_10_2.csv
2018-07-10T11:52:08.440390,0.675,-0.474,-0.48,1.341,0.244,-2.805,12_10_2.csv
2018-07-10T11:52:08.505066,0.673,-0.512,-0.488,11.463,-12.561,-18.171,12_10_2.csv
2018-07-10T11:52:08.570246,0.502,-0.402,-0.375,9.573,2.561,-19.39,12_10_2.csv
2018-07-10T11:52:08.613362,0.502,-0.402,-0.375,-6.768,15.305,-3.598,12_10_2.csv
2018-07-10T11:52:08.658489,0.11,-0.247,-0.213,-18.598,20.061,1.037,12_10_2.csv
2018-07-10T11:52:08.706618,0.11,-0.247,-0.213,31.829,-10.366,-13.354,12_10_2.csv
2018-07-10T11:52:08.751744,0.463,-0.3,-0.385,74.939,-58.11,-0.305,12_10_2.csv
2018-07-10T11:52:08.798871,0.463,-0.3,-0.385,77.073,-39.756,-12.256,12_10_2.csv
2018-07-10T11:52:08.853021,1.786,-1.295,-1.294,-11.768,-53.232,44.329,12_10_2.csv
2018-07-10T11:52:08.917194,1.617,-1.294,-1.539,51.402,-62.561,45.549,12_10_2.csv
2018-07-10T11:52:08.955300,1.617,-1.294,-1.539,1.037,-91.524,5.976,12_10_2.csv
2018-07-10T11:52:09.006437,0.247,-0.241,-0.075,54.634,-23.415,44.878,12_10_2.csv
2018-07-10T11:52:09.053568,-0.134,0.438,0.413,-148.72,122.866,143.476,12_10_2.csv
2018-07-10T11:52:09.120484,-0.134,0.438,0.413,-70.427,54.39,-15.732,12_10_2.csv
2018-07-10T11:52:09.179648,0.072,-0.086,0.165,53.963,-12.561,-86.402,12_10_2.csv
2018-07-10T11:52:09.222764,0.054,-0.045,-0.091,60.793,4.512,-52.622,12_10_2.csv
2018-07-10T11:52:09.268892,0.054,-0.045,-0.091,30.366,9.268,-22.622,12_10_2.csv
2018-07-10T11:52:09.315016,0.938,-0.703,-0.595,17.134,3.78,-8.963,12_10_2.csv
2018-07-10T11:52:09.362147,0.938,-0.703,-0.595,44.756,-50.122,-15.366,12_10_2.csv
2018-07-10T11:52:09.408271,2.37,-1.653,-1.957,38.72,-49.573,-43.78,12_10_2.csv
2018-07-10T11:52:09.462421,1.313,-1.154,-1.11,-67.866,-29.695,-24.024,12_10_2.csv
2018-07-10T11:52:09.520576,1.313,-1.154,-1.11,-98.72,49.512,31.646,12_10_2.csv
2018-07-10T11:52:09.569714,-0.134,0.094,0.219,-31.829,59.207,11.28,12_10_2.csv
2018-07-10T11:52:09.616840,-0.179,0.102,0.232,-84.39,107.866,29.512,12_10_2.csv
2018-07-10T11:52:09.660963,-0.179,0.102,0.232,-45.488,33.232,-4.695,12_10_2.csv
2018-07-10T11:52:09.709092,0.063,-0.108,0.118,-26.951,-23.78,7.439,12_10_2.csv
2018-07-10T11:52:09.811372,0.068,0.062,-0.133,86.524,-20.244,0.0,12_10_2.csv
2018-07-10T11:52:09.867448,1.637,-1.213,-0.977,-111.098,9.268,4.512,12_10_2.csv
2018-07-10T11:52:09.907556,1.637,-1.213,-0.977,-102.5,-24.756,60.183,12_10_2.csv
2018-07-10T11:52:09.956692,2.573,-1.202,-2.008,119.39,12.805,22.744,12_10_2.csv
2018-07-10T11:52:10.001813,2.573,-1.202,-2.008,135.976,-46.402,-132.134,12_10_2.csv
2018-07-10T11:52:10.048941,0.596,-0.743,-0.541,-48.902,49.268,-35.854,12_10_2.csv
2018-07-10T11:52:10.103609,-0.375,0.433,0.438,4.878,-76.22,93.902,12_10_2.csv
2018-07-10T11:52:10.160765,-0.375,0.433,0.438,-25.366,-98.598,33.354,12_10_2.csv
2018-07-10T11:52:10.230454,0.038,-0.088,0.237,-40.488,-21.829,-12.561,12_10_2.csv
2018-07-10T11:52:10.272567,0.033,-0.058,-0.1,-0.976,-4.268,33.049,12_10_2.csv
2018-07-10T11:52:10.314684,0.033,-0.058,-0.1,19.451,-1.463,31.037,12_10_2.csv
2018-07-10T11:52:10.363817,0.632,-0.424,-0.523,-64.268,9.39,27.744,12_10_2.csv
2018-07-10T11:52:10.426992,2.302,-1.535,-1.819,111.098,-45.244,-87.866,12_10_2.csv
2018-07-10T11:52:10.472113,2.302,-1.535,-1.819,160.427,30.183,-144.268,12_10_2.csv
2018-07-10T11:52:10.518741,1.5,-0.966,-1.675,-69.146,58.72,-22.256,12_10_2.csv
2018-07-10T11:52:10.572385,1.5,-0.966,-1.675,-106.646,-64.756,-51.402,12_10_2.csv
2018-07-10T11:52:10.620516,-0.021,0.014,0.174,-43.841,24.085,48.232,12_10_2.csv
2018-07-10T11:52:10.664635,-0.262,0.122,0.401,-88.11,11.524,34.695,12_10_2.csv
2018-07-10T11:52:10.726350,-0.262,0.122,0.401,-7.256,31.402,-0.122,12_10_2.csv
2018-07-10T11:52:10.768463,0.001,-0.212,0.008,8.171,13.841,12.683,12_10_2.csv
2018-07-10T11:52:10.834646,0.134,0.125,-0.256,21.646,-21.829,74.39,12_10_2.csv
2018-07-10T11:52:10.883279,0.134,0.125,-0.256,-81.098,-15.244,53.659,12_10_2.csv
2018-07-10T11:52:10.928905,1.623,-1.158,-1.273,-35.915,-50.793,39.573,12_10_2.csv
2018-07-10T11:52:10.972020,1.623,-1.158,-1.273,-12.622,-17.317,44.817,12_10_2.csv
2018-07-10T11:52:11.036198,2.209,-1.489,-2.081,116.951,119.695,-28.049,12_10_2.csv
2018-07-10T11:52:11.080821,0.377,-0.327,-0.736,90.854,15.732,-135.976,12_10_2.csv
2018-07-10T11:52:11.293494,-0.106,-0.083,0.169,20.122,30.305,-4.573,12_10_2.csv
2018-07-10T11:52:11.352655,0.0,0.08,-0.127,24.695,-20.976,28.232,12_10_2.csv
2018-07-10T11:52:11.396775,0.835,-0.888,-0.741,-51.829,5.793,-0.61,12_10_2.csv
2018-07-10T11:52:11.442900,0.835,-0.888,-0.741,-53.841,-109.634,-77.378,12_10_2.csv
2018-07-10T11:52:11.501056,2.497,-1.958,-2.038,121.22,-248.842,-60.549,12_10_2.csv
2018-07-10T11:52:11.550689,0.648,-0.817,-0.906,-87.073,90.671,72.439,12_10_2.csv
2018-07-10T11:52:11.604834,0.648,-0.817,-0.906,-20.488,68.841,15.0,12_10_2.csv
2018-07-10T11:52:11.649454,-0.24,0.245,0.436,62.866,95.061,82.134,12_10_2.csv
2018-07-10T11:52:11.690063,-0.24,0.245,0.436,-39.939,80.854,101.22,12_10_2.csv
2018-07-10T11:52:11.739195,0.069,0.063,0.249,-130.061,3.841,29.634,12_10_2.csv
2018-07-10T11:52:11.791335,0.038,0.013,-0.027,48.11,24.695,-10.549,12_10_2.csv
2018-07-10T11:52:11.846987,0.038,0.013,-0.027,45.061,23.902,1.89,12_10_2.csv
2018-07-10T11:52:11.894113,0.263,-0.315,-0.263,2.378,0.061,-16.341,12_10_2.csv
2018-07-10T11:52:11.940239,0.263,-0.315,-0.263,-13.232,-26.951,-39.756,12_10_2.csv
2018-07-10T11:52:11.986363,2.173,-1.854,-1.483,11.829,-67.012,-59.817,12_10_2.csv
2018-07-10T11:52:12.032487,1.711,-1.646,-1.751,-147.5,-31.524,-6.768,12_10_2.csv
2018-07-10T11:52:12.095155,1.711,-1.646,-1.751,-3.78,40.976,-57.683,12_10_2.csv
2018-07-10T11:52:12.146795,-0.068,-0.171,0.118,99.329,69.207,-24.451,12_10_2.csv
2018-07-10T11:52:12.194925,-0.232,0.381,0.387,-49.817,27.805,82.805,12_10_2.csv
2018-07-10T11:52:12.238046,-0.232,0.381,0.387,-80.0,59.573,47.439,12_10_2.csv
2018-07-10T11:52:12.287177,0.027,-0.138,0.123,-95.244,25.732,-18.476,12_10_2.csv
2018-07-10T11:52:12.336314,0.027,-0.138,0.123,-69.512,10.244,-13.841,12_10_2.csv
2018-07-10T11:52:12.392465,0.086,-0.03,-0.058,24.573,0.854,35.671,12_10_2.csv
2018-07-10T11:52:12.450122,1.287,-1.087,-0.964,-9.451,-58.049,-20.427,12_10_2.csv
2018-07-10T11:52:12.528332,2.068,-1.607,-2.502,85.366,-26.768,-52.378,12_10_2.csv
2018-07-10T11:52:12.585927,2.068,-1.607,-2.502,-128.659,0.732,-18.963,12_10_2.csv
2018-07-10T11:52:12.630049,0.664,-0.913,-0.712,2.439,33.049,1.098,12_10_2.csv
2018-07-10T11:52:12.678179,-0.151,0.321,0.331,-68.72,-8.476,51.707,12_10_2.csv
2018-07-10T11:52:12.727815,-0.151,0.321,0.331,-68.963,32.5,42.256,12_10_2.csv
2018-07-10T11:52:12.777450,-0.013,-0.056,0.224,-12.866,14.329,-18.963,12_10_2.csv
2018-07-10T11:52:12.815553,-0.013,-0.056,0.224,6.524,-6.159,-23.537,12_10_2.csv
2018-07-10T11:52:12.871707,-0.006,-0.122,0.077,64.39,-12.439,-5.305,12_10_2.csv
2018-07-10T11:52:12.909808,-0.006,-0.122,0.077,64.39,-12.439,-5.305,12_10_2.csv
2018-07-10T11:52:12.970977,0.236,-0.113,-0.423,-24.146,-42.805,4.451,12_10_2.csv
2018-07-10T11:52:13.030139,2.074,-1.433,-1.482,14.39,-78.232,-25.061,12_10_2.csv
2018-07-10T11:52:13.086292,1.693,-1.133,-2.055,67.622,-0.976,-49.39,12_10_2.csv
2018-07-10T11:52:13.130914,1.693,-1.133,-2.055,-112.683,-7.378,-17.988,12_10_2.csv
2018-07-10T11:52:13.181048,0.202,-0.459,-0.044,-6.22,106.829,19.146,12_10_2.csv
2018-07-10T11:52:13.221156,0.202,-0.459,-0.044,-10.915,80.183,78.232,12_10_2.csv
2018-07-10T11:52:13.271792,-0.169,0.388,0.408,-4.756,30.427,59.939,12_10_2.csv
2018-07-10T11:52:13.322427,0.07,0.028,0.032,45.122,-84.329,-77.805,12_10_2.csv
2018-07-10T11:52:13.378077,0.07,0.028,0.032,42.988,-38.598,-62.988,12_10_2.csv
2018-07-10T11:52:13.429214,0.027,-0.161,-0.112,71.646,1.28,-49.512,12_10_2.csv
2018-07-10T11:52:13.473333,0.027,-0.161,-0.112,66.341,-24.024,-34.695,12_10_2.csv
2018-07-10T11:52:13.520960,1.434,-1.042,-0.937,31.829,-24.024,-50.549,12_10_2.csv
2018-07-10T11:52:13.572098,1.966,-1.571,-2.159,225.488,-22.744,-87.134,12_10_2.csv
2018-07-10T11:52:13.625241,1.966,-1.571,-2.159,156.951,-116.768,-95.183,12_10_2.csv
2018-07-10T11:52:13.674373,0.879,-1.102,-0.595,120.549,14.268,-38.598,12_10_2.csv
2018-07-10T11:52:13.721499,-0.248,0.363,0.203,48.11,38.659,59.207,12_10_2.csv
2018-07-10T11:52:13.769127,-0.248,0.363,0.203,-38.902,69.634,65.0,12_10_2.csv
2018-07-10T11:52:13.815250,-0.106,0.239,0.201,-119.085,85.854,33.963,12_10_2.csv
2018-07-10T11:52:13.904493,0.081,-0.266,0.121,-272.317,-9.939,47.317,12_10_2.csv
2018-07-10T11:52:13.961647,0.396,-0.265,-0.421,-1.402,-0.488,65.305,12_10_2.csv
2018-07-10T11:52:14.022817,0.396,-0.265,-0.421,45.0,-25.915,-55.854,12_10_2.csv
2018-07-10T11:52:14.070946,2.157,-1.3,-1.567,102.5,-41.646,-106.463,12_10_2.csv
2018-07-10T11:52:14.119081,1.678,-1.274,-1.682,-23.354,-28.659,-37.439,12_10_2.csv
2018-07-10T11:52:14.163199,1.678,-1.274,-1.682,-83.171,48.902,-14.695,12_10_2.csv
2018-07-10T11:52:14.226374,0.04,-0.214,0.039,-86.829,89.756,42.378,12_10_2.csv
2018-07-10T11:52:14.293056,-0.164,0.234,0.3,-90.183,67.317,70.366,12_10_2.csv
2018-07-10T11:52:14.352718,-0.164,0.234,0.3,-66.341,56.341,-5.976,12_10_2.csv
2018-07-10T11:52:14.397845,-0.003,-0.25,0.171,-14.39,5.122,-22.927,12_10_2.csv
2018-07-10T11:52:14.444971,0.175,0.05,-0.185,41.098,8.476,18.963,12_10_2.csv
2018-07-10T11:52:14.488089,0.175,0.05,-0.185,-9.451,4.695,1.524,12_10_2.csv
2018-07-10T11:52:14.538226,1.792,-1.042,-0.953,-29.085,-39.634,-4.268,12_10_2.csv
2018-07-10T11:52:14.588865,1.792,-1.042,-0.953,-30.122,-17.012,-5.732,12_10_2.csv
2018-07-10T11:52:14.645519,2.317,-1.006,-1.879,121.707,-38.232,-130.854,12_10_2.csv
2018-07-10T11:52:14.694654,0.634,-0.582,-0.528,22.378,35.305,-42.561,12_10_2.csv
2018-07-10T11:52:14.738774,0.634,-0.582,-0.528,-4.756,101.646,12.134,12_10_2.csv
2018-07-10T11:52:14.791920,-0.374,0.221,0.381,-15.915,49.756,42.927,12_10_2.csv
2018-07-10T11:52:14.831027,-0.374,0.221,0.381,-63.963,15.061,38.537,12_10_2.csv
2018-07-10T11:52:14.897211,-0.076,-0.104,0.268,41.22,-72.439,-46.402,12_10_2.csv
2018-07-10T11:52:14.956370,0.029,-0.108,0.12,49.695,-65.427,-29.878,12_10_2.csv
2018-07-10T11:52:15.002500,0.965,-0.327,-0.965,-3.963,-134.268,39.878,12_10_2.csv
2018-07-10T11:52:15.054640,0.965,-0.327,-0.965,15.0,-123.049,-20.305,12_10_2.csv
2018-07-10T11:52:15.099769,2.667,-1.515,-1.971,-83.171,74.512,-20.183,12_10_2.csv
2018-07-10T11:52:15.141882,2.667,-1.515,-1.971,1.463,222.134,-26.89,12_10_2.csv
2018-07-10T11:52:15.256193,-0.19,-0.315,0.292,-162.5,-22.195,117.439,12_10_2.csv
2018-07-10T11:52:15.304039,-0.19,-0.315,0.292,-14.146,-52.622,117.744,12_10_2.csv
2018-07-10T11:52:15.346152,-0.024,0.096,0.493,107.5,-81.524,69.451,12_10_2.csv
2018-07-10T11:52:15.402308,-0.024,0.096,0.493,103.171,-48.11,-3.415,12_10_2.csv
2018-07-10T11:52:15.451440,0.134,0.199,0.06,-36.951,-12.378,53.354,12_10_2.csv
2018-07-10T11:52:15.488040,0.17,0.022,-0.455,-97.012,-3.537,116.646,12_10_2.csv
2018-07-10T11:52:15.550711,0.17,0.022,-0.455,-133.415,-22.073,86.037,12_10_2.csv
2018-07-10T11:52:15.617895,1.747,-1.412,-1.626,-186.159,82.561,96.585,12_10_2.csv
2018-07-10T11:52:15.664019,1.763,-1.124,-2.374,173.415,27.439,-141.707,12_10_2.csv
2018-07-10T11:52:15.709146,1.763,-1.124,-2.374,1.524,35.183,-67.439,12_10_2.csv
2018-07-10T11:52:15.756272,0.055,-0.507,-0.27,-51.646,109.512,47.5,12_10_2.csv
2018-07-10T11:52:15.800395,0.055,-0.507,-0.27,87.5,46.951,-3.354,12_10_2.csv
2018-07-10T11:52:15.857549,-0.296,0.433,0.425,50.671,-51.463,-14.756,12_10_2.csv
2018-07-10T11:52:15.924735,0.074,-0.073,0.208,69.39,-24.512,-43.476,12_10_2.csv
2018-07-10T11:52:15.971861,0.145,-0.125,0.156,86.159,-60.0,-86.22,12_10_2.csv
2018-07-10T11:52:16.018649,0.145,-0.125,0.156,78.902,-0.732,-34.634,12_10_2.csv
2018-07-10T11:52:16.064772,1.018,-0.84,-1.085,65.793,36.098,-52.317,12_10_2.csv
2018-07-10T11:52:16.112907,1.018,-0.84,-1.085,105.183,-62.561,-72.927,12_10_2.csv
2018-07-10T11:52:16.167053,2.222,-1.491,-2.355,76.646,-49.634,-25.061,12_10_2.csv
2018-07-10T11:52:16.222205,0.899,-0.955,-0.783,-89.451,-22.561,14.756,12_10_2.csv
2018-07-10T11:52:16.271337,0.899,-0.955,-0.783,-12.256,7.744,30.854,12_10_2.csv
2018-07-10T11:52:16.319471,-0.141,0.36,0.359,-13.537,0.427,70.183,12_10_2.csv
2018-07-10T11:52:16.366598,-0.141,0.36,0.359,-105.183,-0.183,88.049,12_10_2.csv
2018-07-10T11:52:16.411724,-0.006,0.003,0.267,28.598,33.841,-60.122,12_10_2.csv
2018-07-10T11:52:16.467874,-0.077,-0.177,-0.009,22.378,58.902,-58.049,12_10_2.csv
2018-07-10T11:52:16.521023,-0.077,-0.177,-0.009,22.378,37.927,21.524,12_10_2.csv
2018-07-10T11:52:16.618287,2.428,-1.444,-1.685,-12.439,-12.622,-43.293,12_10_2.csv
2018-07-10T11:52:16.668423,2.428,-1.444,-1.685,49.695,39.573,-39.939,12_10_2.csv
2018-07-10T11:52:16.706528,1.555,-0.699,-1.867,162.256,47.439,-133.72,12_10_2.csv
2018-07-10T11:52:16.753655,1.555,-0.699,-1.867,-99.329,-16.829,-41.28,12_10_2.csv
2018-07-10T11:52:16.813823,-0.073,-0.462,0.16,-14.268,11.585,109.329,12_10_2.csv
2018-07-10T11:52:16.862954,-0.229,0.194,0.49,102.256,-13.659,89.939,12_10_2.csv
2018-07-10T11:52:16.908080,-0.229,0.194,0.49,97.988,-8.476,24.146,12_10_2.csv
2018-07-10T11:52:16.957212,0.076,0.038,0.169,33.902,-57.866,-58.963,12_10_2.csv
2018-07-10T11:52:17.002337,0.076,0.038,0.169,-20.732,-64.695,-13.171,12_10_2.csv
2018-07-10T11:52:17.049464,0.271,-0.034,-0.266,-4.451,-14.939,83.659,12_10_2.csv
2018-07-10T11:52:17.103615,1.703,-1.347,-1.528,104.878,-92.317,-155.61,12_10_2.csv
2018-07-10T11:52:17.163776,1.703,-1.347,-1.528,-9.695,68.171,-125.061,12_10_2.csv
2018-07-10T11:52:17.208902,1.812,-1.55,-1.937,-32.134,-29.451,18.963,12_10_2.csv
2018-07-10T11:52:17.256028,0.467,-0.398,-0.527,-49.268,71.951,51.098,12_10_2.csv
2018-07-10T11:52:17.305165,0.467,-0.398,-0.527,-200.488,71.829,148.415,12_10_2.csv
2018-07-10T11:52:17.351289,-0.115,0.209,0.531,-78.049,23.171,92.378,12_10_2.csv
2018-07-10T11:52:17.407944,-0.115,0.209,0.531,46.402,-12.378,26.341,12_10_2.csv
2018-07-10T11:52:17.456073,0.014,0.016,0.217,72.866,-20.244,-73.841,12_10_2.csv
2018-07-10T11:52:17.504704,-0.05,-0.053,-0.175,90.122,-17.744,-43.841,12_10_2.csv
2018-07-10T11:52:17.556342,-0.05,-0.053,-0.175,78.415,-23.537,4.146,12_10_2.csv
2018-07-10T11:52:17.603972,0.825,-0.627,-0.636,15.244,-51.951,18.72,12_10_2.csv
2018-07-10T11:52:17.644080,0.825,-0.627,-0.636,57.927,-91.402,-81.341,12_10_2.csv
2018-07-10T11:52:17.702241,2.231,-1.59,-2.231,5.244,37.134,-119.634,12_10_2.csv
2018-07-10T11:52:17.752376,1.066,-1.021,-1.056,-84.573,18.963,1.951,12_10_2.csv
2018-07-10T11:52:17.799508,1.066,-1.021,-1.056,-98.293,128.232,104.756,12_10_2.csv
2018-07-10T11:52:17.848639,-0.123,0.221,0.347,-198.11,128.72,131.951,12_10_2.csv
2018-07-10T11:52:17.892761,-0.123,0.221,0.347,-151.707,91.28,92.561,12_10_2.csv
2018-07-10T11:52:17.987019,-0.019,-0.167,0.03,99.451,-109.756,-38.476,12_10_2.csv
2018-07-10T11:52:18.043170,-0.019,-0.167,0.03,95.976,-64.085,-5.549,12_10_2.csv
2018-07-10T11:52:18.118378,0.374,-0.193,-0.485,59.695,-82.378,-14.085,12_10_2.csv
2018-07-10T11:52:18.163499,2.168,-1.598,-1.757,75.732,-39.146,-65.976,12_10_2.csv
2018-07-10T11:52:18.206617,2.168,-1.598,-1.757,30.122,49.939,-77.744,12_10_2.csv
2018-07-10T11:52:18.255751,1.391,-1.453,-1.713,-15.854,-32.744,-44.39,12_10_2.csv
2018-07-10T11:52:18.302877,0.094,-0.125,0.053,-78.293,89.512,49.207,12_10_2.csv
2018-07-10T11:52:18.364047,0.094,-0.125,0.053,-77.866,66.951,44.146,12_10_2.csv
2018-07-10T11:52:18.409168,-0.21,0.162,0.384,-103.049,170.549,-31.646,12_10_2.csv
2018-07-10T11:52:18.455297,-0.21,0.162,0.384,-28.963,84.39,-41.159,12_10_2.csv
2018-07-10T11:52:18.504429,-0.026,-0.249,0.167,57.012,-12.073,56.829,12_10_2.csv
2018-07-10T11:52:18.548552,0.174,0.165,-0.137,49.573,-7.561,44.695,12_10_2.csv
2018-07-10T11:52:18.596681,0.174,0.165,-0.137,22.439,-33.293,20.488,12_10_2.csv
2018-07-10T11:52:18.652838,1.653,-1.277,-0.631,31.341,-110.122,13.598,12_10_2.csv
2018-07-10T11:52:18.708989,2.318,-1.398,-2.063,94.634,-72.134,-53.598,12_10_2.csv
2018-07-10T11:52:18.755118,2.318,-1.398,-2.063,-45.976,4.085,-28.476,12_10_2.csv
2018-07-10T11:52:18.805252,0.463,-0.716,-0.638,-114.207,133.537,8.049,12_10_2.csv
2018-07-10T11:52:18.850378,0.463,-0.716,-0.638,-169.878,58.293,52.561,12_10_2.csv
2018-07-10T11:52:18.900513,-0.213,0.114,0.442,-222.683,103.781,85.061,12_10_2.csv
2018-07-10T11:52:18.953661,-0.01,-0.169,0.357,58.11,-19.268,-19.695,12_10_2.csv
2018-07-10T11:52:19.004797,-0.01,-0.169,0.357,126.342,-57.5,-47.378,12_10_2.csv
2018-07-10T11:52:19.053431,0.087,0.067,0.088,64.024,-41.098,-13.049,12_10_2.csv
2018-07-10T11:52:19.103064,0.087,0.067,0.088,85.732,-66.707,9.634,12_10_2.csv
2018-07-10T11:52:19.152199,0.812,-0.368,-0.563,127.805,-164.024,-56.707,12_10_2.csv
2018-07-10T11:52:19.198322,2.349,-1.496,-1.966,63.293,-21.463,-35.549,12_10_2.csv
2018-07-10T11:52:19.247233,2.349,-1.496,-1.966,209.268,-88.902,-178.842,12_10_2.csv
2018-07-10T11:52:19.284333,1.258,-1.158,-1.318,-21.402,-25.793,-56.646,12_10_2.csv
2018-07-10T11:52:19.504211,-0.206,0.069,0.508,46.646,-30.061,22.439,12_10_2.csv
2018-07-10T11:52:19.555353,0.03,-0.125,0.263,30.732,-36.341,-68.049,12_10_2.csv
2018-07-10T11:52:19.600474,0.142,-0.091,-0.141,9.573,-18.598,-12.134,12_10_2.csv
2018-07-10T11:52:19.646603,0.142,-0.091,-0.141,11.402,-10.793,43.476,12_10_2.csv
2018-07-10T11:52:19.701751,1.339,-1.505,-2.116,8.841,-163.72,152.439,12_10_2.csv
2018-07-10T11:52:19.754899,0.919,-1.717,-2.416,170.061,-28.537,-189.634,12_10_2.csv
2018-07-10T11:52:19.805034,0.919,-1.717,-2.416,-178.659,-31.22,62.134,12_10_2.csv
2018-07-10T11:52:19.851162,-0.057,-0.63,-0.049,-81.524,4.817,39.695,12_10_2.csv
2018-07-10T11:52:19.894279,-0.057,-0.63,-0.049,26.22,47.256,39.634,12_10_2.csv
2018-07-10T11:52:19.939404,-0.011,0.373,0.484,31.89,80.0,54.39,12_10_2.csv
2018-07-10T11:52:20.000569,0.122,-0.006,0.127,-78.232,67.5,-38.293,12_10_2.csv
2018-07-10T11:52:20.050707,0.122,-0.006,0.127,-86.402,72.317,-23.598,12_10_2.csv
2018-07-10T11:52:20.099840,-0.034,-0.055,-0.237,-38.659,98.537,77.927,12_10_2.csv
2018-07-10T11:52:20.142960,-0.034,-0.055,-0.237,-43.232,72.805,107.866,12_10_2.csv
2018-07-10T11:52:20.190087,0.894,-1.001,-0.994,60.549,-39.329,42.256,12_10_2.csv
2018-07-10T11:52:20.236215,2.03,-1.639,-2.354,163.354,-35.0,-110.671,12_10_2.csv
2018-07-10T11:52:20.293369,2.03,-1.639,-2.354,-0.854,-35.854,-93.72,12_10_2.csv
2018-07-10T11:52:20.349526,0.628,-0.71,-0.893,-127.805,67.988,-22.439,12_10_2.csv
2018-07-10T11:52:20.396652,-0.322,0.102,0.446,39.085,57.683,-45.061,12_10_2.csv
2018-07-10T11:52:20.444786,-0.322,0.102,0.446,3.049,52.012,-26.829,12_10_2.csv
2018-07-10T11:52:20.508460,-0.106,-0.082,0.126,-20.122,14.39,-30.915,12_10_2.csv
2018-07-10T11:52:20.555092,0.015,-0.071,-0.027,25.305,-21.402,12.805,12_10_2.csv
2018-07-10T11:52:20.601217,0.015,-0.071,-0.027,61.707,-2.622,31.098,12_10_2.csv
2018-07-10T11:52:20.709510,0.756,-0.613,-0.7,-50.366,-72.683,-29.695,12_10_2.csv
2018-07-10T11:52:20.751624,2.261,-1.282,-2.402,125.549,-67.195,-114.573,12_10_2.csv
2018-07-10T11:52:20.801766,1.072,-1.06,-1.32,-120.0,-14.756,-116.829,12_10_2.csv
2018-07-10T11:52:20.846888,1.072,-1.06,-1.32,-64.146,79.878,-57.744,12_10_2.csv
2018-07-10T11:52:20.895021,-0.324,0.006,0.501,-39.573,64.268,149.878,12_10_2.csv
2018-07-10T11:52:20.942147,-0.324,0.006,0.501,-25.488,39.146,162.317,12_10_2.csv
2018-07-10T11:52:20.987772,-0.042,0.215,0.277,-54.695,55.061,58.659,12_10_2.csv
2018-07-10T11:52:21.034400,0.14,-0.009,0.092,-29.207,-13.171,16.159,12_10_2.csv
2018-07-10T11:52:21.081528,0.14,-0.009,0.092,12.134,2.683,35.305,12_10_2.csv
2018-07-10T11:52:21.126652,0.318,-0.123,-0.402,28.659,5.854,14.939,12_10_2.csv
2018-07-10T11:52:21.175783,0.318,-0.123,-0.402,3.963,-37.317,-24.695,12_10_2.csv
2018-07-10T11:52:21.234949,2.136,-1.307,-2.023,72.134,-6.037,-73.72,12_10_2.csv
2018-07-10T11:52:21.287593,1.728,-1.038,-2.087,-32.805,-36.402,-112.744,12_10_2.csv
2018-07-10T11:52:21.335222,1.728,-1.038,-2.087,-208.72,212.988,35.366,12_10_2.csv
2018-07-10T11:52:21.383856,-0.166,-0.094,0.137,-169.207,157.134,99.756,12_10_2.csv
2018-07-10T11:52:21.429481,-0.166,-0.094,0.137,-84.207,50.61,65.732,12_10_2.csv
2018-07-10T11:52:21.491650,-0.231,0.159,0.516,21.341,26.768,-31.524,12_10_2.csv
2018-07-10T11:52:21.542790,0.029,-0.16,0.267,13.232,-16.28,-16.037,12_10_2.csv
2018-07-10T11:52:21.596940,0.208,-0.024,0.049,26.707,-29.756,4.512,12_10_2.csv
2018-07-10T11:52:21.643064,0.208,-0.024,0.049,94.512,-44.512,-36.402,12_10_2.csv
2018-07-10T11:52:21.692700,1.495,-0.835,-1.337,82.683,-106.585,-52.012,12_10_2.csv
2018-07-10T11:52:21.736879,1.495,-0.835,-1.337,95.061,-163.781,-39.573,12_10_2.csv
2018-07-10T11:52:21.785011,2.362,-0.944,-2.461,306.159,-114.39,-116.098,12_10_2.csv
2018-07-10T11:52:21.836652,2.362,-0.944,-2.461,60.061,-71.585,-60.488,12_10_2.csv
2018-07-10T11:52:21.878769,0.392,-0.463,-0.542,-127.622,26.402,43.902,12_10_2.csv
2018-07-10T11:52:21.924894,-0.276,0.078,0.454,-143.232,82.134,100.793,12_10_2.csv
2018-07-10T11:52:21.972021,-0.276,0.078,0.454,-61.707,55.366,50.488,12_10_2.csv
2018-07-10T11:52:22.073298,0.036,-0.054,0.329,82.073,-18.659,-41.524,12_10_2.csv
2018-07-10T11:52:22.112410,0.154,-0.002,0.018,10.854,13.11,-28.963,12_10_2.csv
2018-07-10T11:52:22.164550,0.906,-0.393,-0.739,39.512,6.829,-26.707,12_10_2.csv
2018-07-10T11:52:22.220707,0.906,-0.393,-0.739,163.049,-109.939,-10.915,12_10_2.csv
2018-07-10T11:52:22.271844,2.498,-1.591,-2.026,242.683,-72.866,22.622,12_10_2.csv
2018-07-10T11:52:22.315966,2.498,-1.591,-2.026,161.402,-97.134,-35.61,12_10_2.csv
2018-07-10T11:52:22.367105,0.922,-1.135,-0.931,-51.829,133.049,63.171,12_10_2.csv
2018-07-10T11:52:22.413229,-0.247,0.165,0.296,-71.707,58.293,-19.268,12_10_2.csv
2018-07-10T11:52:22.471390,-0.247,0.165,0.296,-136.22,96.463,-81.22,12_10_2.csv
2018-07-10T11:52:22.522527,-0.065,0.049,0.211,-147.988,57.439,-154.085,12_10_2.csv
2018-07-10T11:52:22.569658,-0.006,-0.155,0.062,-52.012,72.378,-44.756,12_10_2.csv
2018-07-10T11:52:22.614780,-0.006,-0.155,0.062,18.72,42.5,6.341,12_10_2.csv
2018-07-10T11:52:22.658903,0.555,-0.089,-0.172,58.537,37.439,24.573,12_10_2.csv
2018-07-10T11:52:22.709037,0.555,-0.089,-0.172,206.768,-28.293,92.927,12_10_2.csv
2018-07-10T11:52:22.761181,3.01,-1.087,-1.587,208.781,28.72,-49.756,12_10_2.csv
2018-07-10T11:52:22.816331,1.792,-1.201,-1.16,-181.585,-18.11,61.22,12_10_2.csv
2018-07-10T11:52:22.862459,1.792,-1.201,-1.16,-205.732,74.39,43.415,12_10_2.csv
2018-07-10T11:52:22.910588,-0.268,-0.125,0.301,-159.451,72.988,29.695,12_10_2.csv
2018-07-10T11:52:22.955714,-0.268,-0.125,0.301,-139.146,-9.512,62.073,12_10_2.csv
2018-07-10T11:52:23.001838,-0.205,0.133,0.201,-130.61,-40.061,58.78,12_10_2.csv
2018-07-10T11:52:23.066015,-0.021,-0.259,0.178,59.329,-18.049,-31.463,12_10_2.csv
2018-07-10T11:52:23.117151,-0.021,-0.259,0.178,66.524,-34.756,2.927,12_10_2.csv
2018-07-10T11:52:23.160271,0.05,0.04,0.043,58.841,-28.78,44.695,12_10_2.csv
2018-07-10T11:52:23.211409,1.63,-0.991,-1.03,-20.366,-59.39,34.39,12_10_2.csv
2018-07-10T11:52:23.254529,1.63,-0.991,-1.03,82.134,-101.951,-19.512,12_10_2.csv
2018-07-10T11:52:23.304663,2.454,-1.335,-2.471,178.903,43.11,-146.22,12_10_2.csv
2018-07-10T11:52:23.358814,2.454,-1.335,-2.471,-5.793,6.951,-83.415,12_10_2.csv
2018-07-10T11:52:23.439533,0.809,-0.872,-0.396,-9.939,119.695,-33.902,12_10_2.csv
2018-07-10T11:52:23.487162,-0.274,0.335,0.143,5.732,85.549,-53.72,12_10_2.csv
2018-07-10T11:52:23.538803,-0.144,-0.07,0.172,3.415,72.744,-17.5,12_10_2.csv
2018-07-10T11:52:23.583425,-0.144,-0.07,0.172,-10.976,45.976,35.0,12_10_2.csv
2018-07-10T11:52:23.634064,-0.013,-0.134,0.201,-49.756,8.72,75.732,12_10_2.csv
2018-07-10T11:52:23.688713,0.761,-0.285,-0.151,-45.427,15.854,15.427,12_10_2.csv
2018-07-10T11:52:23.737847,0.761,-0.285,-0.151,-10.061,-105.488,-16.951,12_10_2.csv
2018-07-10T11:52:23.789989,2.979,-1.135,-1.69,47.561,-167.805,-6.646,12_10_2.csv
2018-07-10T11:52:23.839624,2.979,-1.135,-1.69,140.549,-10.793,-73.11,12_10_2.csv
2018-07-10T11:52:23.878230,1.617,-0.86,-1.031,-22.317,-9.207,-75.183,12_10_2.csv
2018-07-10T11:52:23.933379,-0.291,0.101,0.332,-78.72,-38.659,59.817,12_10_2.csv
2018-07-10T11:52:23.980507,-0.291,0.101,0.332,-91.707,-137.073,69.39,12_10_2.csv
2018-07-10T11:52:24.035655,-0.042,-0.011,0.265,52.988,-125.793,-12.012,12_10_2.csv
2018-07-10T11:52:24.080777,-0.042,-0.011,0.265,86.098,-74.268,-28.415,12_10_2.csv
2018-07-10T11:52:24.128404,0.096,-0.049,0.056,-1.341,10.061,15.427,12_10_2.csv
2018-07-10T11:52:24.174529,0.343,-0.05,-0.138,60.488,-10.671,20.915,12_10_2.csv
2018-07-10T11:52:24.221655,0.343,-0.05,-0.138,143.72,-65.244,-101.646,12_10_2.csv
2018-07-10T11:52:24.275801,2.145,-0.991,-1.247,104.085,-21.098,-247.012,12_10_2.csv
2018-07-10T11:52:24.353007,2.154,-1.13,-1.685,106.402,79.451,-77.256,12_10_2.csv
2018-07-10T11:52:24.393617,2.154,-1.13,-1.685,-27.5,-32.073,-36.098,12_10_2.csv
2018-07-10T11:52:24.450269,0.573,-0.219,-0.318,-175.793,41.402,146.342,12_10_2.csv
2018-07-10T11:52:24.487870,0.573,-0.219,-0.318,-175.793,41.402,146.342,12_10_2.csv
2018-07-10T11:52:24.538004,-0.191,0.16,0.445,-106.707,59.146,12.744,12_10_2.csv
2018-07-10T11:52:24.594155,-0.023,-0.201,0.333,-51.768,20.305,-30.61,12_10_2.csv
2018-07-10T11:52:24.644289,-0.023,-0.201,0.333,-18.11,-11.524,-11.22,12_10_2.csv
2018-07-10T11:52:24.690914,0.0,0.039,0.034,16.28,-31.463,56.341,12_10_2.csv
2018-07-10T11:52:24.802213,1.134,-0.406,-0.729,78.598,-107.927,-84.634,12_10_2.csv
2018-07-10T11:52:24.850844,2.761,-1.384,-1.908,55.793,-36.707,-41.037,12_10_2.csv
2018-07-10T11:52:24.901480,1.021,-0.612,-1.199,-16.341,75.549,-82.073,12_10_2.csv
2018-07-10T11:52:24.951113,1.021,-0.612,-1.199,-221.098,11.22,53.171,12_10_2.csv
2018-07-10T11:52:25.002752,-0.203,-0.018,0.364,-168.049,17.378,114.451,12_10_2.csv
2018-07-10T11:52:25.054892,-0.024,-0.048,0.365,-23.415,-7.012,15.61,12_10_2.csv
2018-07-10T11:52:25.102018,-0.024,-0.048,0.365,62.439,-15.305,-32.134,12_10_2.csv
2018-07-10T11:52:25.142126,0.045,-0.129,0.134,84.939,-5.854,-27.561,12_10_2.csv
2018-07-10T11:52:25.199209,0.045,-0.129,0.134,50.305,-11.89,8.476,12_10_2.csv
2018-07-10T11:52:25.249846,0.434,0.03,-0.223,4.695,-30.305,23.537,12_10_2.csv
2018-07-10T11:52:25.300485,2.313,-1.189,-1.407,106.463,-91.646,-80.244,12_10_2.csv
2018-07-10T11:52:25.346608,2.313,-1.189,-1.407,185.915,29.756,-111.098,12_10_2.csv
2018-07-10T11:52:25.394742,2.013,-1.027,-1.853,175.427,-32.683,-121.585,12_10_2.csv
2018-07-10T11:52:25.439864,2.013,-1.027,-1.853,-104.512,23.537,57.744,12_10_2.csv
2018-07-10T11:52:25.487696,0.263,-0.283,-0.031,-140.427,65.427,61.402,12_10_2.csv
2018-07-10T11:52:25.540839,-0.159,0.144,0.371,-143.049,-120.0,148.11,12_10_2.csv
2018-07-10T11:52:25.601005,-0.159,0.144,0.371,-123.049,-99.573,6.037,12_10_2.csv
2018-07-10T11:52:25.644121,0.137,-0.136,0.234,-89.268,-20.854,-79.817,12_10_2.csv
2018-07-10T11:52:25.696268,0.137,-0.136,0.234,-42.256,85.0,-62.195,12_10_2.csv
2018-07-10T11:52:25.756431,0.004,0.074,-0.133,46.341,67.866,-14.329,12_10_2.csv
2018-07-10T11:52:25.804563,1.557,-0.421,-0.519,144.329,53.841,-24.939,12_10_2.csv
2018-07-10T11:52:25.852193,1.557,-0.421,-0.519,312.805,51.159,-30.488,12_10_2.csv
2018-07-10T11:52:25.895812,3.084,-1.152,-1.845,153.781,52.378,42.378,12_10_2.csv
2018-07-10T11:52:25.949960,0.846,-0.818,-0.52,-27.927,0.854,-39.085,12_10_2.csv
2018-07-10T11:52:25.989066,0.846,-0.818,-0.52,-71.098,71.89,12.5,12_10_2.csv
2018-07-10T11:52:26.037197,-0.429,0.073,0.481,-97.561,62.256,23.72,12_10_2.csv
2018-07-10T11:52:26.080316,-0.429,0.073,0.481,-151.402,48.841,24.878,12_10_2.csv
2018-07-10T11:52:26.167555,-0.082,0.097,0.132,-78.11,-48.598,23.049,12_10_2.csv
2018-07-10T11:52:26.236741,0.075,-0.063,0.143,44.756,-5.122,40.0,12_10_2.csv
2018-07-10T11:52:26.282869,0.599,-0.225,-0.24,53.049,-0.61,1.585,12_10_2.csv
2018-07-10T11:52:26.330998,0.599,-0.225,-0.24,42.317,-50.305,-33.841,12_10_2.csv
2018-07-10T11:52:26.377128,3.264,-1.052,-1.272,95.244,-41.037,-110.366,12_10_2.csv
2018-07-10T11:52:26.425257,1.957,-0.608,-1.226,220.671,78.902,-196.463,12_10_2.csv
2018-07-10T11:52:26.475397,1.957,-0.608,-1.226,-138.232,126.22,-38.293,12_10_2.csv
2018-07-10T11:52:26.520517,-0.358,-0.27,0.316,-117.927,108.902,39.634,12_10_2.csv
2018-07-10T11:52:26.566142,-0.358,-0.27,0.316,-12.439,66.951,75.244,12_10_2.csv
2018-07-10T11:52:26.613772,-0.235,0.231,0.299,-111.463,5.427,28.354,12_10_2.csv
2018-07-10T11:52:26.660400,-0.235,0.231,0.299,-162.5,-26.28,4.39,12_10_2.csv
2018-07-10T11:52:26.706024,0.04,-0.072,0.101,-20.305,23.659,26.402,12_10_2.csv
2018-07-10T11:52:26.759170,0.163,0.017,-0.035,-37.5,36.159,30.488,12_10_2.csv
2018-07-10T11:52:26.801285,0.163,0.017,-0.035,-54.695,22.317,6.402,12_10_2.csv
2018-07-10T11:52:26.846407,2.341,-0.746,-0.271,-38.171,-122.744,3.476,12_10_2.csv
2018-07-10T11:52:26.895543,2.341,-0.746,-0.271,-6.159,-250.122,7.195,12_10_2.csv
2018-07-10T11:52:26.940664,3.08,-0.533,-1.877,27.256,-57.195,71.037,12_10_2.csv
2018-07-10T11:52:26.987795,0.376,-0.452,-0.138,-40.427,27.5,-40.122,12_10_2.csv
2018-07-10T11:52:27.043947,0.376,-0.452,-0.138,-126.524,66.159,30.671,12_10_2.csv
2018-07-10T11:52:27.102105,-0.437,-0.052,0.473,-106.463,38.902,66.159,12_10_2.csv
2018-07-10T11:52:27.143216,-0.437,-0.052,0.473,-72.622,-7.866,85.366,12_10_2.csv
2018-07-10T11:52:27.195857,0.084,0.183,0.049,-122.134,-2.988,28.293,12_10_2.csv
2018-07-10T11:52:27.237970,0.082,-0.021,0.142,-67.195,14.329,45.488,12_10_2.csv
2018-07-10T11:52:27.287606,0.082,-0.021,0.142,-8.354,17.988,45.61,12_10_2.csv
2018-07-10T11:52:27.342753,0.954,-0.647,-0.087,42.622,-0.671,14.573,12_10_2.csv
2018-07-10T11:52:27.392893,3.435,-1.215,-1.805,524.939,-171.89,-240.671,12_10_2.csv
2018-07-10T11:52:27.444030,3.435,-1.215,-1.805,346.707,5.061,-244.024,12_10_2.csv
2018-07-10T11:52:27.639140,-0.252,-0.185,0.077,-203.11,-24.268,-9.329,12_10_2.csv
2018-07-10T11:52:27.692786,-0.252,-0.185,0.077,-142.256,-104.634,38.354,12_10_2.csv
2018-07-10T11:52:27.737907,0.014,-0.134,0.072,-122.744,-115.061,103.293,12_10_2.csv
2018-07-10T11:52:27.792056,0.462,-0.306,-0.182,-88.537,-120.671,161.463,12_10_2.csv
2018-07-10T11:52:27.850213,0.462,-0.306,-0.182,25.244,-178.354,33.049,12_10_2.csv
2018-07-10T11:52:27.897345,2.998,-1.312,-1.729,241.403,-226.403,-15.915,12_10_2.csv
2018-07-10T11:52:27.943468,2.998,-1.312,-1.729,229.39,-15.732,-72.683,12_10_2.csv
2018-07-10T11:52:27.988595,1.878,-0.833,-1.493,-190.671,43.354,32.5,12_10_2.csv
2018-07-10T11:52:28.035721,-0.265,-0.29,0.43,-165.549,119.634,-4.146,12_10_2.csv
2018-07-10T11:52:28.092879,-0.265,-0.29,0.43,-73.902,116.281,-59.573,12_10_2.csv
2018-07-10T11:52:28.144016,-0.287,0.151,0.089,20.305,57.134,-61.463,12_10_2.csv
2018-07-10T11:52:28.195657,0.026,-0.152,0.069,-18.293,4.268,5.0,12_10_2.csv
2018-07-10T11:52:28.238773,0.026,-0.152,0.069,40.671,85.854,62.683,12_10_2.csv
2018-07-10T11:52:28.287403,0.13,-0.075,-0.028,138.781,-0.732,63.171,12_10_2.csv
2018-07-10T11:52:28.337538,0.13,-0.075,-0.028,64.512,-34.756,43.659,12_10_2.csv
2018-07-10T11:52:28.392688,2.097,-0.923,-0.537,239.939,-166.037,44.512,12_10_2.csv
2018-07-10T11:52:28.439814,2.962,-1.289,-1.426,164.756,-146.342,-16.28,12_10_2.csv
2018-07-10T11:52:28.485942,2.962,-1.289,-1.426,51.585,-13.415,-43.049,12_10_2.csv
2018-07-10T11:52:28.535074,0.488,-0.593,-0.235,-46.524,63.232,10.427,12_10_2.csv
2018-07-10T11:52:28.581205,0.488,-0.593,-0.235,-171.89,93.415,13.841,12_10_2.csv
2018-07-10T11:52:28.628330,-0.488,0.228,0.191,-212.073,129.878,-2.927,12_10_2.csv
2018-07-10T11:52:28.684486,-0.115,-0.235,0.208,-82.744,38.841,14.634,12_10_2.csv
2018-07-10T11:52:28.738630,-0.115,-0.235,0.208,-2.744,-5.61,-19.573,12_10_2.csv
2018-07-10T11:52:28.788770,0.025,-0.064,0.17,1.829,2.5,19.207,12_10_2.csv
2018-07-10T11:52:28.883028,0.861,-0.24,-0.226,-39.451,-97.378,-10.366,12_10_2.csv
2018-07-10T11:52:28.929152,3.1,-1.359,-1.28,130.0,-157.195,-23.598,12_10_2.csv
2018-07-10T11:52:28.973275,3.1,-1.359,-1.28,161.585,-27.073,-85.366,12_10_2.csv
2018-07-10T11:52:29.033436,1.846,-0.692,-1.232,-109.512,28.293,-36.89,12_10_2.csv
2018-07-10T11:52:29.097110,-0.186,-0.04,0.255,-22.866,84.024,-2.561,12_10_2.csv
2018-07-10T11:52:29.145239,-0.186,-0.04,0.255,-74.512,71.037,-0.549,12_10_2.csv
2018-07-10T11:52:29.192869,-0.326,0.065,0.292,-36.341,42.622,2.378,12_10_2.csv
2018-07-10T11:52:29.235985,0.026,-0.269,0.076,88.841,-53.11,-12.012,12_10_2.csv
2018-07-10T11:52:29.285122,0.026,-0.269,0.076,72.683,-31.22,18.537,12_10_2.csv
2018-07-10T11:52:29.339268,0.215,0.078,-0.116,45.61,-25.305,35.549,12_10_2.csv
2018-07-10T11:52:29.377375,0.215,0.078,-0.116,-41.037,-36.28,19.207,12_10_2.csv
2018-07-10T11:52:29.424501,2.029,-1.125,-0.782,-10.366,-123.232,2.317,12_10_2.csv
2018-07-10T11:52:29.472635,2.029,-1.125,-0.782,153.293,-104.878,0.61,12_10_2.csv
2018-07-10T11:52:29.518758,2.685,-0.999,-1.733,-108.476,43.293,-6.341,12_10_2.csv
2018-07-10T11:52:29.565385,0.471,-0.442,-0.263,-47.195,97.134,8.78,12_10_2.csv
2018-07-10T11:52:29.621036,0.471,-0.442,-0.263,-73.537,67.073,8.841,12_10_2.csv
2018-07-10T11:52:29.678689,-0.389,0.208,0.379,-48.049,83.171,-15.427,12_10_2.csv
2018-07-10T11:52:29.737347,-0.09,-0.241,0.153,-5.061,-5.488,-11.707,12_10_2.csv
2018-07-10T11:52:29.790489,-0.09,-0.241,0.153,15.671,-38.354,-3.11,12_10_2.csv
2018-07-10T11:52:29.831600,0.095,0.081,-0.032,28.415,-20.122,31.037,12_10_2.csv
2018-07-10T11:52:29.878225,0.095,0.081,-0.032,-0.122,-16.037,29.695,12_10_2.csv
2018-07-10T11:52:29.939389,1.121,-0.807,-0.432,6.037,-98.537,27.195,12_10_2.csv
2018-07-10T11:52:29.988020,2.755,-1.392,-1.946,185.061,-120.976,46.463,12_10_2.csv
2018-07-10T11:52:30.033642,2.755,-1.392,-1.946,15.671,-37.317,-4.268,12_10_2.csv
2018-07-10T11:52:30.081771,1.182,-0.876,-0.861,32.561,67.622,-1.098,12_10_2.csv
2018-07-10T11:52:30.127394,-0.173,0.261,0.572,-77.012,26.768,35.427,12_10_2.csv
2018-07-10T11:52:30.175024,-0.173,0.261,0.572,-110.366,65.732,-4.39,12_10_2.csv
2018-07-10T11:52:30.259254,-0.141,-0.02,0.298,-91.707,-69.146,-1.037,12_10_2.csv
2018-07-10T11:52:30.316408,-0.019,-0.081,-0.041,-17.073,-48.841,17.744,12_10_2.csv
2018-07-10T11:52:30.362538,0.338,-0.138,-0.15,102.134,-19.207,-39.207,12_10_2.csv
2018-07-10T11:52:30.412672,0.338,-0.138,-0.15,46.159,-12.256,-16.524,12_10_2.csv
2018-07-10T11:52:30.455792,2.332,-1.247,-1.687,12.5,-158.354,35.671,12_10_2.csv
2018-07-10T11:52:30.501916,2.332,-1.247,-1.687,79.085,-155.061,83.72,12_10_2.csv
2018-07-10T11:52:30.557068,1.708,-1.148,-1.923,-62.073,-63.11,38.293,12_10_2.csv
2018-07-10T11:52:30.618233,0.054,-0.209,-0.12,-52.5,56.524,-16.341,12_10_2.csv
2018-07-10T11:52:30.664362,0.054,-0.209,-0.12,-117.195,98.902,45.671,12_10_2.csv
2018-07-10T11:52:30.711488,-0.128,0.052,0.516,-63.537,74.329,61.463,12_10_2.csv
2018-07-10T11:52:30.753606,-0.128,0.052,0.516,-1.037,21.402,-2.195,12_10_2.csv
2018-07-10T11:52:30.804744,0.014,-0.103,0.04,93.841,-12.317,-40.366,12_10_2.csv
2018-07-10T11:52:30.860900,-0.053,0.026,-0.117,94.329,-23.78,-13.476,12_10_2.csv
2018-07-10T11:52:30.918054,-0.053,0.026,-0.117,41.28,-12.561,22.927,12_10_2.csv
2018-07-10T11:52:30.960174,1.148,-1.122,-1.041,20.427,-33.354,39.573,12_10_2.csv
2018-07-10T11:52:31.005295,1.896,-1.627,-2.559,97.317,-154.878,-18.963,12_10_2.csv
2018-07-10T11:52:31.051423,1.896,-1.627,-2.559,2.561,50.0,-25.854,12_10_2.csv
2018-07-10T11:52:31.096544,0.417,-0.905,-0.712,-182.805,69.024,68.537,12_10_2.csv
2018-07-10T11:52:31.161723,0.417,-0.905,-0.712,65.305,109.756,-22.073,12_10_2.csv
2018-07-10T11:52:31.204839,-0.234,0.324,0.372,113.293,154.756,-70.915,12_10_2.csv
2018-07-10T11:52:31.252973,-0.072,-0.094,0.158,-16.463,100.244,-37.073,12_10_2.csv
2018-07-10T11:52:31.302105,-0.072,-0.094,0.158,12.073,57.622,-40.122,12_10_2.csv
2018-07-10T11:52:31.348231,0.03,-0.068,-0.063,-15.061,36.585,0.122,12_10_2.csv
2018-07-10T11:52:31.395360,0.03,-0.068,-0.063,-21.951,12.805,15.915,12_10_2.csv
2018-07-10T11:52:31.447502,0.896,-0.437,-0.235,18.537,-66.89,-42.073,12_10_2.csv
2018-07-10T11:52:31.503655,2.738,-1.247,-1.384,-51.707,-46.585,7.195,12_10_2.csv
2018-07-10T11:52:31.620974,1.629,-0.988,-0.952,205.0,49.939,-10.976,12_10_2.csv
2018-07-10T11:52:31.722250,-0.271,-0.106,0.163,66.037,70.671,-17.744,12_10_2.csv
2018-07-10T11:52:31.768379,-0.341,0.052,0.146,-21.341,-18.293,4.634,12_10_2.csv
2018-07-10T11:52:31.816508,0.02,-0.206,0.221,-56.037,-22.622,16.28,12_10_2.csv
2018-07-10T11:52:31.868654,0.02,-0.206,0.221,-88.72,3.537,41.707,12_10_2.csv
2018-07-10T11:52:31.909763,0.267,0.012,-0.144,-165.183,40.915,45.183,12_10_2.csv
2018-07-10T11:52:31.954889,0.267,0.012,-0.144,-232.378,50.976,48.659,12_10_2.csv
2018-07-10T11:52:32.004021,2.136,-1.52,-0.581,-170.183,-74.207,35.61,12_10_2.csv
2018-07-10T11:52:32.050648,2.25,-1.063,-2.141,151.89,-79.878,-119.085,12_10_2.csv
2018-07-10T11:52:32.101286,2.25,-1.063,-2.141,48.293,-0.854,-93.902,12_10_2.csv
2018-07-10T11:52:32.150922,0.203,-0.551,-0.181,16.098,145.244,11.463,12_10_2.csv
2018-07-10T11:52:32.191083,0.203,-0.551,-0.181,-2.683,61.646,13.293,12_10_2.csv
2018-07-10T11:52:32.236707,-0.335,0.223,0.356,-33.476,28.293,21.037,12_10_2.csv
2018-07-10T11:52:32.286343,-0.335,0.223,0.356,-49.39,45.244,-17.317,12_10_2.csv
2018-07-10T11:52:32.330461,-0.077,-0.133,0.17,1.098,-4.634,-14.146,12_10_2.csv
2018-07-10T11:52:32.377593,0.096,-0.1,-0.041,46.524,13.537,15.671,12_10_2.csv
2018-07-10T11:52:32.430736,0.096,-0.1,-0.041,-4.39,19.756,32.256,12_10_2.csv
2018-07-10T11:52:32.471851,1.352,-1.154,-0.766,-79.39,-79.756,16.159,12_10_2.csv
2018-07-10T11:52:32.518978,1.352,-1.154,-0.766,13.171,-197.805,-92.256,12_10_2.csv
2018-07-10T11:52:32.568114,2.531,-1.198,-2.131,74.207,-70.854,-134.024,12_10_2.csv
2018-07-10T11:52:32.612233,0.918,-0.614,-0.748,-60.671,7.378,-41.951,12_10_2.csv
2018-07-10T11:52:32.660252,0.918,-0.614,-0.748,134.268,72.5,-52.744,12_10_2.csv
2018-07-10T11:52:32.711389,-0.325,0.229,0.495,-28.78,31.585,50.976,12_10_2.csv
2018-07-10T11:52:32.768547,-0.325,0.229,0.495,-27.256,-6.646,69.817,12_10_2.csv
2018-07-10T11:52:32.817680,-0.015,0.05,0.289,32.561,-29.146,-5.061,12_10_2.csv
2018-07-10T11:52:32.869319,0.023,-0.031,-0.067,37.134,-37.256,29.268,12_10_2.csv
2018-07-10T11:52:32.914440,0.023,-0.031,-0.067,19.695,-35.061,60.488,12_10_2.csv
2018-07-10T11:52:33.079871,2.167,-1.753,-1.718,22.439,-24.451,-44.085,12_10_2.csv
2018-07-10T11:52:33.136025,1.52,-1.335,-1.584,68.476,75.671,-21.768,12_10_2.csv
2018-07-10T11:52:33.179143,-0.155,0.089,0.205,15.244,100.549,-32.073,12_10_2.csv
2018-07-10T11:52:33.221256,-0.155,0.089,0.205,-64.085,58.78,13.902,12_10_2.csv
2018-07-10T11:52:33.269390,-0.24,0.24,0.313,-83.049,34.268,-9.207,12_10_2.csv
2018-07-10T11:52:33.314512,-0.24,0.24,0.313,-36.22,3.902,-26.463,12_10_2.csv
2018-07-10T11:52:33.363648,0.051,-0.231,0.042,44.268,-36.89,-34.329,12_10_2.csv
2018-07-10T11:52:33.418796,0.164,-0.071,-0.236,83.598,-27.195,3.659,12_10_2.csv
2018-07-10T11:52:33.471944,0.164,-0.071,-0.236,20.732,-32.561,5.0,12_10_2.csv
2018-07-10T11:52:33.518067,1.755,-1.408,-1.223,-54.695,-23.171,20.183,12_10_2.csv
2018-07-10T11:52:33.571215,1.755,-1.408,-1.223,-36.037,13.598,33.415,12_10_2.csv
2018-07-10T11:52:33.617339,1.978,-1.359,-1.906,-36.829,2.988,-34.634,12_10_2.csv
2018-07-10T11:52:33.663968,0.438,-0.474,-0.502,118.171,89.695,-32.622,12_10_2.csv
2018-07-10T11:52:33.717610,0.438,-0.474,-0.502,5.915,4.634,12.439,12_10_2.csv
2018-07-10T11:52:33.771254,-0.273,0.259,0.318,-49.207,30.366,18.354,12_10_2.csv
2018-07-10T11:52:33.823896,-0.065,-0.116,0.152,3.293,-0.732,-10.0,12_10_2.csv
2018-07-10T11:52:33.879545,-0.065,-0.116,0.152,33.049,-11.585,-22.805,12_10_2.csv
2018-07-10T11:52:33.926170,0.06,-0.104,0.021,28.476,-14.024,-4.634,12_10_2.csv
2018-07-10T11:52:33.971793,0.06,-0.104,0.021,16.037,-13.963,40.366,12_10_2.csv
2018-07-10T11:52:34.020424,0.917,-0.562,-0.785,-14.634,-112.683,-6.463,12_10_2.csv
2018-07-10T11:52:34.083593,2.069,-1.276,-2.07,122.927,-58.11,-119.878,12_10_2.csv
2018-07-10T11:52:34.133226,2.069,-1.276,-2.07,94.268,-83.415,-95.488,12_10_2.csv
2018-07-10T11:52:34.181355,1.021,-0.92,-1.161,93.354,64.939,-105.793,12_10_2.csv
2018-07-10T11:52:34.237506,-0.091,-0.072,0.086,20.549,6.098,-20.915,12_10_2.csv
2018-07-10T11:52:34.310202,-0.073,0.134,0.265,-81.585,43.598,44.024,12_10_2.csv
2018-07-10T11:52:34.423511,0.128,-0.038,0.162,-0.854,39.817,-8.415,12_10_2.csv
2018-07-10T11:52:34.487683,0.413,-0.283,-0.288,-14.451,45.976,8.78,12_10_2.csv
2018-07-10T11:52:34.534310,0.413,-0.283,-0.288,18.537,-8.537,3.415,12_10_2.csv
2018-07-10T11:52:34.582941,2.039,-1.222,-1.6,121.829,-85.915,-30.549,12_10_2.csv
2018-07-10T11:52:34.628564,1.922,-1.224,-1.641,-17.744,-34.268,28.537,12_10_2.csv
2018-07-10T11:52:34.675690,1.922,-1.224,-1.641,-118.293,86.646,77.622,12_10_2.csv
2018-07-10T11:52:34.748387,0.268,-0.228,-0.19,-80.976,117.866,40.61,12_10_2.csv
2018-07-10T11:52:34.804541,-0.353,0.168,0.383,-44.939,103.049,22.073,12_10_2.csv
2018-07-10T11:52:34.854677,-0.353,0.168,0.383,-23.354,-2.683,13.476,12_10_2.csv
2018-07-10T11:52:34.902806,0.022,-0.183,0.246,-31.402,-56.646,11.402,12_10_2.csv
2018-07-10T11:52:34.949566,0.001,-0.131,0.091,-26.585,9.634,41.707,12_10_2.csv
2018-07-10T11:52:35.002708,0.001,-0.131,0.091,-0.244,32.927,45.305,12_10_2.csv
2018-07-10T11:52:35.061871,0.771,-0.551,-0.889,-50.793,-17.683,54.329,12_10_2.csv
2018-07-10T11:52:35.118526,2.393,-1.501,-2.466,-14.817,-146.281,87.134,12_10_2.csv
2018-07-10T11:52:35.163148,2.393,-1.501,-2.466,104.329,61.768,4.085,12_10_2.csv
2018-07-10T11:52:35.209273,0.949,-0.801,-1.203,-35.549,-25.732,-113.902,12_10_2.csv
2018-07-10T11:52:35.270440,-0.369,0.071,0.444,6.341,149.329,17.561,12_10_2.csv
2018-07-10T11:52:35.319574,-0.369,0.071,0.444,-22.561,75.244,58.902,12_10_2.csv
2018-07-10T11:52:35.376730,-0.278,-0.047,-0.014,-65.915,77.012,23.78,12_10_2.csv
2018-07-10T11:52:35.425866,-0.278,-0.047,-0.014,-94.512,91.768,23.78,12_10_2.csv
2018-07-10T11:52:35.488033,-0.08,-0.306,-0.017,-15.427,-22.256,33.963,12_10_2.csv
2018-07-10T11:52:35.538172,0.641,-0.729,-0.311,20.244,-51.341,45.305,12_10_2.csv
2018-07-10T11:52:35.586302,0.641,-0.729,-0.311,-3.232,-93.11,65.976,12_10_2.csv
2018-07-10T11:52:35.701616,1.098,-0.953,-1.445,32.439,58.11,-88.963,12_10_2.csv
2018-07-10T11:52:35.762785,-0.403,-0.045,0.295,-64.024,89.207,-30.732,12_10_2.csv
2018-07-10T11:52:35.819940,-0.403,-0.045,0.295,-57.073,29.939,-9.634,12_10_2.csv
2018-07-10T11:52:35.867069,-0.103,0.047,0.322,16.341,4.146,-31.89,12_10_2.csv
2018-07-10T11:52:35.915200,0.053,-0.091,0.002,24.146,26.098,-54.329,12_10_2.csv
2018-07-10T11:52:35.959321,0.053,-0.091,0.002,6.89,59.268,-5.122,12_10_2.csv
2018-07-10T11:52:36.003440,0.211,-0.231,-0.268,9.817,14.634,13.415,12_10_2.csv
2018-07-10T11:52:36.057591,0.211,-0.231,-0.268,-19.39,-27.256,28.537,12_10_2.csv
2018-07-10T11:52:36.106725,2.073,-1.365,-1.528,-65.122,-93.963,68.963,12_10_2.csv
2018-07-10T11:52:36.165886,1.735,-1.292,-1.803,72.317,-98.476,-58.659,12_10_2.csv
2018-07-10T11:52:36.213014,1.735,-1.292,-1.803,102.683,-13.78,-74.329,12_10_2.csv
2018-07-10T11:52:36.254125,0.148,-0.099,-0.083,126.585,17.988,-31.341,12_10_2.csv
2018-07-10T11:52:36.300251,0.148,-0.099,-0.083,115.61,9.817,-7.195,12_10_2.csv
2018-07-10T11:52:36.363421,-0.107,0.014,0.294,-190.671,133.11,-44.024,12_10_2.csv
2018-07-10T11:52:36.408548,-0.114,-0.313,-0.04,-106.281,59.756,-30.854,12_10_2.csv
2018-07-10T11:52:36.456676,-0.114,-0.313,-0.04,-41.341,11.28,30.793,12_10_2.csv
2018-07-10T11:52:36.503810,0.008,0.209,-0.008,-26.159,8.11,53.598,12_10_2.csv
2018-07-10T11:52:36.549933,0.008,0.209,-0.008,-33.476,31.341,37.561,12_10_2.csv
2018-07-10T11:52:36.596060,1.318,-0.522,-0.594,-93.049,-175.061,-15.488,12_10_2.csv
2018-07-10T11:52:36.652211,2.897,-1.774,-2.01,-31.524,-257.622,66.098,12_10_2.csv
2018-07-10T11:52:36.716264,0.663,-0.505,-1.307,148.537,286.463,-135.488,12_10_2.csv
2018-07-10T11:52:36.753365,0.663,-0.505,-1.307,-42.134,20.61,-48.232,12_10_2.csv
2018-07-10T11:52:36.806511,-0.331,0.016,0.31,-142.622,-1.463,87.561,12_10_2.csv
2018-07-10T11:52:36.845615,-0.331,0.016,0.31,1.159,15.183,75.061,12_10_2.csv
2018-07-10T11:52:36.897760,-0.008,-0.062,0.347,52.317,-33.171,28.963,12_10_2.csv
2018-07-10T11:52:36.954914,0.468,-0.16,-0.373,16.951,-43.963,-37.073,12_10_2.csv
2018-07-10T11:52:37.070230,0.468,-0.16,-0.373,5.915,-5.244,16.159,12_10_2.csv
2018-07-10T11:52:37.112345,0.468,-0.16,-0.373,52.256,-43.354,-52.805,12_10_2.csv
2018-07-10T11:52:37.160479,2.557,-1.513,-1.353,123.537,-141.342,-70.183,12_10_2.csv
2018-07-10T11:52:37.205604,1.75,-0.932,-1.726,219.024,12.988,-216.342,12_10_2.csv
2018-07-10T11:52:37.254736,1.75,-0.932,-1.726,-29.39,70.549,-100.549,12_10_2.csv
2018-07-10T11:52:37.310387,-0.074,-0.261,0.162,-210.0,125.0,146.707,12_10_2.csv
2018-07-10T11:52:37.367541,-0.281,0.279,0.155,-72.561,86.524,27.439,12_10_2.csv
2018-07-10T11:52:37.414165,-0.281,0.279,0.155,-103.963,83.293,9.024,12_10_2.csv
2018-07-10T11:52:37.461794,-0.031,-0.36,0.11,-49.329,2.256,-12.622,12_10_2.csv
2018-07-10T11:52:37.503907,-0.031,-0.36,0.11,-1.341,-24.878,-6.768,12_10_2.csv
2018-07-10T11:52:37.556550,0.13,-0.1,0.01,37.927,-6.585,34.024,12_10_2.csv
2018-07-10T11:52:37.613703,2.041,-1.037,-0.83,24.451,-51.402,-12.988,12_10_2.csv
2018-07-10T11:52:37.660832,2.041,-1.037,-0.83,157.195,-156.281,-35.305,12_10_2.csv
2018-07-10T11:52:37.706955,2.81,-0.978,-1.962,197.683,-75.183,-54.085,12_10_2.csv
2018-07-10T11:52:37.770128,0.11,-0.549,-0.009,-59.817,151.585,35.244,12_10_2.csv
2018-07-10T11:52:37.816251,0.11,-0.549,-0.009,-1.341,39.817,55.732,12_10_2.csv
2018-07-10T11:52:37.864385,-0.386,0.242,0.321,-30.244,38.11,16.951,12_10_2.csv
2018-07-10T11:52:37.918530,-0.386,0.242,0.321,-60.671,32.256,-27.744,12_10_2.csv
2018-07-10T11:52:37.971549,0.058,-0.201,0.223,8.354,-45.427,-8.659,12_10_2.csv
