time,accel_x_list,accel_y_list,accel_z_list,gyro_x_list,gyro_y_list,gyro_z_list,filename
2018-07-10T11:51:29.024822,0.749,-0.553,-0.23,-5.61,3.354,0.976,12_10_1.csv
2018-07-10T11:51:29.073454,0.749,-0.553,-0.23,-5.61,3.354,0.976,12_10_1.csv
2018-07-10T11:51:29.130108,0.75,-0.547,-0.218,-2.195,1.89,0.0,12_10_1.csv
2018-07-10T11:51:29.173728,0.749,-0.547,-0.22,0.976,1.22,-1.524,12_10_1.csv
2018-07-10T11:51:29.221358,0.749,-0.547,-0.22,3.78,0.122,-3.049,12_10_1.csv
2018-07-10T11:51:29.272497,0.74,-0.563,-0.236,5.976,-2.256,-3.72,12_10_1.csv
2018-07-10T11:51:29.322634,0.74,-0.563,-0.236,13.476,-5.793,-5.915,12_10_1.csv
2018-07-10T11:51:29.376782,0.68,-0.569,-0.216,39.207,-25.244,-17.805,12_10_1.csv
2018-07-10T11:51:29.441959,0.385,-0.407,-0.155,40.61,-23.11,-12.744,12_10_1.csv
2018-07-10T11:51:29.489091,0.387,-0.33,-0.139,65.427,-8.293,20.427,12_10_1.csv
2018-07-10T11:51:29.538222,0.387,-0.33,-0.139,103.902,9.451,12.378,12_10_1.csv
2018-07-10T11:51:29.579836,1.075,-0.752,-0.063,64.634,-3.293,-27.805,12_10_1.csv
2018-07-10T11:51:29.630474,1.075,-0.752,-0.063,89.573,-4.939,-50.366,12_10_1.csv
2018-07-10T11:51:29.697659,1.966,-1.344,-0.365,-51.829,-9.573,-16.037,12_10_1.csv
2018-07-10T11:51:29.750802,1.588,-1.313,-0.556,-167.988,-19.756,4.146,12_10_1.csv
2018-07-10T11:51:29.797933,1.588,-1.313,-0.556,-191.22,35.732,37.439,12_10_1.csv
2018-07-10T11:51:29.847065,-0.069,-0.263,-0.054,-145.366,136.098,52.317,12_10_1.csv
2018-07-10T11:51:29.892191,-0.321,0.179,0.412,-129.878,-36.159,71.646,12_10_1.csv
2018-07-10T11:51:29.959371,-0.321,0.179,0.412,-7.561,-81.22,80.366,12_10_1.csv
2018-07-10T11:51:30.016529,0.226,0.019,0.244,99.329,-25.549,-19.695,12_10_1.csv
2018-07-10T11:51:30.072181,0.237,0.022,-0.142,15.305,70.488,26.89,12_10_1.csv
2018-07-10T11:51:30.110787,0.237,0.022,-0.142,-39.024,36.402,30.793,12_10_1.csv
2018-07-10T11:51:30.162927,2.005,-1.429,-0.603,25.061,-58.902,1.098,12_10_1.csv
2018-07-10T11:51:30.266209,2.395,-1.762,-1.29,-44.085,-10.732,-38.476,12_10_1.csv
2018-07-10T11:51:30.316348,0.342,-0.561,-0.274,-147.866,173.293,4.756,12_10_1.csv
2018-07-10T11:51:30.364476,0.342,-0.561,-0.274,-42.5,161.524,9.024,12_10_1.csv
2018-07-10T11:51:30.408601,-0.431,0.346,0.311,-33.354,34.024,46.098,12_10_1.csv
2018-07-10T11:51:30.453722,-0.431,0.346,0.311,6.89,11.098,-32.805,12_10_1.csv
2018-07-10T11:51:30.503357,0.109,-0.092,0.17,73.659,-48.415,-7.073,12_10_1.csv
2018-07-10T11:51:30.547977,0.019,-0.045,-0.061,99.573,29.878,8.293,12_10_1.csv
2018-07-10T11:51:30.596107,0.019,-0.045,-0.061,101.22,-26.768,-3.902,12_10_1.csv
2018-07-10T11:51:30.651254,1.116,-0.542,-0.251,47.683,-101.22,-25.671,12_10_1.csv
2018-07-10T11:51:30.705901,2.863,-1.402,-1.111,-36.463,-50.793,-37.256,12_10_1.csv
2018-07-10T11:51:30.754532,2.863,-1.402,-1.111,70.61,57.683,-21.037,12_10_1.csv
2018-07-10T11:51:30.801658,1.435,-0.865,-0.818,73.537,-50.0,-45.122,12_10_1.csv
2018-07-10T11:51:30.849790,1.435,-0.865,-0.818,-154.878,68.171,44.085,12_10_1.csv
2018-07-10T11:51:30.894911,-0.346,0.008,0.345,-34.573,105.122,35.793,12_10_1.csv
2018-07-10T11:51:30.946552,-0.188,0.039,0.184,-46.341,-10.549,1.28,12_10_1.csv
2018-07-10T11:51:31.005710,-0.188,0.039,0.184,21.28,-37.195,-29.939,12_10_1.csv
2018-07-10T11:51:31.050330,0.109,-0.074,-0.043,58.598,-15.915,9.756,12_10_1.csv
2018-07-10T11:51:31.103473,0.581,-0.203,-0.205,-9.573,-38.11,-3.11,12_10_1.csv
2018-07-10T11:51:31.143580,0.581,-0.203,-0.205,-44.085,-82.5,-30.0,12_10_1.csv
2018-07-10T11:51:31.190206,2.878,-1.334,-1.095,-36.341,-144.939,-66.098,12_10_1.csv
2018-07-10T11:51:31.257887,2.878,-1.334,-1.095,8.537,48.476,-27.988,12_10_1.csv
2018-07-10T11:51:31.319553,1.967,-0.89,-1.259,-56.89,6.951,-30.122,12_10_1.csv
2018-07-10T11:51:31.366680,-0.045,-0.346,0.043,-137.744,76.951,76.22,12_10_1.csv
2018-07-10T11:51:31.440377,-0.444,0.298,0.301,-74.634,46.159,53.232,12_10_1.csv
2018-07-10T11:51:31.487503,-0.444,0.298,0.301,-56.768,-65.976,17.561,12_10_1.csv
2018-07-10T11:51:31.554183,0.161,-0.14,0.194,89.634,-72.439,-14.756,12_10_1.csv
2018-07-10T11:51:31.629886,0.283,-0.016,-0.111,-12.012,69.39,68.171,12_10_1.csv
2018-07-10T11:51:31.672500,2.142,-1.044,-0.547,9.634,-26.28,-9.329,12_10_1.csv
2018-07-10T11:51:31.721133,2.142,-1.044,-0.547,-8.902,-122.378,-112.805,12_10_1.csv
2018-07-10T11:51:31.768259,2.562,-1.183,-1.139,27.5,214.39,-50.366,12_10_1.csv
2018-07-10T11:51:31.814388,2.562,-1.183,-1.139,174.207,139.512,-73.415,12_10_1.csv
2018-07-10T11:51:31.861514,0.591,-0.645,-0.139,-178.354,35.183,33.049,12_10_1.csv
2018-07-10T11:51:31.914661,-0.402,0.189,0.396,-76.22,-19.207,15.183,12_10_1.csv
2018-07-10T11:51:31.971815,-0.402,0.189,0.396,-158.781,67.134,-14.39,12_10_1.csv
2018-07-10T11:51:32.020951,-0.012,-0.134,0.243,-11.768,-51.89,-60.366,12_10_1.csv
2018-07-10T11:51:32.069080,0.144,0.101,-0.169,100.61,-41.768,58.659,12_10_1.csv
2018-07-10T11:51:32.114206,0.144,0.101,-0.169,39.939,-83.963,28.902,12_10_1.csv
2018-07-10T11:51:32.161333,1.822,-0.763,-0.509,-6.28,-118.902,1.341,12_10_1.csv
2018-07-10T11:51:32.210468,1.822,-0.763,-0.509,39.207,-141.281,-44.756,12_10_1.csv
2018-07-10T11:51:32.269627,2.739,-1.09,-1.727,18.537,114.024,-34.695,12_10_1.csv
2018-07-10T11:51:32.313752,0.609,-0.635,-0.608,-193.049,59.268,-44.939,12_10_1.csv
2018-07-10T11:51:32.362885,0.609,-0.635,-0.608,-117.805,65.305,38.598,12_10_1.csv
2018-07-10T11:51:32.413023,-0.509,0.282,0.583,49.878,22.195,71.098,12_10_1.csv
2018-07-10T11:51:32.456139,-0.509,0.282,0.583,11.037,-19.695,82.805,12_10_1.csv
2018-07-10T11:51:32.510289,0.024,-0.101,0.196,-141.524,-68.293,-1.463,12_10_1.csv
2018-07-10T11:51:32.564434,0.184,0.061,-0.086,12.988,-48.841,41.037,12_10_1.csv
2018-07-10T11:51:32.611062,0.184,0.061,-0.086,43.354,-21.524,1.22,12_10_1.csv
2018-07-10T11:51:32.660695,1.197,-0.472,-0.512,47.866,4.146,-58.293,12_10_1.csv
2018-07-10T11:51:32.706819,2.721,-1.136,-1.983,44.634,-100.305,-17.805,12_10_1.csv
2018-07-10T11:51:32.753445,2.721,-1.136,-1.983,192.134,63.415,-92.5,12_10_1.csv
2018-07-10T11:51:32.800069,0.977,-0.558,-0.908,37.378,2.866,-66.768,12_10_1.csv
2018-07-10T11:51:32.847196,0.977,-0.558,-0.908,-137.622,42.378,69.878,12_10_1.csv
2018-07-10T11:51:32.894323,-0.339,-0.023,0.389,38.354,46.037,23.841,12_10_1.csv
2018-07-10T11:51:33.003117,-0.104,0.144,0.155,29.939,-70.061,-25.671,12_10_1.csv
2018-07-10T11:51:33.055257,0.095,-0.089,-0.027,33.11,-13.11,19.451,12_10_1.csv
2018-07-10T11:51:33.098375,0.095,-0.089,-0.027,36.707,20.427,27.317,12_10_1.csv
2018-07-10T11:51:33.152018,0.833,-0.459,-0.402,-32.683,-31.098,14.695,12_10_1.csv
2018-07-10T11:51:33.205662,2.679,-1.357,-1.658,27.927,-116.707,-33.049,12_10_1.csv
2018-07-10T11:51:33.252288,2.679,-1.357,-1.658,98.415,58.78,-37.744,12_10_1.csv
2018-07-10T11:51:33.302422,1.292,-0.621,-1.351,85.0,57.561,-96.28,12_10_1.csv
2018-07-10T11:51:33.346039,1.292,-0.621,-1.351,-198.781,51.159,30.915,12_10_1.csv
2018-07-10T11:51:33.409710,-0.188,-0.275,0.28,16.098,27.378,57.866,12_10_1.csv
2018-07-10T11:51:33.470373,-0.176,0.213,0.438,35.854,-20.305,20.732,12_10_1.csv
2018-07-10T11:51:33.521009,0.135,0.009,0.014,-3.293,-48.841,-7.195,12_10_1.csv
2018-07-10T11:51:33.568640,0.135,0.009,0.014,27.744,-14.024,24.207,12_10_1.csv
2018-07-10T11:51:33.631310,0.534,-0.166,-0.346,19.939,-63.354,-13.415,12_10_1.csv
2018-07-10T11:51:33.687964,2.609,-1.201,-1.577,17.622,-88.11,-68.354,12_10_1.csv
2018-07-10T11:51:33.736093,2.609,-1.201,-1.577,-1.098,110.915,-57.317,12_10_1.csv
2018-07-10T11:51:33.787235,1.729,-0.951,-1.664,44.756,105.305,-114.329,12_10_1.csv
2018-07-10T11:51:33.849405,-0.07,-0.338,0.141,-146.281,102.378,97.134,12_10_1.csv
2018-07-10T11:51:33.894024,-0.07,-0.338,0.141,-24.146,69.207,69.817,12_10_1.csv
2018-07-10T11:51:33.941152,-0.296,0.282,0.481,-1.402,-15.976,55.305,12_10_1.csv
2018-07-10T11:51:33.985269,-0.296,0.282,0.481,22.988,-47.744,2.561,12_10_1.csv
2018-07-10T11:51:34.037409,0.107,-0.108,0.136,-2.744,-11.951,33.78,12_10_1.csv
2018-07-10T11:51:34.092056,0.198,0.028,-0.193,-17.439,-16.463,77.866,12_10_1.csv
2018-07-10T11:51:34.149209,0.198,0.028,-0.193,-20.183,-68.232,22.012,12_10_1.csv
2018-07-10T11:51:34.204357,1.953,-0.82,-0.928,25.366,-148.171,-79.695,12_10_1.csv
2018-07-10T11:51:34.253991,2.331,-1.115,-2.141,19.451,97.134,-72.012,12_10_1.csv
2018-07-10T11:51:34.360777,0.448,-0.445,-0.629,-231.098,26.585,144.451,12_10_1.csv
2018-07-10T11:51:34.407904,-0.47,-0.198,0.512,-17.256,46.768,48.841,12_10_1.csv
2018-07-10T11:51:34.464055,-0.47,-0.198,0.512,71.524,51.402,30.305,12_10_1.csv
2018-07-10T11:51:34.523213,0.009,0.073,0.207,-74.634,-91.707,17.683,12_10_1.csv
2018-07-10T11:51:34.564323,0.26,0.284,-0.11,-67.256,-68.293,89.451,12_10_1.csv
2018-07-10T11:51:34.613455,0.26,0.284,-0.11,-35.732,-21.646,48.476,12_10_1.csv
2018-07-10T11:51:34.662086,1.407,-1.021,-0.801,38.293,-43.11,-82.988,12_10_1.csv
2018-07-10T11:51:34.706204,1.407,-1.021,-0.801,176.098,-114.512,-207.134,12_10_1.csv
2018-07-10T11:51:34.756840,2.386,-1.165,-2.71,116.402,-5.671,-4.939,12_10_1.csv
2018-07-10T11:51:34.806975,0.564,-0.549,-0.523,-137.744,4.817,-6.951,12_10_1.csv
2018-07-10T11:51:34.846080,0.564,-0.549,-0.523,36.524,156.707,49.329,12_10_1.csv
2018-07-10T11:51:34.895212,-0.275,0.415,0.722,-75.366,52.317,95.305,12_10_1.csv
2018-07-10T11:51:34.938829,-0.275,0.415,0.722,28.902,11.22,-82.317,12_10_1.csv
2018-07-10T11:51:34.995983,0.106,0.059,0.06,56.524,23.841,-99.756,12_10_1.csv
2018-07-10T11:51:35.052133,-0.013,-0.117,-0.043,21.524,36.524,14.756,12_10_1.csv
2018-07-10T11:51:35.099761,-0.013,-0.117,-0.043,56.768,24.939,-4.085,12_10_1.csv
2018-07-10T11:51:35.141372,0.734,-0.43,-0.279,58.841,-20.366,-30.183,12_10_1.csv
2018-07-10T11:51:35.191507,0.734,-0.43,-0.279,65.549,-52.439,-31.402,12_10_1.csv
2018-07-10T11:51:35.236127,3.096,-1.229,-1.736,140.549,-115.305,-49.268,12_10_1.csv
2018-07-10T11:51:35.284757,1.444,-0.712,-1.292,-23.537,14.573,-89.39,12_10_1.csv
2018-07-10T11:51:35.341657,1.444,-0.712,-1.292,-290.366,153.537,82.744,12_10_1.csv
2018-07-10T11:51:35.392794,-0.605,-0.147,0.562,-136.89,108.415,62.378,12_10_1.csv
2018-07-10T11:51:35.439921,-0.605,-0.147,0.562,22.927,-12.439,40.0,12_10_1.csv
2018-07-10T11:51:35.488050,-0.066,0.152,0.232,-20.183,-108.171,-20.183,12_10_1.csv
2018-07-10T11:51:35.535678,0.136,-0.04,-0.075,24.512,-1.829,5.671,12_10_1.csv
2018-07-10T11:51:35.583807,0.136,-0.04,-0.075,47.439,42.317,34.207,12_10_1.csv
2018-07-10T11:51:35.639457,0.426,-0.242,-0.158,13.78,22.073,-1.89,12_10_1.csv
2018-07-10T11:51:36.035031,0.091,-0.074,-0.064,139.207,-116.159,26.585,12_10_1.csv
2018-07-10T11:51:36.079154,0.091,-0.074,-0.064,114.39,-32.683,61.28,12_10_1.csv
2018-07-10T11:51:36.127283,0.204,0.006,-0.166,-6.28,-30.305,12.866,12_10_1.csv
2018-07-10T11:51:36.193465,2.583,-1.257,-1.335,44.451,-116.951,10.488,12_10_1.csv
2018-07-10T11:51:36.239091,2.583,-1.257,-1.335,60.671,-147.378,-4.939,12_10_1.csv
2018-07-10T11:51:36.294699,2.171,-0.971,-2.003,-124.878,102.988,-83.171,12_10_1.csv
2018-07-10T11:51:36.347843,-0.35,-0.279,0.128,-335.061,74.573,72.378,12_10_1.csv
2018-07-10T11:51:36.391964,-0.35,-0.279,0.128,-121.402,-3.72,106.524,12_10_1.csv
2018-07-10T11:51:36.441098,-0.165,0.022,0.489,57.012,-27.5,35.793,12_10_1.csv
2018-07-10T11:51:36.485220,0.168,-0.021,0.128,36.402,-60.427,-26.646,12_10_1.csv
2018-07-10T11:51:36.540370,0.168,-0.021,0.128,38.476,-16.524,53.598,12_10_1.csv
2018-07-10T11:51:36.586496,-0.006,0.116,-0.131,57.561,11.585,66.768,12_10_1.csv
2018-07-10T11:51:36.643151,-0.006,0.116,-0.131,38.537,-28.841,-9.451,12_10_1.csv
2018-07-10T11:51:36.688775,1.676,-0.962,-0.899,109.207,-116.646,-32.012,12_10_1.csv
2018-07-10T11:51:36.736904,2.654,-1.374,-2.406,52.622,-42.439,-37.256,12_10_1.csv
2018-07-10T11:51:36.782032,2.654,-1.374,-2.406,-73.049,83.232,-50.305,12_10_1.csv
2018-07-10T11:51:36.830162,0.262,-0.678,-0.284,-194.207,77.134,72.012,12_10_1.csv
2018-07-10T11:51:36.882304,0.262,-0.678,-0.284,-96.707,64.573,83.537,12_10_1.csv
2018-07-10T11:51:36.939961,-0.332,0.318,0.513,5.671,-15.976,-6.951,12_10_1.csv
2018-07-10T11:51:36.988594,0.143,-0.022,0.106,-47.378,-22.012,-39.939,12_10_1.csv
2018-07-10T11:51:37.197516,0.789,-0.501,-0.468,74.939,-59.268,-11.89,12_10_1.csv
2018-07-10T11:51:37.238626,2.734,-1.45,-1.906,91.524,-162.012,5.732,12_10_1.csv
2018-07-10T11:51:37.283752,2.734,-1.45,-1.906,110.915,-8.11,-56.768,12_10_1.csv
2018-07-10T11:51:37.337897,1.152,-0.835,-1.182,-156.281,87.012,58.476,12_10_1.csv
2018-07-10T11:51:37.392048,-0.25,0.046,0.425,-15.671,50.793,23.659,12_10_1.csv
2018-07-10T11:51:37.440177,-0.25,0.046,0.425,-27.866,19.878,21.585,12_10_1.csv
2018-07-10T11:51:37.488308,-0.034,0.028,0.187,-32.378,2.866,-8.354,12_10_1.csv
2018-07-10T11:51:37.533429,0.063,-0.08,-0.061,11.707,18.841,19.024,12_10_1.csv
2018-07-10T11:51:37.579553,0.063,-0.08,-0.061,39.268,40.183,18.72,12_10_1.csv
2018-07-10T11:51:37.629690,0.386,-0.187,-0.26,-2.195,27.744,2.683,12_10_1.csv
2018-07-10T11:51:37.674811,0.386,-0.187,-0.26,0.366,-12.988,-4.146,12_10_1.csv
2018-07-10T11:51:37.721942,2.518,-1.203,-1.172,15.976,-105.122,5.122,12_10_1.csv
2018-07-10T11:51:37.767063,2.518,-1.203,-1.172,58.78,-48.902,18.659,12_10_1.csv
2018-07-10T11:51:37.818205,2.039,-0.906,-1.568,-72.439,63.72,9.756,12_10_1.csv
2018-07-10T11:51:37.860319,0.057,-0.32,0.116,-14.39,60.0,36.768,12_10_1.csv
2018-07-10T11:51:37.908452,0.057,-0.32,0.116,-3.78,77.195,9.268,12_10_1.csv
2018-07-10T11:51:37.954576,-0.354,0.317,0.229,-99.756,90.244,-0.244,12_10_1.csv
2018-07-10T11:51:38.001704,-0.354,0.317,0.229,-82.195,41.341,-12.256,12_10_1.csv
2018-07-10T11:51:38.056854,0.053,-0.321,0.095,-41.463,15.488,24.512,12_10_1.csv
2018-07-10T11:51:38.119025,0.177,0.048,-0.046,2.012,20.0,49.878,12_10_1.csv
2018-07-10T11:51:38.161139,0.177,0.048,-0.046,-15.061,3.11,13.11,12_10_1.csv
2018-07-10T11:51:38.206763,1.917,-1.002,-0.724,-44.939,-57.927,0.915,12_10_1.csv
2018-07-10T11:51:38.255396,2.48,-0.954,-1.768,172.5,-33.78,-48.598,12_10_1.csv
2018-07-10T11:51:38.304530,2.48,-0.954,-1.768,120.366,37.012,-145.122,12_10_1.csv
2018-07-10T11:51:38.356672,0.617,-0.518,-0.465,-152.378,46.159,-10.122,12_10_1.csv
2018-07-10T11:51:38.447923,-0.315,0.225,0.361,40.915,75.122,-5.854,12_10_1.csv
2018-07-10T11:51:38.489035,-0.315,0.225,0.361,-66.402,103.354,-15.0,12_10_1.csv
2018-07-10T11:51:38.549200,-0.086,-0.198,0.172,-54.024,-50.183,5.0,12_10_1.csv
2018-07-10T11:51:38.599838,0.099,-0.019,-0.076,82.439,-41.829,2.805,12_10_1.csv
2018-07-10T11:51:38.645464,0.099,-0.019,-0.076,122.378,-19.207,-11.463,12_10_1.csv
2018-07-10T11:51:38.694097,1.237,-0.518,-0.507,13.537,-33.659,-1.28,12_10_1.csv
2018-07-10T11:51:38.752253,2.593,-1.193,-1.57,67.073,-103.11,62.317,12_10_1.csv
2018-07-10T11:51:38.799379,2.593,-1.193,-1.57,229.939,43.232,-108.232,12_10_1.csv
2018-07-10T11:51:38.847007,1.181,-0.685,-1.124,9.39,-13.963,-99.695,12_10_1.csv
2018-07-10T11:51:38.893131,1.181,-0.685,-1.124,-135.793,68.78,37.805,12_10_1.csv
2018-07-10T11:51:38.938754,-0.144,-0.061,0.267,-84.268,63.78,50.061,12_10_1.csv
2018-07-10T11:51:38.995409,-0.165,0.014,0.319,-54.756,40.61,-2.195,12_10_1.csv
2018-07-10T11:51:39.053065,-0.165,0.014,0.319,-15.305,-21.829,0.854,12_10_1.csv
2018-07-10T11:51:39.110722,0.11,-0.055,0.052,-43.598,17.012,59.512,12_10_1.csv
2018-07-10T11:51:39.163868,0.562,-0.13,-0.385,-48.476,21.585,21.89,12_10_1.csv
2018-07-10T11:51:39.204979,0.562,-0.13,-0.385,-42.622,-14.39,18.963,12_10_1.csv
2018-07-10T11:51:39.255617,2.889,-1.708,-1.51,-31.89,-117.622,30.732,12_10_1.csv
2018-07-10T11:51:39.312272,1.295,-0.378,-1.472,153.354,140.183,-50.366,12_10_1.csv
2018-07-10T11:51:39.362406,1.295,-0.378,-1.472,-19.085,91.402,-85.122,12_10_1.csv
2018-07-10T11:51:39.406530,-0.276,-0.135,0.315,-177.195,-68.841,72.988,12_10_1.csv
2018-07-10T11:51:39.455662,-0.276,-0.135,0.315,5.488,-79.39,52.561,12_10_1.csv
2018-07-10T11:51:39.501790,-0.042,-0.031,0.358,45.244,-29.085,-54.268,12_10_1.csv
2018-07-10T11:51:39.549919,0.053,0.048,-0.058,99.512,-53.659,-28.598,12_10_1.csv
2018-07-10T11:51:39.608081,0.053,0.048,-0.058,104.512,0.976,23.902,12_10_1.csv
2018-07-10T11:51:39.665234,0.419,-0.079,-0.336,-7.439,-17.988,0.671,12_10_1.csv
2018-07-10T11:51:39.706347,2.616,-1.354,-1.636,-91.28,-52.805,59.817,12_10_1.csv
2018-07-10T11:51:39.816646,1.761,-0.656,-1.857,8.537,179.512,45.854,12_10_1.csv
2018-07-10T11:51:39.868786,-0.19,-0.31,0.175,-161.22,-10.0,72.012,12_10_1.csv
2018-07-10T11:51:39.907893,-0.19,-0.31,0.175,73.11,-30.915,15.61,12_10_1.csv
2018-07-10T11:51:39.959030,-0.176,0.115,0.394,88.232,2.866,-5.305,12_10_1.csv
2018-07-10T11:51:40.016963,-0.176,0.115,0.394,20.305,19.573,-8.841,12_10_1.csv
2018-07-10T11:51:40.064090,0.048,-0.144,0.081,52.012,4.756,-15.305,12_10_1.csv
2018-07-10T11:51:40.112224,0.173,-0.035,-0.048,42.317,7.073,44.146,12_10_1.csv
2018-07-10T11:51:40.157345,0.173,-0.035,-0.048,55.122,-4.207,32.134,12_10_1.csv
2018-07-10T11:51:40.205478,1.662,-0.949,-0.944,54.512,-46.646,-19.451,12_10_1.csv
2018-07-10T11:51:40.266642,2.41,-1.282,-2.198,30.366,-115.549,-46.768,12_10_1.csv
2018-07-10T11:51:40.317785,2.41,-1.282,-2.198,36.829,-29.146,-104.268,12_10_1.csv
2018-07-10T11:51:40.364912,0.427,-0.653,-0.546,-94.207,133.293,31.341,12_10_1.csv
2018-07-10T11:51:40.413045,0.427,-0.653,-0.546,-16.768,96.707,22.744,12_10_1.csv
2018-07-10T11:51:40.456161,-0.364,0.249,0.505,32.439,3.354,-5.732,12_10_1.csv
2018-07-10T11:51:40.508306,-0.033,-0.039,0.09,10.976,-18.354,-35.0,12_10_1.csv
2018-07-10T11:51:40.556435,-0.033,-0.039,0.09,30.61,-25.854,-23.537,12_10_1.csv
2018-07-10T11:51:40.612589,0.074,-0.033,-0.104,29.634,1.159,2.866,12_10_1.csv
2018-07-10T11:51:40.658713,0.074,-0.033,-0.104,34.207,8.11,12.256,12_10_1.csv
2018-07-10T11:51:40.706847,0.712,-0.39,-0.28,-3.354,7.927,-0.183,12_10_1.csv
2018-07-10T11:51:40.757984,2.734,-1.409,-1.983,71.89,-182.5,-16.951,12_10_1.csv
2018-07-10T11:51:40.808123,2.734,-1.409,-1.983,294.146,11.89,-168.903,12_10_1.csv
2018-07-10T11:51:40.858258,1.332,-0.815,-1.472,81.098,-23.354,-132.073,12_10_1.csv
2018-07-10T11:51:40.908397,-0.321,-0.31,0.385,-130.061,93.049,56.22,12_10_1.csv
2018-07-10T11:51:40.955523,-0.321,-0.31,0.385,17.866,64.207,33.049,12_10_1.csv
2018-07-10T11:51:41.002655,-0.177,0.094,0.364,52.195,13.902,2.744,12_10_1.csv
2018-07-10T11:51:41.048779,-0.177,0.094,0.364,-2.134,-49.39,-13.78,12_10_1.csv
2018-07-10T11:51:41.099921,0.17,0.035,0.018,-42.561,-42.195,24.512,12_10_1.csv
2018-07-10T11:51:41.181141,0.179,-0.011,-0.264,12.317,12.683,0.671,12_10_1.csv
2018-07-10T11:51:41.227267,0.179,-0.011,-0.264,-11.89,-9.939,-16.524,12_10_1.csv
2018-07-10T11:51:41.267375,2.255,-1.526,-1.446,11.585,-78.11,-8.963,12_10_1.csv
2018-07-10T11:51:41.315509,1.86,-0.946,-2.422,112.378,125.793,-65.61,12_10_1.csv
2018-07-10T11:51:41.370657,1.86,-0.946,-2.422,-231.159,26.22,48.232,12_10_1.csv
2018-07-10T11:51:41.411772,-0.103,-0.329,0.218,-167.866,42.927,115.0,12_10_1.csv
2018-07-10T11:51:41.464914,-0.103,-0.329,0.218,42.561,41.707,56.159,12_10_1.csv
2018-07-10T11:51:41.519064,-0.051,0.337,0.503,-107.988,-15.427,26.037,12_10_1.csv
2018-07-10T11:51:41.565187,0.107,-0.157,0.032,0.61,0.976,-15.549,12_10_1.csv
2018-07-10T11:51:41.612316,0.107,-0.157,0.032,85.183,9.817,-34.207,12_10_1.csv
2018-07-10T11:51:41.658442,-0.059,0.004,-0.098,117.195,-3.11,-33.72,12_10_1.csv
2018-07-10T11:51:41.705569,-0.059,0.004,-0.098,39.024,10.976,-10.122,12_10_1.csv
2018-07-10T11:51:41.759718,1.202,-0.761,-0.826,19.39,-71.951,32.622,12_10_1.csv
2018-07-10T11:51:41.818877,2.488,-1.246,-2.131,-1.28,-11.22,11.707,12_10_1.csv
2018-07-10T11:51:41.860995,2.488,-1.246,-2.131,59.268,32.744,-46.707,12_10_1.csv
2018-07-10T11:51:41.913135,0.974,-0.809,-0.866,-9.817,76.098,-13.415,12_10_1.csv
2018-07-10T11:51:41.955253,-0.31,0.17,0.28,-5.061,86.524,6.22,12_10_1.csv
2018-07-10T11:51:42.006390,-0.31,0.17,0.28,-98.11,22.439,3.841,12_10_1.csv
2018-07-10T11:51:42.059538,0.0,-0.004,0.227,-34.451,-25.915,-14.634,12_10_1.csv
2018-07-10T11:51:42.110675,0.0,-0.004,0.227,35.915,-16.829,-31.89,12_10_1.csv
2018-07-10T11:51:42.160814,0.053,-0.1,0.0,31.951,31.707,-7.012,12_10_1.csv
2018-07-10T11:51:42.205935,0.474,-0.235,-0.354,43.598,-2.866,-19.329,12_10_1.csv
2018-07-10T11:51:42.255071,0.474,-0.235,-0.354,54.939,-26.829,-14.817,12_10_1.csv
2018-07-10T11:51:42.309217,2.474,-1.237,-1.297,32.988,-67.5,27.988,12_10_1.csv
2018-07-10T11:51:42.379410,1.941,-0.941,-1.66,156.524,0.915,-104.268,12_10_1.csv
2018-07-10T11:51:42.428542,1.941,-0.941,-1.66,-17.622,-12.134,-16.951,12_10_1.csv
2018-07-10T11:51:42.473668,0.067,-0.389,-0.154,-21.89,30.183,40.183,12_10_1.csv
2018-07-10T11:51:42.584973,-0.405,0.476,0.41,83.171,-54.024,4.329,12_10_1.csv
2018-07-10T11:51:42.643632,0.171,0.104,0.364,-167.866,-51.646,-2.073,12_10_1.csv
2018-07-10T11:51:42.691262,0.173,-0.239,0.088,-141.707,68.354,49.939,12_10_1.csv
2018-07-10T11:51:42.749923,0.173,-0.239,0.088,-7.256,95.549,31.098,12_10_1.csv
2018-07-10T11:51:42.803569,1.761,-0.875,-1.28,140.061,-143.963,-77.744,12_10_1.csv
2018-07-10T11:51:42.847190,2.417,-1.527,-1.742,-39.756,40.488,14.207,12_10_1.csv
2018-07-10T11:51:42.898333,2.417,-1.527,-1.742,-41.585,121.463,20.183,12_10_1.csv
2018-07-10T11:51:42.939940,0.355,-0.58,-0.448,2.927,2.378,-46.159,12_10_1.csv
2018-07-10T11:51:42.989074,0.355,-0.58,-0.448,-19.878,-93.659,-17.927,12_10_1.csv
2018-07-10T11:51:43.043219,-0.184,0.153,0.348,55.976,-10.915,41.22,12_10_1.csv
2018-07-10T11:51:43.100376,0.04,0.111,0.132,16.463,4.39,-19.756,12_10_1.csv
2018-07-10T11:51:43.147001,0.04,0.111,0.132,-27.256,-36.28,-12.317,12_10_1.csv
2018-07-10T11:51:43.206661,0.123,0.02,0.03,19.39,-0.915,5.854,12_10_1.csv
2018-07-10T11:51:43.252786,0.973,-0.409,-0.434,48.415,-12.378,-51.402,12_10_1.csv
2018-07-10T11:51:43.301918,0.973,-0.409,-0.434,28.72,-38.476,-73.11,12_10_1.csv
2018-07-10T11:51:43.354064,2.499,-1.524,-1.946,-34.573,-35.366,-2.866,12_10_1.csv
2018-07-10T11:51:43.415228,1.188,-0.722,-1.518,197.988,-0.671,-139.146,12_10_1.csv
2018-07-10T11:51:43.470380,1.188,-0.722,-1.518,-71.585,-100.793,-23.476,12_10_1.csv
2018-07-10T11:51:43.521019,-0.225,-0.223,0.217,13.598,-7.927,63.598,12_10_1.csv
2018-07-10T11:51:43.563635,-0.146,0.176,0.464,46.22,-27.317,42.317,12_10_1.csv
2018-07-10T11:51:43.610762,-0.146,0.176,0.464,-4.878,-56.037,-11.646,12_10_1.csv
2018-07-10T11:51:43.667920,0.269,-0.104,0.193,-63.841,-57.195,-31.707,12_10_1.csv
2018-07-10T11:51:43.720563,0.269,-0.104,0.193,-89.451,23.78,51.28,12_10_1.csv
2018-07-10T11:51:43.767190,0.279,-0.088,-0.238,17.744,58.78,42.378,12_10_1.csv
2018-07-10T11:51:43.815319,1.983,-1.174,-1.74,74.817,-182.134,-54.878,12_10_1.csv
2018-07-10T11:51:43.905567,1.748,-1.256,-2.025,30.732,134.634,-68.354,12_10_1.csv
2018-07-10T11:51:43.955707,1.748,-1.256,-2.025,-4.146,-66.768,-6.098,12_10_1.csv
2018-07-10T11:51:44.011858,0.199,-0.327,-0.266,-85.915,62.622,48.293,12_10_1.csv
2018-07-10T11:51:44.050968,-0.206,0.198,0.591,-19.817,4.756,41.098,12_10_1.csv
2018-07-10T11:51:44.096090,-0.206,0.198,0.591,42.256,-18.049,-24.268,12_10_1.csv
2018-07-10T11:51:44.144223,0.12,-0.09,0.188,-47.256,17.012,-34.451,12_10_1.csv
2018-07-10T11:51:44.189345,0.12,-0.09,0.188,-88.476,33.537,6.037,12_10_1.csv
2018-07-10T11:51:44.238980,0.054,0.057,-0.183,67.073,-15.183,-7.195,12_10_1.csv
2018-07-10T11:51:44.293627,1.254,-0.513,-0.63,78.902,-23.476,-37.195,12_10_1.csv
2018-07-10T11:51:44.351281,1.254,-0.513,-0.63,-14.268,-58.72,16.89,12_10_1.csv
2018-07-10T11:51:44.394898,2.396,-1.28,-2.142,-71.463,22.927,74.817,12_10_1.csv
2018-07-10T11:51:44.457567,1.204,-0.708,-1.326,-17.134,-101.829,-57.439,12_10_1.csv
2018-07-10T11:51:44.506197,1.204,-0.708,-1.326,-92.073,-36.585,30.061,12_10_1.csv
2018-07-10T11:51:44.557836,-0.399,-0.071,0.445,12.378,71.159,7.866,12_10_1.csv
2018-07-10T11:51:44.622008,-0.201,0.127,0.329,-41.768,-137.378,160.183,12_10_1.csv
2018-07-10T11:51:44.678660,-0.201,0.127,0.329,-52.988,-148.842,4.268,12_10_1.csv
2018-07-10T11:51:44.724283,0.179,-0.152,0.2,-81.341,-114.268,-31.159,12_10_1.csv
2018-07-10T11:51:44.770406,0.401,-0.306,-0.234,19.39,2.378,-10.0,12_10_1.csv
2018-07-10T11:51:44.818035,0.401,-0.306,-0.234,8.415,76.159,27.622,12_10_1.csv
2018-07-10T11:51:44.867668,1.661,-1.401,-1.998,23.415,79.756,60.244,12_10_1.csv
2018-07-10T11:51:44.916800,1.661,-1.401,-1.998,78.72,42.622,24.39,12_10_1.csv
2018-07-10T11:51:44.989495,1.44,-1.254,-2.53,69.146,23.598,-104.451,12_10_1.csv
2018-07-10T11:51:45.033613,-0.127,-0.469,-0.026,-200.366,77.073,85.061,12_10_1.csv
2018-07-10T11:51:45.082244,-0.127,-0.469,-0.026,-107.622,-54.573,90.732,12_10_1.csv
2018-07-10T11:51:45.128368,-0.11,0.037,0.489,19.695,-128.11,113.963,12_10_1.csv
2018-07-10T11:51:45.180006,0.24,0.009,-0.053,-56.098,-36.098,5.061,12_10_1.csv
2018-07-10T11:51:45.279774,0.162,0.095,-0.101,19.573,5.671,47.134,12_10_1.csv
2018-07-10T11:51:45.333418,0.7,-1.04,-1.013,40.549,-31.951,-63.476,12_10_1.csv
2018-07-10T11:51:45.379541,0.7,-1.04,-1.013,84.329,-51.768,-94.085,12_10_1.csv
2018-07-10T11:51:45.427671,1.519,-1.976,-2.804,110.244,-99.146,-131.524,12_10_1.csv
2018-07-10T11:51:45.474296,1.519,-1.976,-2.804,104.39,26.341,-12.805,12_10_1.csv
2018-07-10T11:51:45.522927,0.271,-0.6,-0.812,-46.707,13.598,18.72,12_10_1.csv
2018-07-10T11:51:45.580581,-0.184,0.248,0.545,9.146,141.951,25.183,12_10_1.csv
2018-07-10T11:51:45.637233,-0.184,0.248,0.545,-22.317,101.037,-1.341,12_10_1.csv
2018-07-10T11:51:45.689875,0.009,-0.064,-0.011,-26.037,-36.89,-55.061,12_10_1.csv
2018-07-10T11:51:45.740009,-0.053,-0.053,-0.078,-9.39,81.402,17.683,12_10_1.csv
2018-07-10T11:51:45.784629,-0.053,-0.053,-0.078,-25.244,43.537,22.439,12_10_1.csv
2018-07-10T11:51:45.832758,0.48,-0.409,-0.387,-36.341,10.976,1.768,12_10_1.csv
2018-07-10T11:51:45.888909,0.48,-0.409,-0.387,-29.756,1.524,8.598,12_10_1.csv
2018-07-10T11:51:45.941550,1.799,-1.805,-1.841,131.707,-10.976,46.524,12_10_1.csv
2018-07-10T11:51:45.987173,1.065,-1.445,-1.721,145.854,-141.89,-58.841,12_10_1.csv
2018-07-10T11:51:46.040817,1.065,-1.445,-1.721,9.695,-44.329,48.598,12_10_1.csv
2018-07-10T11:51:46.086439,-0.138,-0.261,0.156,-46.22,31.951,90.244,12_10_1.csv
2018-07-10T11:51:46.150611,0.015,0.225,0.231,-164.817,-27.561,85.244,12_10_1.csv
2018-07-10T11:51:46.201748,0.015,0.225,0.231,-170.0,-70.061,26.463,12_10_1.csv
2018-07-10T11:51:46.253888,0.285,0.007,0.078,-73.963,14.634,0.976,12_10_1.csv
2018-07-10T11:51:46.299511,0.062,-0.14,-0.149,-44.268,75.488,12.622,12_10_1.csv
2018-07-10T11:51:46.348643,0.062,-0.14,-0.149,-9.085,19.024,-24.268,12_10_1.csv
2018-07-10T11:51:46.393263,1.004,-1.312,-1.809,61.646,-68.232,-83.598,12_10_1.csv
2018-07-10T11:51:46.443397,1.004,-1.312,-1.809,78.476,-42.317,-47.561,12_10_1.csv
2018-07-10T11:51:46.499047,1.166,-1.325,-2.675,-2.622,-34.939,-40.427,12_10_1.csv
2018-07-10T11:51:46.555197,0.141,-0.726,-0.686,-4.512,71.22,-13.902,12_10_1.csv
2018-07-10T11:51:46.801026,0.098,-0.098,-0.138,-31.524,-13.11,-6.524,12_10_1.csv
2018-07-10T11:51:46.848154,0.098,-0.098,-0.138,3.415,4.817,45.549,12_10_1.csv
2018-07-10T11:51:46.897290,0.827,-0.814,-0.691,-19.878,-15.488,17.744,12_10_1.csv
2018-07-10T11:51:46.956451,1.831,-1.966,-2.545,170.427,-40.61,-129.878,12_10_1.csv
2018-07-10T11:51:47.004583,1.831,-1.966,-2.545,-25.488,-29.634,-46.402,12_10_1.csv
2018-07-10T11:51:47.050207,0.671,-1.05,-1.058,-271.159,7.378,105.0,12_10_1.csv
2018-07-10T11:51:47.096835,0.671,-1.05,-1.058,-103.659,121.037,74.207,12_10_1.csv
2018-07-10T11:51:47.143963,-0.192,0.22,0.501,-11.098,30.244,29.39,12_10_1.csv
2018-07-10T11:51:47.187793,0.081,-0.01,0.278,85.244,-0.793,-75.122,12_10_1.csv
2018-07-10T11:51:47.234919,0.081,-0.01,0.278,55.183,16.707,-62.927,12_10_1.csv
2018-07-10T11:51:47.293081,-0.058,-0.04,-0.103,50.305,46.951,-23.354,12_10_1.csv
2018-07-10T11:51:47.349736,0.184,-0.149,-0.259,48.537,-14.878,-22.256,12_10_1.csv
2018-07-10T11:51:47.392351,0.184,-0.149,-0.259,59.085,-65.488,-29.146,12_10_1.csv
2018-07-10T11:51:47.439478,1.996,-1.106,-1.258,60.549,-95.671,-13.11,12_10_1.csv
2018-07-10T11:51:47.487612,1.996,-1.106,-1.258,-76.402,-32.561,-14.024,12_10_1.csv
2018-07-10T11:51:47.536744,1.861,-1.195,-2.241,114.512,46.341,-196.403,12_10_1.csv
2018-07-10T11:51:47.588889,0.475,-0.816,-0.466,-219.634,44.268,146.829,12_10_1.csv
2018-07-10T11:51:47.647045,0.475,-0.816,-0.466,-201.89,102.5,72.927,12_10_1.csv
2018-07-10T11:51:47.688088,-0.498,0.112,0.213,37.744,43.049,-83.354,12_10_1.csv
2018-07-10T11:51:47.739225,-0.498,0.112,0.213,-65.915,5.549,22.561,12_10_1.csv
2018-07-10T11:51:47.788362,0.042,0.092,0.145,-72.5,-60.183,62.5,12_10_1.csv
2018-07-10T11:51:47.831479,0.179,-0.135,0.135,50.915,-53.902,-26.951,12_10_1.csv
2018-07-10T11:51:47.891644,0.179,-0.135,0.135,73.78,-2.744,-29.451,12_10_1.csv
2018-07-10T11:51:47.987906,2.354,-1.257,-2.238,216.342,-10.305,-72.256,12_10_1.csv
2018-07-10T11:51:48.033029,2.354,-1.257,-2.238,207.073,65.244,-87.683,12_10_1.csv
2018-07-10T11:51:48.080160,0.984,-0.761,-1.401,53.963,-56.159,-91.463,12_10_1.csv
2018-07-10T11:51:48.126283,0.984,-0.761,-1.401,-205.915,101.098,65.61,12_10_1.csv
2018-07-10T11:51:48.174418,-0.225,-0.29,0.421,-150.915,80.671,78.293,12_10_1.csv
2018-07-10T11:51:48.226558,0.026,0.271,0.383,38.171,12.439,50.793,12_10_1.csv
2018-07-10T11:51:48.269678,0.026,0.271,0.383,-14.268,19.085,-35.854,12_10_1.csv
2018-07-10T11:51:48.313796,0.116,0.055,0.027,-86.402,19.756,-0.732,12_10_1.csv
2018-07-10T11:51:48.360925,0.116,0.055,0.027,-49.878,55.732,51.463,12_10_1.csv
2018-07-10T11:51:48.408054,0.429,-0.214,-0.165,-1.037,37.744,17.195,12_10_1.csv
2018-07-10T11:51:48.454681,0.429,-0.214,-0.165,60.793,-19.634,-29.512,12_10_1.csv
2018-07-10T11:51:48.504317,2.275,-1.226,-1.32,36.951,-102.134,-11.037,12_10_1.csv
2018-07-10T11:51:48.547432,1.982,-0.968,-1.922,169.39,-9.268,-118.963,12_10_1.csv
2018-07-10T11:51:48.595567,1.982,-0.968,-1.922,-77.439,4.268,-26.646,12_10_1.csv
2018-07-10T11:51:48.644699,0.201,-0.375,-0.15,-103.415,58.963,60.122,12_10_1.csv
2018-07-10T11:51:48.688821,0.201,-0.375,-0.15,-76.402,36.89,46.22,12_10_1.csv
2018-07-10T11:51:48.734944,-0.318,0.193,0.376,-144.512,19.695,57.439,12_10_1.csv
2018-07-10T11:51:48.788092,-0.318,0.193,0.376,-16.037,-25.61,-3.963,12_10_1.csv
2018-07-10T11:51:48.831208,0.104,-0.247,0.14,42.988,-14.817,-24.756,12_10_1.csv
2018-07-10T11:51:48.877336,0.078,0.069,-0.079,6.341,14.207,45.427,12_10_1.csv
2018-07-10T11:51:48.924463,0.078,0.069,-0.079,-28.11,8.78,68.72,12_10_1.csv
2018-07-10T11:51:48.969588,1.053,-0.655,-0.784,-7.378,-23.841,-0.915,12_10_1.csv
2018-07-10T11:51:49.018720,1.053,-0.655,-0.784,65.061,-100.854,-29.634,12_10_1.csv
2018-07-10T11:51:49.068859,2.107,-1.413,-2.161,71.951,-97.317,28.11,12_10_1.csv
2018-07-10T11:51:49.110973,0.801,-0.866,-1.111,85.122,-44.085,-54.695,12_10_1.csv
2018-07-10T11:51:49.158603,0.801,-0.866,-1.111,-14.451,61.28,4.512,12_10_1.csv
2018-07-10T11:51:49.205231,-0.19,0.056,0.445,-24.573,12.5,35.183,12_10_1.csv
2018-07-10T11:51:49.251354,-0.19,0.056,0.445,3.11,-18.78,4.39,12_10_1.csv
2018-07-10T11:51:49.356644,0.0,-0.059,-0.104,-53.902,31.768,18.72,12_10_1.csv
2018-07-10T11:51:49.419815,0.0,-0.059,-0.104,-37.134,40.0,22.073,12_10_1.csv
2018-07-10T11:51:49.470957,0.385,-0.338,-0.315,-10.61,21.646,9.329,12_10_1.csv
2018-07-10T11:51:49.527108,2.101,-1.325,-1.715,23.537,-103.415,-1.28,12_10_1.csv
2018-07-10T11:51:49.581260,2.101,-1.325,-1.715,99.573,-52.988,15.366,12_10_1.csv
2018-07-10T11:51:49.628386,1.533,-1.012,-1.798,24.207,-16.402,-50.122,12_10_1.csv
2018-07-10T11:51:49.676519,0.042,-0.2,0.056,53.415,59.451,-44.268,12_10_1.csv
2018-07-10T11:51:49.720638,0.042,-0.2,0.056,-67.195,59.451,61.402,12_10_1.csv
2018-07-10T11:51:49.767767,-0.226,0.191,0.319,-100.366,41.159,62.256,12_10_1.csv
2018-07-10T11:51:49.816901,-0.226,0.191,0.319,3.841,1.341,-55.854,12_10_1.csv
2018-07-10T11:51:49.860019,0.073,-0.118,0.037,19.146,-0.732,-65.061,12_10_1.csv
2018-07-10T11:51:49.908148,0.073,-0.118,0.037,-29.146,47.744,1.341,12_10_1.csv
2018-07-10T11:51:49.957781,0.092,-0.067,-0.167,19.085,-9.573,-16.22,12_10_1.csv
2018-07-10T11:51:50.001399,1.86,-1.131,-1.105,51.28,-36.341,-29.39,12_10_1.csv
2018-07-10T11:51:50.049528,1.86,-1.131,-1.105,31.341,-82.805,31.951,12_10_1.csv
2018-07-10T11:51:50.097156,2.098,-1.175,-2.108,110.183,12.805,-30.122,12_10_1.csv
2018-07-10T11:51:50.140274,2.098,-1.175,-2.108,6.098,0.122,-85.061,12_10_1.csv
2018-07-10T11:51:50.189405,0.408,-0.61,-0.374,-142.5,45.061,30.427,12_10_1.csv
2018-07-10T11:51:50.242553,-0.348,0.193,0.389,-77.988,62.805,42.866,12_10_1.csv
2018-07-10T11:51:50.284665,-0.348,0.193,0.389,-65.732,-4.695,3.476,12_10_1.csv
2018-07-10T11:51:50.328788,0.08,-0.117,0.209,10.122,-54.024,-17.866,12_10_1.csv
2018-07-10T11:51:50.377920,0.08,-0.117,0.209,53.659,-34.573,-27.134,12_10_1.csv
2018-07-10T11:51:50.425052,0.007,-0.051,-0.042,46.463,18.476,-1.524,12_10_1.csv
2018-07-10T11:51:50.470172,0.007,-0.051,-0.042,97.866,-8.841,-16.28,12_10_1.csv
2018-07-10T11:51:50.524322,1.021,-0.483,-0.747,64.268,-73.659,-31.098,12_10_1.csv
2018-07-10T11:51:50.583480,2.464,-1.512,-2.048,44.207,-18.049,25.732,12_10_1.csv
2018-07-10T11:51:50.631614,2.464,-1.512,-2.048,92.256,56.585,-72.439,12_10_1.csv
2018-07-10T11:51:50.726771,-0.184,0.088,0.437,-102.012,10.854,118.171,12_10_1.csv
2018-07-10T11:51:50.771892,-0.184,0.088,0.437,-55.732,-11.524,94.756,12_10_1.csv
2018-07-10T11:51:50.815009,0.083,0.073,0.337,-11.829,-18.902,2.805,12_10_1.csv
2018-07-10T11:51:50.873168,0.083,0.073,0.337,-11.585,-12.317,-37.805,12_10_1.csv
2018-07-10T11:51:51.113618,2.177,-1.442,-1.878,209.878,-39.695,-111.159,12_10_1.csv
2018-07-10T11:51:51.166261,1.641,-1.233,-1.903,-177.073,80.732,-29.573,12_10_1.csv
2018-07-10T11:51:51.220910,0.017,0.013,-0.059,-90.305,96.89,25.793,12_10_1.csv
2018-07-10T11:51:51.267537,0.017,0.013,-0.059,-195.671,46.402,103.842,12_10_1.csv
2018-07-10T11:51:51.314165,-0.152,0.088,0.503,-90.488,30.793,86.463,12_10_1.csv
2018-07-10T11:51:51.367812,0.071,-0.227,0.144,7.256,-27.439,-29.878,12_10_1.csv
2018-07-10T11:51:51.407921,0.071,-0.227,0.144,51.22,-0.122,-18.963,12_10_1.csv
2018-07-10T11:51:51.454049,-0.05,0.079,-0.208,136.463,3.293,8.72,12_10_1.csv
2018-07-10T11:51:51.502178,-0.05,0.079,-0.208,97.805,-28.354,25.427,12_10_1.csv
2018-07-10T11:51:51.549310,1.362,-0.875,-0.984,-0.549,-50.671,27.073,12_10_1.csv
2018-07-10T11:51:51.595434,1.362,-0.875,-0.984,31.098,-113.72,22.439,12_10_1.csv
2018-07-10T11:51:51.647578,2.186,-1.427,-2.365,66.524,102.012,-77.317,12_10_1.csv
2018-07-10T11:51:51.704732,0.606,-0.87,-0.975,-209.756,27.134,8.354,12_10_1.csv
2018-07-10T11:51:51.752867,0.606,-0.87,-0.975,-133.963,77.439,61.768,12_10_1.csv
2018-07-10T11:51:51.804003,-0.233,0.064,0.528,36.159,-25.549,46.707,12_10_1.csv
2018-07-10T11:51:51.850132,0.102,0.177,0.326,48.659,-36.524,-22.5,12_10_1.csv
2018-07-10T11:51:51.896256,0.102,0.177,0.326,-1.463,-24.512,-41.28,12_10_1.csv
2018-07-10T11:51:51.964443,0.066,-0.024,-0.014,51.585,25.244,14.146,12_10_1.csv
2018-07-10T11:51:52.081761,0.426,-0.2,-0.398,96.037,-73.11,-51.341,12_10_1.csv
2018-07-10T11:51:52.130535,2.417,-1.567,-1.568,57.195,122.012,-7.012,12_10_1.csv
2018-07-10T11:51:52.175656,1.672,-1.415,-1.662,34.817,14.085,-90.244,12_10_1.csv
2018-07-10T11:51:52.220278,1.672,-1.415,-1.662,-179.024,124.756,63.902,12_10_1.csv
2018-07-10T11:51:52.271919,-0.019,-0.162,0.124,-198.476,140.732,66.28,12_10_1.csv
2018-07-10T11:51:52.325565,-0.019,-0.162,0.124,-214.512,64.146,95.793,12_10_1.csv
2018-07-10T11:51:52.382220,-0.164,0.111,0.531,-46.829,-40.915,-27.439,12_10_1.csv
2018-07-10T11:51:52.429351,0.108,-0.234,0.163,34.085,-95.915,-44.451,12_10_1.csv
2018-07-10T11:51:52.473469,0.108,-0.234,0.163,43.415,-63.537,13.293,12_10_1.csv
2018-07-10T11:51:52.521100,0.014,0.194,-0.153,67.378,-37.317,19.085,12_10_1.csv
2018-07-10T11:51:52.566602,0.014,0.194,-0.153,69.634,-27.317,-31.402,12_10_1.csv
2018-07-10T11:51:52.617741,1.114,-0.876,-0.709,36.585,-74.146,-53.841,12_10_1.csv
2018-07-10T11:51:52.658854,2.659,-1.171,-2.186,73.72,-24.085,-13.841,12_10_1.csv
2018-07-10T11:51:52.705981,2.659,-1.171,-2.186,-39.268,101.463,24.939,12_10_1.csv
2018-07-10T11:51:52.758125,1.101,-0.9,-0.863,-179.024,13.11,-46.098,12_10_1.csv
2018-07-10T11:51:52.802243,1.101,-0.9,-0.863,37.012,49.085,-21.768,12_10_1.csv
2018-07-10T11:51:52.852383,-0.251,0.285,0.309,-227.622,34.573,71.098,12_10_1.csv
2018-07-10T11:51:52.908534,-0.063,-0.084,0.32,-93.049,-9.634,19.39,12_10_1.csv
2018-07-10T11:51:52.955666,-0.063,-0.084,0.32,64.085,-24.573,-25.793,12_10_1.csv
2018-07-10T11:51:53.001790,0.034,-0.155,0.055,130.976,-10.183,-60.305,12_10_1.csv
2018-07-10T11:51:53.049925,0.034,-0.155,0.055,127.012,-0.61,-41.89,12_10_1.csv
2018-07-10T11:51:53.096049,0.414,-0.146,-0.397,91.463,-48.293,-29.451,12_10_1.csv
2018-07-10T11:51:53.143180,2.379,-1.414,-1.568,107.927,-97.134,1.341,12_10_1.csv
2018-07-10T11:51:53.215376,1.498,-1.19,-1.727,64.329,-28.171,-95.976,12_10_1.csv
2018-07-10T11:51:53.272532,1.498,-1.19,-1.727,-114.756,46.585,8.293,12_10_1.csv
2018-07-10T11:51:53.319159,-0.005,-0.214,0.075,-69.634,17.927,55.122,12_10_1.csv
2018-07-10T11:51:53.370800,-0.005,-0.214,0.075,-78.598,4.207,103.476,12_10_1.csv
2018-07-10T11:51:53.488121,0.121,-0.091,0.059,4.695,-33.049,-19.573,12_10_1.csv
2018-07-10T11:51:53.536255,0.075,0.059,-0.151,30.183,18.78,20.488,12_10_1.csv
2018-07-10T11:51:53.589398,0.075,0.059,-0.151,17.561,-4.329,-6.585,12_10_1.csv
2018-07-10T11:51:53.630285,1.855,-1.089,-1.066,1.098,-38.232,-16.463,12_10_1.csv
2018-07-10T11:51:53.678415,1.855,-1.089,-1.066,-49.512,-47.866,49.817,12_10_1.csv
2018-07-10T11:51:53.725543,2.347,-0.992,-2.216,78.598,38.354,14.207,12_10_1.csv
2018-07-10T11:51:53.771669,2.347,-0.992,-2.216,-54.817,3.963,-126.22,12_10_1.csv
2018-07-10T11:51:53.817795,0.408,-0.518,-0.448,-49.329,51.524,33.902,12_10_1.csv
2018-07-10T11:51:53.867932,-0.4,0.148,0.549,-83.659,59.39,65.244,12_10_1.csv
2018-07-10T11:51:53.929600,-0.4,0.148,0.549,-22.134,12.5,10.183,12_10_1.csv
2018-07-10T11:51:53.971213,0.092,-0.146,0.28,28.293,-58.415,-27.439,12_10_1.csv
2018-07-10T11:51:54.025361,0.024,0.121,-0.151,82.134,-12.195,-0.427,12_10_1.csv
2018-07-10T11:51:54.064469,0.024,0.121,-0.151,161.707,-31.829,-39.085,12_10_1.csv
2018-07-10T11:51:54.118617,1.027,-0.495,-0.646,88.11,-55.122,-49.573,12_10_1.csv
2018-07-10T11:51:54.168754,1.027,-0.495,-0.646,6.707,-65.366,-12.256,12_10_1.csv
2018-07-10T11:51:54.220896,2.492,-1.52,-2.139,134.817,89.939,-62.195,12_10_1.csv
2018-07-10T11:51:54.268026,0.935,-0.936,-1.28,-166.281,37.256,-35.488,12_10_1.csv
2018-07-10T11:51:54.316658,0.935,-0.936,-1.28,-246.098,22.805,62.927,12_10_1.csv
2018-07-10T11:51:54.360278,-0.301,-0.06,0.439,-36.463,12.439,106.463,12_10_1.csv
2018-07-10T11:51:54.408408,-0.301,-0.06,0.439,40.732,-20.305,80.793,12_10_1.csv
2018-07-10T11:51:54.461555,0.03,0.112,0.314,-4.024,-37.927,-16.341,12_10_1.csv
2018-07-10T11:51:54.522221,0.165,0.019,0.031,-24.512,-0.427,42.012,12_10_1.csv
2018-07-10T11:51:54.568848,0.165,0.019,0.031,10.061,52.622,88.963,12_10_1.csv
2018-07-10T11:51:54.613970,0.278,-0.06,-0.351,45.427,28.537,25.183,12_10_1.csv
2018-07-10T11:51:54.659095,1.878,-1.374,-2.034,-131.463,-44.756,5.0,12_10_1.csv
2018-07-10T11:51:54.722268,1.878,-1.374,-2.034,-28.902,-0.671,122.378,12_10_1.csv
2018-07-10T11:51:54.906279,0.01,0.176,0.47,54.329,15.122,-34.268,12_10_1.csv
2018-07-10T11:51:54.953913,0.01,0.176,0.47,59.085,41.646,-68.476,12_10_1.csv
2018-07-10T11:51:55.006052,0.018,-0.083,0.069,49.634,27.256,-77.622,12_10_1.csv
2018-07-10T11:51:55.051179,0.018,-0.083,0.069,98.598,30.366,-60.0,12_10_1.csv
2018-07-10T11:51:55.098305,-0.064,-0.001,-0.072,126.768,8.78,-30.854,12_10_1.csv
2018-07-10T11:51:55.142429,1.498,-0.833,-0.74,49.939,-59.451,-15.366,12_10_1.csv
2018-07-10T11:51:55.210611,1.498,-0.833,-0.74,62.561,-39.756,-5.976,12_10_1.csv
2018-07-10T11:51:55.250724,2.497,-1.447,-2.092,54.634,33.171,-19.207,12_10_1.csv
2018-07-10T11:51:55.298853,2.497,-1.447,-2.092,41.22,-46.768,-75.915,12_10_1.csv
2018-07-10T11:51:55.346988,0.939,-0.888,-0.745,-105.793,69.207,23.537,12_10_1.csv
2018-07-10T11:51:55.392109,-0.358,0.184,0.403,-148.537,73.537,81.037,12_10_1.csv
2018-07-10T11:51:55.438237,-0.358,0.184,0.403,-100.671,43.049,79.939,12_10_1.csv
2018-07-10T11:51:55.493891,0.024,-0.028,0.388,59.573,-14.39,-8.049,12_10_1.csv
2018-07-10T11:51:55.555561,0.048,-0.013,0.026,67.561,-1.341,-26.707,12_10_1.csv
2018-07-10T11:51:55.599679,0.048,-0.013,0.026,102.195,19.634,18.354,12_10_1.csv
2018-07-10T11:51:55.647309,0.356,-0.147,-0.336,91.89,-13.963,-8.232,12_10_1.csv
2018-07-10T11:51:55.708473,2.381,-1.32,-1.39,-14.939,-56.341,-10.366,12_10_1.csv
2018-07-10T11:51:55.755100,2.381,-1.32,-1.39,30.183,43.841,48.232,12_10_1.csv
2018-07-10T11:51:55.815264,1.995,-1.294,-1.706,148.902,-81.28,-121.281,12_10_1.csv
2018-07-10T11:51:55.861391,1.995,-1.294,-1.706,-39.512,40.183,-44.695,12_10_1.csv
2018-07-10T11:51:55.910023,0.063,-0.334,-0.112,-171.707,-11.098,153.781,12_10_1.csv
2018-07-10T11:51:55.956217,-0.245,0.106,0.441,-118.232,17.683,129.207,12_10_1.csv
2018-07-10T11:51:56.008357,-0.245,0.106,0.441,-9.573,-4.329,7.073,12_10_1.csv
2018-07-10T11:51:56.054485,0.125,-0.11,0.339,43.11,-41.28,-63.415,12_10_1.csv
2018-07-10T11:51:56.095596,0.125,-0.11,0.339,23.537,-54.39,-35.732,12_10_1.csv
2018-07-10T11:51:56.176817,0.128,0.23,-0.118,-24.939,68.049,76.951,12_10_1.csv
2018-07-10T11:51:56.223445,1.074,-0.543,-0.929,6.951,-43.354,-32.5,12_10_1.csv
2018-07-10T11:51:56.275086,2.647,-1.572,-1.867,-127.927,31.768,64.085,12_10_1.csv
2018-07-10T11:51:56.314193,2.647,-1.572,-1.867,-67.988,139.268,33.598,12_10_1.csv
2018-07-10T11:51:56.371349,1.121,-0.813,-1.179,46.22,45.915,-97.012,12_10_1.csv
2018-07-10T11:51:56.425496,1.121,-0.813,-1.179,34.207,-41.341,-83.049,12_10_1.csv
2018-07-10T11:51:56.471623,-0.258,0.121,0.376,50.854,9.085,-3.232,12_10_1.csv
2018-07-10T11:51:56.520256,-0.124,0.153,0.277,-107.988,20.244,34.329,12_10_1.csv
2018-07-10T11:51:56.564875,-0.124,0.153,0.277,-45.793,-33.963,-18.415,12_10_1.csv
2018-07-10T11:51:56.612002,0.09,-0.131,0.007,23.598,-5.793,-18.902,12_10_1.csv
2018-07-10T11:51:56.664142,0.09,-0.131,0.007,80.732,27.805,1.341,12_10_1.csv
2018-07-10T11:51:56.706255,0.17,-0.142,-0.317,95.61,25.183,8.659,12_10_1.csv
2018-07-10T11:51:56.751376,2.378,-1.326,-1.641,-80.854,-88.78,42.134,12_10_1.csv
2018-07-10T11:51:56.800006,2.378,-1.326,-1.641,-54.39,-181.524,53.232,12_10_1.csv
2018-07-10T11:51:56.847634,1.86,-1.199,-1.991,82.134,130.549,-105.244,12_10_1.csv
2018-07-10T11:51:56.892756,1.86,-1.199,-1.991,12.927,163.963,-123.963,12_10_1.csv
2018-07-10T11:51:56.969464,-0.222,-0.298,0.156,12.073,-80.427,80.976,12_10_1.csv
2018-07-10T11:51:57.022107,-0.086,0.34,0.479,153.232,18.72,47.561,12_10_1.csv
2018-07-10T11:51:57.064220,-0.086,0.34,0.479,-18.476,61.829,4.817,12_10_1.csv
2018-07-10T11:51:57.120762,0.008,-0.033,-0.038,-16.829,27.561,30.061,12_10_1.csv
2018-07-10T11:51:57.175412,0.068,-0.051,-0.042,28.293,-3.476,19.939,12_10_1.csv
2018-07-10T11:51:57.221037,0.068,-0.051,-0.042,38.293,-30.549,-8.476,12_10_1.csv
2018-07-10T11:51:57.273176,1.443,-1.147,-0.946,106.89,-145.671,63.415,12_10_1.csv
2018-07-10T11:51:57.314291,2.339,-1.583,-2.121,175.061,-63.232,-15.549,12_10_1.csv
2018-07-10T11:51:57.361418,2.339,-1.583,-2.121,-150.366,23.293,4.39,12_10_1.csv
2018-07-10T11:51:57.410555,0.483,-0.806,-0.511,4.451,62.256,-50.732,12_10_1.csv
2018-07-10T11:51:57.455675,0.483,-0.806,-0.511,61.646,9.817,-47.622,12_10_1.csv
2018-07-10T11:51:57.541912,-0.26,0.394,0.298,-78.537,56.037,15.732,12_10_1.csv
2018-07-10T11:51:57.591048,0.039,-0.09,0.22,-21.159,-9.329,-36.951,12_10_1.csv
2018-07-10T11:51:57.643188,-0.01,-0.108,0.022,63.476,-6.768,-39.146,12_10_1.csv
2018-07-10T11:51:57.707365,-0.01,-0.108,0.022,101.646,-0.549,-16.037,12_10_1.csv
2018-07-10T11:51:57.753489,0.791,-0.718,-0.627,60.244,-87.866,-15.915,12_10_1.csv
2018-07-10T11:51:57.803629,2.5,-1.645,-1.928,158.781,-60.122,-34.512,12_10_1.csv
2018-07-10T11:51:57.851758,2.5,-1.645,-1.928,136.646,-75.366,-67.134,12_10_1.csv
2018-07-10T11:51:57.896884,1.148,-0.999,-1.005,-0.976,-197.561,-146.768,12_10_1.csv
2018-07-10T11:51:57.946016,1.148,-0.999,-1.005,31.829,-77.439,-136.281,12_10_1.csv
2018-07-10T11:51:58.004177,-0.225,0.188,0.277,-164.939,235.61,143.415,12_10_1.csv
2018-07-10T11:51:58.054312,-0.139,0.023,0.223,-117.866,69.939,40.732,12_10_1.csv
2018-07-10T11:51:58.104452,-0.139,0.023,0.223,-29.39,-40.549,-12.439,12_10_1.csv
2018-07-10T11:51:58.142554,0.036,-0.048,0.02,-26.768,11.341,17.256,12_10_1.csv
2018-07-10T11:51:58.198710,0.283,-0.284,-0.146,28.841,10.366,11.22,12_10_1.csv
2018-07-10T11:51:58.236811,0.283,-0.284,-0.146,28.841,10.366,11.22,12_10_1.csv
2018-07-10T11:51:58.287952,2.257,-1.478,-1.377,84.756,-17.805,-19.695,12_10_1.csv
2018-07-10T11:51:58.330067,2.257,-1.478,-1.377,46.463,45.0,50.488,12_10_1.csv
2018-07-10T11:51:58.381209,2.106,-1.429,-1.532,-120.488,-102.256,36.768,12_10_1.csv
2018-07-10T11:51:58.429341,2.106,-1.429,-1.532,-40.183,-23.11,-42.073,12_10_1.csv
2018-07-10T11:51:58.481483,0.025,-0.057,0.038,-144.146,51.524,80.61,12_10_1.csv
2018-07-10T11:51:58.533625,-0.121,0.243,0.52,38.293,42.439,-20.671,12_10_1.csv
2018-07-10T11:51:58.580252,-0.121,0.243,0.52,48.11,-26.707,-45.732,12_10_1.csv
2018-07-10T11:51:58.627883,0.113,0.053,-0.101,-41.098,9.634,-4.878,12_10_1.csv
2018-07-10T11:51:58.674007,0.113,0.053,-0.101,16.707,45.488,-24.939,12_10_1.csv
2018-07-10T11:51:58.720136,-0.031,-0.028,-0.066,-118.537,26.707,25.183,12_10_1.csv
2018-07-10T11:51:58.775285,1.373,-0.964,-0.607,1.646,-39.573,17.195,12_10_1.csv
2018-07-10T11:51:58.903637,2.636,-1.334,-2.012,86.829,-73.415,-64.634,12_10_1.csv
2018-07-10T11:51:58.956780,0.981,-0.82,-0.693,-178.903,26.646,8.537,12_10_1.csv
