time,accel_x_list,accel_y_list,accel_z_list,gyro_x_list,gyro_y_list,gyro_z_list,filename
2018-07-10T11:52:45.411632,0.866,-0.471,-0.096,25.671,1.463,-2.622,12_10_3.csv
2018-07-10T11:52:45.456758,0.866,-0.471,-0.096,25.671,1.463,-2.622,12_10_3.csv
2018-07-10T11:52:45.503884,0.847,-0.407,-0.084,14.817,3.232,-4.817,12_10_3.csv
2018-07-10T11:52:45.551016,0.847,-0.407,-0.084,-15.793,8.293,-5.244,12_10_3.csv
2018-07-10T11:52:45.597140,0.86,-0.445,-0.017,-27.073,11.341,-2.378,12_10_3.csv
2018-07-10T11:52:45.655300,0.876,-0.425,-0.039,-14.512,4.329,-1.159,12_10_3.csv
2018-07-10T11:52:45.707441,0.876,-0.425,-0.039,-15.732,4.39,0.427,12_10_3.csv
2018-07-10T11:52:45.752566,0.89,-0.446,-0.041,-7.683,0.488,1.22,12_10_3.csv
2018-07-10T11:52:45.805708,0.873,-0.439,-0.045,40.671,-8.293,-3.72,12_10_3.csv
2018-07-10T11:52:45.852838,0.873,-0.439,-0.045,56.951,-3.232,-10.732,12_10_3.csv
2018-07-10T11:52:45.898963,0.798,-0.371,-0.022,60.366,1.402,-20.915,12_10_3.csv
2018-07-10T11:52:45.961134,0.417,-0.308,0.0,35.61,6.524,-25.671,12_10_3.csv
2018-07-10T11:52:46.005252,0.417,-0.308,0.0,19.024,-13.841,-16.646,12_10_3.csv
2018-07-10T11:52:46.054386,0.36,-0.325,-0.07,37.195,-13.72,4.329,12_10_3.csv
2018-07-10T11:52:46.105022,0.36,-0.325,-0.07,46.951,-26.524,31.707,12_10_3.csv
2018-07-10T11:52:46.144127,1.527,-0.976,0.044,-7.134,-7.256,73.72,12_10_3.csv
2018-07-10T11:52:46.192256,1.527,-0.976,0.044,-29.512,-54.024,189.878,12_10_3.csv
2018-07-10T11:52:46.244396,2.319,-1.253,-0.366,-164.207,-38.354,-41.951,12_10_3.csv
2018-07-10T11:52:46.302051,0.999,-0.563,-0.363,-106.463,69.329,-24.817,12_10_3.csv
2018-07-10T11:52:46.348175,0.999,-0.563,-0.363,-16.22,159.329,-11.829,12_10_3.csv
2018-07-10T11:52:46.396806,-0.326,0.01,0.289,13.293,58.659,26.341,12_10_3.csv
2018-07-10T11:52:46.440924,-0.326,0.01,0.289,112.866,14.085,16.037,12_10_3.csv
2018-07-10T11:52:46.489554,-0.16,0.143,0.037,-0.549,-36.829,2.012,12_10_3.csv
2018-07-10T11:52:46.604363,0.608,-0.361,-0.019,-12.073,24.451,2.744,12_10_3.csv
2018-07-10T11:52:46.666028,0.608,-0.361,-0.019,-127.744,-31.646,16.829,12_10_3.csv
2018-07-10T11:52:46.707138,2.938,-2.04,-0.678,-260.427,-147.866,43.598,12_10_3.csv
2018-07-10T11:52:46.769806,1.721,-1.078,-1.426,202.805,-20.61,-97.5,12_10_3.csv
2018-07-10T11:52:46.816432,1.721,-1.078,-1.426,45.183,46.341,-105.549,12_10_3.csv
2018-07-10T11:52:46.864059,-0.261,0.02,0.352,-119.939,61.585,-12.927,12_10_3.csv
2018-07-10T11:52:46.915197,-0.261,0.02,0.352,-75.793,25.488,-26.098,12_10_3.csv
2018-07-10T11:52:46.956307,-0.28,-0.146,0.372,-108.72,76.402,-51.037,12_10_3.csv
2018-07-10T11:52:47.003935,-0.28,-0.146,0.372,-26.402,-2.622,-57.378,12_10_3.csv
2018-07-10T11:52:47.052566,-0.01,-0.146,0.126,-15.732,26.037,37.744,12_10_3.csv
2018-07-10T11:52:47.098188,0.044,-0.071,-0.1,-7.073,4.817,32.622,12_10_3.csv
2018-07-10T11:52:47.144312,0.044,-0.071,-0.1,-16.28,-10.549,12.195,12_10_3.csv
2018-07-10T11:52:47.196454,1.734,-1.062,-0.298,-48.598,-68.11,60.244,12_10_3.csv
2018-07-10T11:52:47.254610,2.961,-1.258,-1.623,101.585,87.622,80.915,12_10_3.csv
2018-07-10T11:52:47.304747,2.961,-1.258,-1.623,1.951,-93.598,-67.561,12_10_3.csv
2018-07-10T11:52:47.352374,0.979,-0.897,-0.322,-20.122,-30.244,-41.28,12_10_3.csv
2018-07-10T11:52:47.399000,0.979,-0.897,-0.322,91.159,56.402,-50.427,12_10_3.csv
2018-07-10T11:52:47.443119,-0.386,0.153,0.326,61.646,59.085,-58.902,12_10_3.csv
2018-07-10T11:52:47.495258,-0.195,0.126,0.127,-53.902,7.317,-27.134,12_10_3.csv
2018-07-10T11:52:47.556423,-0.195,0.126,0.127,-45.366,-15.732,17.866,12_10_3.csv
2018-07-10T11:52:47.598034,0.087,-0.199,0.126,18.902,-38.72,-8.049,12_10_3.csv
2018-07-10T11:52:47.645161,0.087,-0.199,0.126,81.463,-15.61,19.329,12_10_3.csv
2018-07-10T11:52:47.693792,0.458,-0.378,-0.293,-45.549,-35.488,39.146,12_10_3.csv
2018-07-10T11:52:47.736907,3.039,-1.874,-1.511,52.988,-236.768,57.866,12_10_3.csv
2018-07-10T11:52:47.798607,3.039,-1.874,-1.511,136.463,84.268,46.524,12_10_3.csv
2018-07-10T11:52:47.848744,1.593,-1.435,-0.866,-15.244,58.415,-66.829,12_10_3.csv
2018-07-10T11:52:47.895372,-0.266,0.111,0.382,64.878,100.854,0.183,12_10_3.csv
2018-07-10T11:52:47.967383,-0.266,0.111,0.382,-54.268,143.598,1.768,12_10_3.csv
2018-07-10T11:52:48.034563,-0.324,0.223,0.203,-36.22,-70.183,-20.0,12_10_3.csv
2018-07-10T11:52:48.101750,0.134,-0.015,0.042,52.073,1.402,44.085,12_10_3.csv
2018-07-10T11:52:48.158405,0.207,-0.125,-0.104,84.085,9.024,41.951,12_10_3.csv
2018-07-10T11:52:48.207037,0.207,-0.125,-0.104,69.878,-30.366,-6.89,12_10_3.csv
2018-07-10T11:52:48.254669,2.351,-1.276,-0.108,80.976,-56.951,-14.085,12_10_3.csv
2018-07-10T11:52:48.302299,2.775,-1.638,-0.904,-62.805,-20.0,-1.28,12_10_3.csv
2018-07-10T11:52:48.347420,2.775,-1.638,-0.904,-97.134,18.902,-74.146,12_10_3.csv
2018-07-10T11:52:48.394550,0.125,-0.662,0.063,-129.756,97.683,-64.329,12_10_3.csv
2018-07-10T11:52:48.454714,-0.505,0.263,0.14,-99.024,53.598,-5.61,12_10_3.csv
2018-07-10T11:52:48.520895,-0.505,0.263,0.14,-70.793,2.683,-5.305,12_10_3.csv
2018-07-10T11:52:48.571033,0.059,-0.187,0.292,-17.744,-77.012,14.146,12_10_3.csv
2018-07-10T11:52:48.621167,0.05,0.143,0.013,65.427,22.195,58.232,12_10_3.csv
2018-07-10T11:52:48.665789,0.05,0.143,0.013,23.963,24.207,46.707,12_10_3.csv
2018-07-10T11:52:48.706899,0.877,-0.624,-0.47,-53.537,-57.378,52.622,12_10_3.csv
2018-07-10T11:52:48.766559,0.877,-0.624,-0.47,-29.329,-232.012,116.037,12_10_3.csv
2018-07-10T11:52:48.817696,2.767,-2.242,-1.606,21.707,-14.878,32.012,12_10_3.csv
2018-07-10T11:52:48.872343,1.042,-0.96,-1.212,93.354,65.183,-131.098,12_10_3.csv
2018-07-10T11:52:48.928494,1.042,-0.96,-1.212,-51.037,89.451,-84.634,12_10_3.csv
2018-07-10T11:52:48.972111,-0.551,0.026,0.406,-12.927,200.976,-3.659,12_10_3.csv
2018-07-10T11:52:49.019241,-0.208,0.128,0.243,22.012,-46.768,0.183,12_10_3.csv
2018-07-10T11:52:49.070377,-0.208,0.128,0.243,-36.28,-68.11,-26.22,12_10_3.csv
2018-07-10T11:52:49.112495,0.072,-0.276,0.065,22.378,-84.207,-27.439,12_10_3.csv
2018-07-10T11:52:49.159622,0.072,-0.276,0.065,101.281,-4.085,11.098,12_10_3.csv
2018-07-10T11:52:49.207756,0.583,-0.878,-0.357,91.524,39.634,33.11,12_10_3.csv
2018-07-10T11:52:49.252877,0.583,-0.878,-0.357,169.085,-123.963,-87.622,12_10_3.csv
2018-07-10T11:52:49.333097,2.561,-1.708,-1.12,-41.768,23.293,11.341,12_10_3.csv
2018-07-10T11:52:49.400281,1.547,-1.431,-0.641,29.207,84.085,-54.634,12_10_3.csv
2018-07-10T11:52:49.442395,-0.188,-0.002,0.133,-47.927,122.988,2.439,12_10_3.csv
2018-07-10T11:52:49.488019,-0.188,-0.002,0.133,-99.939,122.744,66.402,12_10_3.csv
2018-07-10T11:52:49.534647,-0.193,0.244,0.277,-91.768,76.463,44.817,12_10_3.csv
2018-07-10T11:52:49.582778,0.101,-0.148,0.097,-21.585,-62.134,6.341,12_10_3.csv
2018-07-10T11:52:49.628902,0.101,-0.148,0.097,48.415,-13.902,27.805,12_10_3.csv
2018-07-10T11:52:49.680540,0.073,-0.173,-0.212,87.988,4.451,39.146,12_10_3.csv
2018-07-10T11:52:49.754238,1.53,-1.166,-0.29,-4.39,-79.451,30.366,12_10_3.csv
2018-07-10T11:52:49.804373,1.53,-1.166,-0.29,146.159,-83.171,-94.024,12_10_3.csv
2018-07-10T11:52:49.850998,2.682,-2.068,-1.045,90.732,-48.78,-162.012,12_10_3.csv
2018-07-10T11:52:49.894114,2.682,-2.068,-1.045,-18.415,-59.085,-64.817,12_10_3.csv
2018-07-10T11:52:49.950265,0.796,-1.058,-0.141,-146.524,70.305,61.524,12_10_3.csv
2018-07-10T11:52:49.998895,-0.354,0.315,0.192,-63.171,135.366,106.89,12_10_3.csv
2018-07-10T11:52:50.051035,-0.354,0.315,0.192,-54.756,145.732,105.976,12_10_3.csv
2018-07-10T11:52:50.096158,-0.15,0.1,0.075,-176.951,45.915,35.549,12_10_3.csv
2018-07-10T11:52:50.144287,0.102,-0.091,0.079,59.085,-53.354,-23.049,12_10_3.csv
2018-07-10T11:52:50.191418,0.102,-0.091,0.079,34.085,-14.085,23.902,12_10_3.csv
2018-07-10T11:52:50.237541,0.673,-0.573,-0.276,-48.354,-10.122,30.366,12_10_3.csv
2018-07-10T11:52:50.286678,0.673,-0.573,-0.276,-35.305,-103.781,-54.024,12_10_3.csv
2018-07-10T11:52:50.331799,2.429,-1.669,-1.331,164.329,-13.293,-201.403,12_10_3.csv
2018-07-10T11:52:50.378929,2.429,-1.669,-1.331,-114.085,50.732,-22.073,12_10_3.csv
2018-07-10T11:52:50.426058,1.648,-1.345,-1.055,-37.5,63.476,18.72,12_10_3.csv
2018-07-10T11:52:50.472685,0.12,0.093,0.024,33.049,112.561,0.976,12_10_3.csv
2018-07-10T11:52:50.519312,0.12,0.093,0.024,-35.915,62.195,46.829,12_10_3.csv
2018-07-10T11:52:50.574463,-0.262,0.226,0.26,-52.256,23.659,35.183,12_10_3.csv
2018-07-10T11:52:50.632621,-0.008,-0.106,0.185,6.098,-57.988,4.451,12_10_3.csv
2018-07-10T11:52:50.736904,0.198,-0.266,-0.084,8.963,-55.671,41.646,12_10_3.csv
2018-07-10T11:52:50.787046,1.584,-1.295,-1.096,89.695,31.951,-50.244,12_10_3.csv
2018-07-10T11:52:50.832165,1.584,-1.295,-1.096,87.927,-6.89,-77.134,12_10_3.csv
2018-07-10T11:52:50.878792,2.217,-1.432,-1.361,-159.451,-40.0,59.573,12_10_3.csv
2018-07-10T11:52:50.935448,2.217,-1.432,-1.361,-207.256,-11.22,105.0,12_10_3.csv
2018-07-10T11:52:50.987592,0.708,-0.733,-0.756,46.707,129.451,-17.744,12_10_3.csv
2018-07-10T11:52:51.034719,-0.229,0.16,0.116,72.256,95.366,18.537,12_10_3.csv
2018-07-10T11:52:51.082852,-0.229,0.16,0.116,59.878,39.817,31.159,12_10_3.csv
2018-07-10T11:52:51.128975,-0.174,0.197,0.16,-14.39,44.451,28.598,12_10_3.csv
2018-07-10T11:52:51.175603,-0.174,0.197,0.16,-19.085,13.354,3.963,12_10_3.csv
2018-07-10T11:52:51.230253,-0.044,-0.182,0.016,-12.683,-68.171,7.927,12_10_3.csv
2018-07-10T11:52:51.284402,0.63,-0.617,-0.433,-39.207,-42.256,35.122,12_10_3.csv
2018-07-10T11:52:51.337545,0.63,-0.617,-0.433,-107.5,-46.524,35.305,12_10_3.csv
2018-07-10T11:52:51.385679,2.422,-1.969,-1.227,-36.463,-129.024,-89.573,12_10_3.csv
2018-07-10T11:52:51.430800,0.98,-1.092,-1.926,157.012,148.659,-41.28,12_10_3.csv
2018-07-10T11:52:51.477427,0.98,-1.092,-1.926,-139.634,61.768,59.268,12_10_3.csv
2018-07-10T11:52:51.526061,-0.325,-0.308,0.063,-50.976,106.524,25.305,12_10_3.csv
2018-07-10T11:52:51.586227,-0.325,-0.308,0.063,103.842,75.976,34.268,12_10_3.csv
2018-07-10T11:52:51.628339,-0.106,0.27,0.542,84.756,-22.561,71.463,12_10_3.csv
2018-07-10T11:52:51.681486,0.14,0.182,-0.022,24.573,-65.854,-43.11,12_10_3.csv
2018-07-10T11:52:51.724604,0.14,0.182,-0.022,-32.5,49.695,2.195,12_10_3.csv
2018-07-10T11:52:51.771232,0.134,-0.294,-0.389,-15.305,63.171,28.293,12_10_3.csv
2018-07-10T11:52:51.823876,0.134,-0.294,-0.389,4.939,10.549,0.732,12_10_3.csv
2018-07-10T11:52:51.876519,2.001,-1.59,-0.703,71.585,-90.915,-67.134,12_10_3.csv
2018-07-10T11:52:51.926155,1.969,-1.694,-1.56,49.024,-97.439,-16.22,12_10_3.csv
2018-07-10T11:52:51.973785,1.969,-1.694,-1.56,-68.232,-5.061,1.341,12_10_3.csv
2018-07-10T11:52:52.064499,0.359,-0.619,-0.234,-59.329,66.768,-12.561,12_10_3.csv
2018-07-10T11:52:52.112632,-0.323,0.163,0.326,-63.902,56.829,61.829,12_10_3.csv
2018-07-10T11:52:52.164772,-0.056,0.022,0.267,-3.232,-13.354,-12.317,12_10_3.csv
2018-07-10T11:52:52.206889,-0.056,0.022,0.267,7.439,-56.098,-34.207,12_10_3.csv
2018-07-10T11:52:52.254016,0.138,-0.05,0.012,11.098,-24.207,-1.524,12_10_3.csv
2018-07-10T11:52:52.301147,0.138,-0.05,0.012,28.354,21.037,37.805,12_10_3.csv
2018-07-10T11:52:52.346269,1.007,-0.687,-0.721,50.915,-52.134,43.415,12_10_3.csv
2018-07-10T11:52:52.396408,2.369,-1.937,-1.356,133.72,-52.805,-146.463,12_10_3.csv
2018-07-10T11:52:52.452559,2.369,-1.937,-1.356,52.805,-63.354,-66.707,12_10_3.csv
2018-07-10T11:52:52.503700,1.165,-1.317,-0.866,-72.134,31.402,12.561,12_10_3.csv
2018-07-10T11:52:52.555840,-0.228,-0.066,0.081,-128.963,84.512,16.768,12_10_3.csv
2018-07-10T11:52:52.603973,-0.228,-0.066,0.081,-67.5,56.524,-3.902,12_10_3.csv
2018-07-10T11:52:52.649093,-0.134,0.123,0.411,10.305,-8.354,9.146,12_10_3.csv
2018-07-10T11:52:52.695223,-0.134,0.123,0.411,48.476,-58.598,-2.195,12_10_3.csv
2018-07-10T11:52:52.751374,0.189,0.024,0.239,19.573,-48.841,-2.561,12_10_3.csv
2018-07-10T11:52:52.804520,0.138,-0.232,-0.329,51.585,-2.683,13.841,12_10_3.csv
2018-07-10T11:52:52.855657,0.138,-0.232,-0.329,67.805,-44.817,-8.963,12_10_3.csv
2018-07-10T11:52:52.910811,2.223,-1.101,-1.195,68.72,-138.537,-7.439,12_10_3.csv
2018-07-10T11:52:52.959942,2.06,-1.297,-1.957,-131.768,139.39,-111.159,12_10_3.csv
2018-07-10T11:52:53.005069,2.06,-1.297,-1.957,-98.049,247.622,-0.671,12_10_3.csv
2018-07-10T11:52:53.051193,0.272,-0.708,-0.56,-154.756,51.463,20.183,12_10_3.csv
2018-07-10T11:52:53.097321,0.272,-0.708,-0.56,-185.305,33.11,47.5,12_10_3.csv
2018-07-10T11:52:53.143446,-0.449,-0.273,0.308,-51.89,24.756,24.39,12_10_3.csv
2018-07-10T11:52:53.191581,-0.449,-0.273,0.308,29.085,-40.549,63.659,12_10_3.csv
2018-07-10T11:52:53.237704,-0.128,-0.102,0.083,98.415,-137.073,-14.634,12_10_3.csv
2018-07-10T11:52:53.285334,0.139,-0.263,-0.305,83.049,-105.061,16.22,12_10_3.csv
2018-07-10T11:52:53.337978,0.139,-0.263,-0.305,67.134,-9.634,86.951,12_10_3.csv
2018-07-10T11:52:53.539111,0.644,-1.408,-1.694,-286.22,476.281,31.951,12_10_3.csv
2018-07-10T11:52:53.586741,0.644,-1.408,-1.694,90.061,72.561,-81.22,12_10_3.csv
2018-07-10T11:52:53.633366,-0.073,-0.287,-0.427,55.366,-164.024,-62.317,12_10_3.csv
2018-07-10T11:52:53.679992,-0.073,-0.287,-0.427,-73.537,141.768,-50.732,12_10_3.csv
2018-07-10T11:52:53.729123,-0.165,0.329,0.479,-117.073,42.195,-68.171,12_10_3.csv
2018-07-10T11:52:53.795301,-0.062,-0.162,0.082,-164.451,61.951,-43.841,12_10_3.csv
2018-07-10T11:52:53.847441,0.319,-0.461,-0.489,-44.451,45.244,83.415,12_10_3.csv
2018-07-10T11:52:53.894569,0.319,-0.461,-0.489,24.085,-0.915,138.11,12_10_3.csv
2018-07-10T11:52:53.962750,1.837,-1.292,-0.967,-7.439,-221.585,37.988,12_10_3.csv
2018-07-10T11:52:54.002357,1.871,-1.251,-1.623,-114.878,-106.707,72.073,12_10_3.csv
2018-07-10T11:52:54.053494,1.871,-1.251,-1.623,-161.646,104.756,127.439,12_10_3.csv
2018-07-10T11:52:54.105133,0.247,-0.612,-0.749,-138.659,86.22,148.842,12_10_3.csv
2018-07-10T11:52:54.164291,-0.236,0.027,0.267,67.195,-35.122,58.963,12_10_3.csv
2018-07-10T11:52:54.215428,-0.236,0.027,0.267,-78.537,-25.793,101.768,12_10_3.csv
2018-07-10T11:52:54.255536,-0.1,-0.034,0.188,-136.342,-61.829,82.622,12_10_3.csv
2018-07-10T11:52:54.301158,-0.1,-0.034,0.188,-122.744,-104.146,63.049,12_10_3.csv
2018-07-10T11:52:54.353800,0.012,-0.465,-0.134,-29.817,-160.671,52.317,12_10_3.csv
2018-07-10T11:52:54.396414,0.012,-0.465,-0.134,190.671,-263.11,-16.22,12_10_3.csv
2018-07-10T11:52:54.444042,0.453,-0.691,-1.103,202.195,151.524,-40.122,12_10_3.csv
2018-07-10T11:52:54.503703,0.133,-2.417,-2.144,10.915,94.817,-128.171,12_10_3.csv
2018-07-10T11:52:54.552333,0.133,-2.417,-2.144,-9.268,-185.061,-85.488,12_10_3.csv
2018-07-10T11:52:54.598958,0.258,-1.33,-1.051,-105.0,69.085,-121.951,12_10_3.csv
2018-07-10T11:52:54.644580,0.258,-1.33,-1.051,-108.537,232.744,-157.866,12_10_3.csv
2018-07-10T11:52:54.694715,0.289,0.194,0.219,-265.793,264.756,-152.744,12_10_3.csv
2018-07-10T11:52:54.789469,-0.052,-0.175,0.482,56.402,365.061,-150.366,12_10_3.csv
2018-07-10T11:52:54.831582,-0.153,-0.353,-0.062,126.402,159.329,-68.78,12_10_3.csv
2018-07-10T11:52:54.879210,-0.153,-0.353,-0.062,83.659,144.146,-4.512,12_10_3.csv
2018-07-10T11:52:54.925835,-0.056,-0.258,-0.388,113.902,104.146,91.22,12_10_3.csv
2018-07-10T11:52:54.972962,2.735,-2.197,-1.2,-41.28,-697.073,463.659,12_10_3.csv
2018-07-10T11:52:55.026606,2.735,-2.197,-1.2,296.768,-422.744,103.415,12_10_3.csv
2018-07-10T11:52:55.097797,2.22,-1.782,-0.62,283.293,-5.549,-293.537,12_10_3.csv
2018-07-10T11:52:55.143921,0.546,-0.566,-0.023,36.159,67.439,-135.122,12_10_3.csv
2018-07-10T11:52:55.196562,0.546,-0.566,-0.023,-126.951,94.451,-93.841,12_10_3.csv
2018-07-10T11:52:55.272266,-0.424,0.126,0.118,-38.598,62.134,-68.841,12_10_3.csv
2018-07-10T11:52:55.337440,-0.287,-0.042,0.272,43.293,-9.878,-20.0,12_10_3.csv
2018-07-10T11:52:55.378049,-0.045,-0.025,0.205,59.939,23.11,24.634,12_10_3.csv
2018-07-10T11:52:55.432696,-0.045,-0.025,0.205,124.146,36.585,41.159,12_10_3.csv
2018-07-10T11:52:55.488847,1.484,-0.497,0.335,137.622,-52.439,12.622,12_10_3.csv
2018-07-10T11:52:55.534469,3.301,-1.375,0.37,151.768,7.5,124.817,12_10_3.csv
2018-07-10T11:52:55.591623,3.301,-1.375,0.37,57.5,-89.573,-26.037,12_10_3.csv
2018-07-10T11:52:55.660808,1.338,-0.965,0.136,-158.842,15.244,-26.463,12_10_3.csv
2018-07-10T11:52:55.722474,-0.395,0.294,0.21,-129.878,96.646,-30.183,12_10_3.csv
2018-07-10T11:52:55.773110,-0.225,0.109,0.235,-16.829,15.549,-4.146,12_10_3.csv
2018-07-10T11:52:55.816226,-0.225,0.109,0.235,-45.366,-42.561,33.963,12_10_3.csv
2018-07-10T11:52:55.865859,0.055,-0.117,0.015,-46.341,2.012,31.037,12_10_3.csv
2018-07-10T11:52:55.912985,0.055,-0.117,0.015,-19.146,21.585,22.5,12_10_3.csv
2018-07-10T11:52:55.970640,0.422,-0.229,0.234,32.927,23.476,4.329,12_10_3.csv
2018-07-10T11:52:56.024284,3.062,-0.895,0.32,156.89,-127.256,17.683,12_10_3.csv
2018-07-10T11:52:56.070909,3.062,-0.895,0.32,96.28,-3.171,-20.427,12_10_3.csv
2018-07-10T11:52:56.151626,2.535,-0.904,0.141,5.915,-35.183,-27.866,12_10_3.csv
2018-07-10T11:52:56.193237,0.439,-0.315,0.074,-88.902,22.683,1.402,12_10_3.csv
2018-07-10T11:52:56.240364,0.439,-0.315,0.074,-172.988,84.329,-26.829,12_10_3.csv
2018-07-10T11:52:56.295011,-0.576,0.233,0.154,-23.354,47.988,-24.146,12_10_3.csv
2018-07-10T11:52:56.353668,-0.076,0.052,0.316,29.268,-22.622,-9.39,12_10_3.csv
2018-07-10T11:52:56.399291,-0.076,0.052,0.316,8.476,-17.805,-8.476,12_10_3.csv
2018-07-10T11:52:56.449425,0.158,-0.026,-0.062,20.793,-5.549,39.634,12_10_3.csv
2018-07-10T11:52:56.493543,0.158,-0.026,-0.062,-19.146,-24.817,49.39,12_10_3.csv
2018-07-10T11:52:56.539166,1.708,-0.765,0.332,162.744,-117.561,112.927,12_10_3.csv
2018-07-10T11:52:56.596821,3.185,-1.458,-0.045,225.061,69.39,135.305,12_10_3.csv
2018-07-10T11:52:56.646454,3.185,-1.458,-0.045,73.476,-112.988,-54.146,12_10_3.csv
2018-07-10T11:52:56.696088,1.11,-0.792,0.145,-76.89,38.537,-26.463,12_10_3.csv
2018-07-10T11:52:56.741208,-0.331,0.269,-0.065,-211.646,92.195,-65.732,12_10_3.csv
2018-07-10T11:52:56.787834,-0.331,0.269,-0.065,-215.854,70.488,-79.878,12_10_3.csv
2018-07-10T11:52:56.838971,-0.125,-0.122,0.404,-114.329,-19.085,-20.244,12_10_3.csv
2018-07-10T11:52:56.897127,0.111,0.059,0.096,-79.939,-30.061,25.488,12_10_3.csv
2018-07-10T11:52:56.942750,0.111,0.059,0.096,23.902,-0.915,9.146,12_10_3.csv
2018-07-10T11:52:56.989374,0.728,-0.312,0.22,102.988,1.707,-12.378,12_10_3.csv
2018-07-10T11:52:57.036000,0.728,-0.312,0.22,200.488,-20.732,48.598,12_10_3.csv
2018-07-10T11:52:57.083126,2.798,-1.498,0.056,230.732,41.524,150.244,12_10_3.csv
2018-07-10T11:52:57.129250,2.798,-1.498,0.056,24.878,-53.049,65.183,12_10_3.csv
2018-07-10T11:52:57.190916,2.233,-1.173,-0.145,-98.232,12.744,-63.171,12_10_3.csv
2018-07-10T11:52:57.259739,0.262,-0.186,0.031,-117.805,87.744,-29.756,12_10_3.csv
2018-07-10T11:52:57.303857,-0.451,0.11,0.293,-38.354,140.854,21.707,12_10_3.csv
2018-07-10T11:52:57.348983,-0.451,0.11,0.293,83.78,129.878,-21.829,12_10_3.csv
2018-07-10T11:52:57.395120,-0.084,0.117,0.234,-17.134,15.122,-30.732,12_10_3.csv
2018-07-10T11:52:57.441235,-0.084,0.117,0.234,-43.476,-41.951,-31.646,12_10_3.csv
2018-07-10T11:52:57.857054,-0.212,0.114,-0.104,-202.683,52.805,-109.817,12_10_3.csv
2018-07-10T11:52:57.911199,-0.371,-0.176,0.266,-37.378,-26.646,5.915,12_10_3.csv
2018-07-10T11:52:57.963342,0.013,-0.046,0.135,-17.622,-29.573,42.988,12_10_3.csv
2018-07-10T11:52:58.005455,0.013,-0.046,0.135,-23.415,-0.183,40.793,12_10_3.csv
2018-07-10T11:52:58.054587,0.595,0.127,0.224,19.146,-9.085,13.659,12_10_3.csv
2018-07-10T11:52:58.099708,0.595,0.127,0.224,148.11,-69.878,69.756,12_10_3.csv
2018-07-10T11:52:58.162376,3.241,-1.682,0.246,351.159,-137.927,102.622,12_10_3.csv
2018-07-10T11:52:58.207497,2.134,-1.167,0.27,8.598,-59.878,-65.366,12_10_3.csv
2018-07-10T11:52:58.255626,2.134,-1.167,0.27,-71.159,47.561,-67.744,12_10_3.csv
2018-07-10T11:52:58.303254,-0.162,0.061,0.095,-75.61,94.634,-78.72,12_10_3.csv
2018-07-10T11:52:58.347874,-0.341,0.152,-0.018,-37.866,93.476,-66.829,12_10_3.csv
2018-07-10T11:52:58.395001,-0.341,0.152,-0.018,48.476,43.72,-8.354,12_10_3.csv
2018-07-10T11:52:58.449647,-0.091,-0.19,0.239,57.256,-18.293,25.854,12_10_3.csv
2018-07-10T11:52:58.522844,0.295,-0.004,0.057,-79.451,36.037,-0.854,12_10_3.csv
2018-07-10T11:52:58.573480,0.295,-0.004,0.057,-24.939,-27.866,-15.122,12_10_3.csv
2018-07-10T11:52:58.617598,2.731,-0.798,0.654,93.72,-94.451,36.159,12_10_3.csv
2018-07-10T11:52:58.668738,2.429,-0.812,1.102,10.61,-14.451,20.61,12_10_3.csv
2018-07-10T11:52:58.706840,2.429,-0.812,1.102,-19.634,-5.183,-30.61,12_10_3.csv
2018-07-10T11:52:58.778035,0.567,-0.195,0.263,-50.854,40.915,-64.878,12_10_3.csv
2018-07-10T11:52:58.876304,-0.223,0.233,-0.148,19.146,19.878,2.073,12_10_3.csv
2018-07-10T11:52:58.932454,-0.187,-0.106,0.262,42.134,8.841,19.39,12_10_3.csv
2018-07-10T11:52:58.990614,0.058,0.099,-0.073,-12.622,-0.366,25.122,12_10_3.csv
2018-07-10T11:52:59.037242,0.058,0.099,-0.073,-3.902,-19.329,-0.305,12_10_3.csv
2018-07-10T11:52:59.097907,1.908,-0.593,0.755,98.049,-84.207,25.61,12_10_3.csv
2018-07-10T11:52:59.153060,2.887,-1.0,1.056,102.744,18.415,56.951,12_10_3.csv
2018-07-10T11:52:59.216230,2.887,-1.0,1.056,70.122,-82.317,-5.671,12_10_3.csv
2018-07-10T11:52:59.270380,1.202,-0.386,0.691,-83.232,53.232,-72.012,12_10_3.csv
2018-07-10T11:52:59.317506,-0.098,0.223,-0.227,-108.72,26.22,-82.195,12_10_3.csv
2018-07-10T11:52:59.371152,-0.098,0.223,-0.227,-66.89,21.28,-44.451,12_10_3.csv
2018-07-10T11:52:59.420284,-0.3,-0.012,0.149,4.512,35.305,-20.976,12_10_3.csv
2018-07-10T11:52:59.485961,-0.036,-0.04,0.2,33.293,-12.561,56.829,12_10_3.csv
2018-07-10T11:52:59.538101,-0.036,-0.04,0.2,25.549,-9.268,44.939,12_10_3.csv
2018-07-10T11:52:59.588235,0.967,-0.274,0.498,67.256,-6.951,26.768,12_10_3.csv
2018-07-10T11:52:59.639874,3.265,-0.873,0.797,144.634,-30.549,54.024,12_10_3.csv
2018-07-10T11:52:59.697027,3.265,-0.873,0.797,95.854,-50.122,7.927,12_10_3.csv
2018-07-10T11:52:59.740143,1.795,-0.592,0.722,-47.683,9.756,-51.159,12_10_3.csv
2018-07-10T11:52:59.802310,0.018,0.066,-0.038,-112.561,6.463,-49.512,12_10_3.csv
2018-07-10T11:52:59.849436,0.018,0.066,-0.038,-105.732,37.805,-53.354,12_10_3.csv
2018-07-10T11:52:59.897064,-0.339,0.166,0.023,-17.805,55.854,-14.939,12_10_3.csv
2018-07-10T11:52:59.943689,-0.339,0.166,0.023,27.561,43.171,17.561,12_10_3.csv
2018-07-10T11:52:59.989813,-0.127,-0.021,0.27,17.561,-2.866,17.073,12_10_3.csv
2018-07-10T11:53:00.038443,0.216,0.039,0.198,-16.28,-5.366,0.488,12_10_3.csv
2018-07-10T11:53:00.095597,0.216,0.039,0.198,0.61,-43.72,-5.732,12_10_3.csv
2018-07-10T11:53:00.146233,2.774,-0.635,0.847,64.756,-118.537,50.366,12_10_3.csv
2018-07-10T11:53:00.239483,2.684,-0.815,0.95,51.646,6.28,-29.817,12_10_3.csv
2018-07-10T11:53:00.319197,0.726,-0.09,0.152,-111.402,4.939,-84.512,12_10_3.csv
2018-07-10T11:53:00.367327,-0.288,0.091,-0.05,-152.927,4.878,-93.476,12_10_3.csv
2018-07-10T11:53:00.412448,-0.288,0.091,-0.05,-77.927,15.915,-19.146,12_10_3.csv
2018-07-10T11:53:00.464086,-0.189,-0.091,0.382,-34.573,24.634,18.902,12_10_3.csv
2018-07-10T11:53:00.521741,0.081,0.125,-0.015,-3.11,41.402,2.805,12_10_3.csv
2018-07-10T11:53:00.572377,0.081,0.125,-0.015,62.439,80.183,-16.463,12_10_3.csv
2018-07-10T11:53:00.619002,1.113,-0.057,0.783,62.195,7.378,26.707,12_10_3.csv
2018-07-10T11:53:00.667131,1.113,-0.057,0.783,98.78,-69.512,101.402,12_10_3.csv
2018-07-10T11:53:00.713255,3.471,-0.67,1.045,45.793,-91.829,77.622,12_10_3.csv
2018-07-10T11:53:00.761384,1.563,-0.495,0.473,-37.439,-13.72,-11.463,12_10_3.csv
2018-07-10T11:53:00.821546,1.563,-0.495,0.473,-107.378,25.854,-39.756,12_10_3.csv
2018-07-10T11:53:00.865164,-0.191,0.098,-0.121,-116.585,39.756,-58.78,12_10_3.csv
2018-07-10T11:53:00.915799,-0.191,0.098,-0.121,-117.744,60.854,-50.305,12_10_3.csv
2018-07-10T11:53:00.963928,-0.2,-0.006,0.104,-33.537,21.159,17.866,12_10_3.csv
2018-07-10T11:53:01.009551,-0.124,-0.013,0.333,-57.012,4.085,11.098,12_10_3.csv
2018-07-10T11:53:01.062192,-0.124,-0.013,0.333,-40.61,34.024,3.598,12_10_3.csv
2018-07-10T11:53:01.114833,0.249,0.128,0.264,-38.232,27.561,-14.573,12_10_3.csv
2018-07-10T11:53:01.161458,3.14,-0.767,0.859,47.805,-152.744,-16.89,12_10_3.csv
2018-07-10T11:53:01.209086,3.14,-0.767,0.859,69.512,-16.341,70.915,12_10_3.csv
2018-07-10T11:53:01.256213,2.852,-0.585,0.36,2.988,-38.537,1.037,12_10_3.csv
2018-07-10T11:53:01.303339,2.852,-0.585,0.36,-19.146,-5.244,-73.902,12_10_3.csv
2018-07-10T11:53:01.361997,0.075,-0.059,0.15,-84.817,72.683,-43.354,12_10_3.csv
2018-07-10T11:53:01.416142,-0.52,0.215,0.1,-72.927,72.012,-29.329,12_10_3.csv
2018-07-10T11:53:01.463268,-0.52,0.215,0.1,-20.671,6.098,3.293,12_10_3.csv
2018-07-10T11:53:01.528443,0.015,-0.059,0.21,-3.598,22.622,18.049,12_10_3.csv
2018-07-10T11:53:01.805694,1.308,-0.611,0.264,-132.317,-7.5,-45.427,12_10_3.csv
2018-07-10T11:53:01.852821,1.308,-0.611,0.264,-166.585,7.073,-68.537,12_10_3.csv
2018-07-10T11:53:01.919002,-0.364,0.175,-0.006,-94.146,57.256,-57.805,12_10_3.csv
2018-07-10T11:53:01.977160,-0.262,0.12,0.282,-33.963,40.732,42.073,12_10_3.csv
2018-07-10T11:53:02.020279,-0.262,0.12,0.282,-93.72,-15.61,50.061,12_10_3.csv
2018-07-10T11:53:02.068410,0.128,-0.061,0.113,-120.793,-29.085,39.451,12_10_3.csv
2018-07-10T11:53:02.118547,0.128,-0.061,0.113,-94.085,6.89,34.024,12_10_3.csv
2018-07-10T11:53:02.164671,0.474,-0.136,0.221,-28.841,-113.293,-10.366,12_10_3.csv
2018-07-10T11:53:02.220827,3.494,-1.535,0.083,79.207,-92.561,69.085,12_10_3.csv
2018-07-10T11:53:02.269961,3.494,-1.535,0.083,67.073,12.317,69.878,12_10_3.csv
2018-07-10T11:53:02.324108,2.018,-1.057,-0.051,-26.22,115.305,-40.122,12_10_3.csv
2018-07-10T11:53:02.365219,-0.354,0.267,0.133,-68.598,73.476,-16.098,12_10_3.csv
2018-07-10T11:53:02.418365,-0.354,0.267,0.133,-87.927,10.305,-2.683,12_10_3.csv
2018-07-10T11:53:02.465492,-0.335,0.354,0.179,-57.439,28.659,18.476,12_10_3.csv
2018-07-10T11:53:02.510619,-0.335,0.354,0.179,7.5,18.171,15.915,12_10_3.csv
2018-07-10T11:53:02.559751,-0.072,-0.194,0.071,74.024,-12.683,18.72,12_10_3.csv
2018-07-10T11:53:02.602870,-0.072,-0.194,0.071,60.366,-12.195,-1.707,12_10_3.csv
2018-07-10T11:53:02.644984,0.255,-0.263,0.259,22.317,-27.805,-24.817,12_10_3.csv
2018-07-10T11:53:02.695123,3.064,-1.132,-0.085,-58.293,-157.988,-18.232,12_10_3.csv
2018-07-10T11:53:02.749268,3.064,-1.132,-0.085,85.122,111.037,14.39,12_10_3.csv
2018-07-10T11:53:02.801412,2.789,-1.042,-0.355,248.842,-53.78,-36.768,12_10_3.csv
2018-07-10T11:53:02.847537,-0.362,0.219,0.1,-182.195,18.415,-21.585,12_10_3.csv
2018-07-10T11:53:02.982638,-0.362,0.219,0.1,-3.171,12.012,-25.976,12_10_3.csv
2018-07-10T11:53:03.034781,-0.008,-0.11,0.215,-12.378,-47.927,8.841,12_10_3.csv
2018-07-10T11:53:03.082411,-0.008,-0.11,0.215,-28.537,-8.11,20.915,12_10_3.csv
2018-07-10T11:53:03.396524,1.508,-0.585,0.131,-123.598,44.024,-30.366,12_10_3.csv
2018-07-10T11:53:03.445656,-0.381,0.206,0.117,-181.951,138.72,-90.183,12_10_3.csv
2018-07-10T11:53:03.492786,-0.243,-0.011,0.019,-121.585,10.427,-46.768,12_10_3.csv
2018-07-10T11:53:03.540915,-0.243,-0.011,0.019,-51.402,9.695,46.707,12_10_3.csv
2018-07-10T11:53:03.596068,-0.012,-0.239,0.264,59.39,44.451,22.561,12_10_3.csv
2018-07-10T11:53:03.645200,-0.012,-0.239,0.264,92.012,70.671,51.524,12_10_3.csv
2018-07-10T11:53:03.691328,0.303,0.105,0.106,102.683,-22.439,2.195,12_10_3.csv
2018-07-10T11:53:03.738455,3.267,-0.716,0.747,76.098,-120.305,61.402,12_10_3.csv
2018-07-10T11:53:03.784581,3.267,-0.716,0.747,59.634,87.683,89.268,12_10_3.csv
2018-07-10T11:53:03.832712,2.716,-0.749,0.549,42.988,-105.061,-29.268,12_10_3.csv
2018-07-10T11:53:03.892878,2.716,-0.749,0.549,-79.939,-43.659,-60.61,12_10_3.csv
2018-07-10T11:53:03.942010,0.094,0.03,0.151,-99.085,85.854,-77.866,12_10_3.csv
2018-07-10T11:53:03.987136,-0.448,0.16,0.024,-72.256,70.549,-62.683,12_10_3.csv
2018-07-10T11:53:04.037271,-0.448,0.16,0.024,26.707,10.549,21.28,12_10_3.csv
2018-07-10T11:53:04.088413,-0.087,-0.074,0.244,9.939,-27.622,36.585,12_10_3.csv
2018-07-10T11:53:04.127519,-0.087,-0.074,0.244,-38.415,12.561,29.573,12_10_3.csv
2018-07-10T11:53:04.185676,0.09,0.001,0.064,-0.305,-10.488,11.22,12_10_3.csv
2018-07-10T11:53:04.237819,1.869,-0.05,0.729,73.232,-75.061,17.622,12_10_3.csv
2018-07-10T11:53:04.328065,3.707,-0.795,0.195,16.098,-50.122,16.037,12_10_3.csv
2018-07-10T11:53:04.386225,0.933,-0.48,0.148,52.439,33.354,-49.085,12_10_3.csv
2018-07-10T11:53:04.430346,0.933,-0.48,0.148,37.256,134.573,-63.11,12_10_3.csv
2018-07-10T11:53:04.471961,-0.696,0.424,-0.03,-34.207,107.988,-87.256,12_10_3.csv
2018-07-10T11:53:04.528615,-0.696,0.424,-0.03,-65.305,17.622,-52.622,12_10_3.csv
2018-07-10T11:53:04.582262,-0.092,-0.143,0.244,52.378,-41.829,119.512,12_10_3.csv
2018-07-10T11:53:04.628890,0.091,-0.04,0.159,70.0,5.793,91.159,12_10_3.csv
2018-07-10T11:53:04.678024,0.091,-0.04,0.159,67.561,13.537,27.317,12_10_3.csv
2018-07-10T11:53:04.722145,1.379,-0.216,0.398,87.683,-36.768,20.427,12_10_3.csv
2018-07-10T11:53:04.769272,1.379,-0.216,0.398,87.561,-58.963,75.244,12_10_3.csv
2018-07-10T11:53:04.821416,3.586,-1.178,0.591,64.085,-68.232,5.305,12_10_3.csv
2018-07-10T11:53:04.884588,1.318,-0.722,0.279,-26.829,-8.963,-19.817,12_10_3.csv
2018-07-10T11:53:04.929711,1.318,-0.722,0.279,-140.854,46.402,-29.939,12_10_3.csv
2018-07-10T11:53:04.977842,-0.449,0.379,0.031,-132.134,102.622,-70.122,12_10_3.csv
2018-07-10T11:53:05.019957,-0.32,0.044,0.271,10.061,57.805,-14.085,12_10_3.csv
2018-07-10T11:53:05.071095,-0.32,0.044,0.271,1.037,-36.646,47.012,12_10_3.csv
2018-07-10T11:53:05.129255,0.089,-0.043,0.098,-51.707,-10.427,47.317,12_10_3.csv
2018-07-10T11:53:05.183403,0.621,-0.035,0.167,37.134,-18.293,21.463,12_10_3.csv
2018-07-10T11:53:05.226521,0.621,-0.035,0.167,66.646,-60.0,43.11,12_10_3.csv
2018-07-10T11:53:05.270639,3.444,-1.131,0.681,40.183,-195.366,95.61,12_10_3.csv
2018-07-10T11:53:05.316768,3.444,-1.131,0.681,54.146,19.695,79.878,12_10_3.csv
2018-07-10T11:53:05.364897,2.129,-1.106,0.107,75.305,-34.268,-32.805,12_10_3.csv
2018-07-10T11:53:05.427068,-0.297,0.147,0.137,-87.805,102.866,-74.085,12_10_3.csv
2018-07-10T11:53:05.493248,-0.297,0.147,0.137,-73.171,153.659,-88.598,12_10_3.csv
2018-07-10T11:53:05.536864,-0.334,0.124,0.062,-82.073,48.049,-67.378,12_10_3.csv
2018-07-10T11:53:05.583991,0.054,-0.06,0.261,-26.646,-46.524,42.744,12_10_3.csv
2018-07-10T11:53:05.822618,3.084,-1.557,0.075,134.268,23.841,67.622,12_10_3.csv
2018-07-10T11:53:05.882776,3.084,-1.557,0.075,39.939,-75.915,-69.634,12_10_3.csv
2018-07-10T11:53:05.940937,0.606,-0.242,0.298,-66.89,51.524,-11.037,12_10_3.csv
2018-07-10T11:53:05.987061,-0.356,0.283,-0.004,-107.622,115.427,-96.159,12_10_3.csv
2018-07-10T11:53:06.035194,-0.356,0.283,-0.004,-67.439,-6.098,-67.561,12_10_3.csv
2018-07-10T11:53:06.083323,-0.06,-0.089,0.211,-20.122,-15.61,8.72,12_10_3.csv
2018-07-10T11:53:06.128449,-0.06,-0.089,0.211,-15.732,3.354,25.427,12_10_3.csv
2018-07-10T11:53:06.175576,0.012,0.088,0.137,-3.78,-1.341,12.866,12_10_3.csv
2018-07-10T11:53:06.230729,0.76,-0.293,0.18,63.232,-66.098,20.305,12_10_3.csv
2018-07-10T11:53:06.274847,0.76,-0.293,0.18,112.927,-59.39,83.78,12_10_3.csv
2018-07-10T11:53:06.318466,3.393,-1.549,0.305,137.195,-159.146,107.012,12_10_3.csv
2018-07-10T11:53:06.363089,3.393,-1.549,0.305,60.305,-27.134,3.659,12_10_3.csv
2018-07-10T11:53:06.410719,1.862,-1.256,0.161,-6.037,20.976,-36.341,12_10_3.csv
2018-07-10T11:53:06.456084,1.862,-1.256,0.161,6.646,54.634,7.439,12_10_3.csv
2018-07-10T11:53:06.516249,-0.171,0.34,0.088,-134.085,80.244,-121.463,12_10_3.csv
2018-07-10T11:53:06.570396,-0.257,0.021,0.072,-71.707,-0.671,-84.268,12_10_3.csv
2018-07-10T11:53:06.618027,-0.257,0.021,0.072,-47.073,-37.744,19.634,12_10_3.csv
2018-07-10T11:53:06.665657,0.008,-0.023,0.243,-61.585,-11.89,39.329,12_10_3.csv
2018-07-10T11:53:06.706768,0.008,-0.023,0.243,-39.756,47.439,16.707,12_10_3.csv
2018-07-10T11:53:06.753900,0.278,-0.073,0.001,66.402,-58.476,-4.329,12_10_3.csv
2018-07-10T11:53:06.806040,2.372,-1.029,0.513,58.78,-54.756,44.817,12_10_3.csv
2018-07-10T11:53:06.853171,2.372,-1.029,0.513,109.634,51.22,92.988,12_10_3.csv
2018-07-10T11:53:06.898292,2.9,-1.188,0.173,72.683,-90.427,-27.927,12_10_3.csv
2018-07-10T11:53:06.946425,2.9,-1.188,0.173,3.659,-22.195,-75.122,12_10_3.csv
2018-07-10T11:53:07.051713,-0.495,0.164,0.04,-128.842,109.268,-55.732,12_10_3.csv
2018-07-10T11:53:07.097837,-0.495,0.164,0.04,-112.439,26.159,11.28,12_10_3.csv
2018-07-10T11:53:07.162014,-0.24,-0.019,0.218,-29.085,-7.561,12.5,12_10_3.csv
2018-07-10T11:53:07.207136,0.13,-0.08,0.226,-36.951,-41.159,25.366,12_10_3.csv
2018-07-10T11:53:07.254267,0.13,-0.08,0.226,-6.402,-20.549,49.207,12_10_3.csv
2018-07-10T11:53:07.300390,1.3,-0.402,0.257,0.61,-21.829,12.378,12_10_3.csv
2018-07-10T11:53:07.347521,1.3,-0.402,0.257,80.427,-84.268,6.829,12_10_3.csv
2018-07-10T11:53:07.394648,3.243,-1.32,0.203,109.085,-61.28,2.317,12_10_3.csv
2018-07-10T11:53:07.442783,1.606,-1.048,0.083,-31.829,-74.817,-65.305,12_10_3.csv
2018-07-10T11:53:07.487903,1.606,-1.048,0.083,-150.488,-1.829,-22.988,12_10_3.csv
2018-07-10T11:53:07.535035,-0.196,0.047,0.058,-118.72,14.695,-12.744,12_10_3.csv
2018-07-10T11:53:07.584167,-0.196,0.047,0.058,-81.341,110.854,-40.976,12_10_3.csv
2018-07-10T11:53:07.628789,-0.426,0.225,0.136,-6.037,111.037,-41.646,12_10_3.csv
2018-07-10T11:53:07.674414,-0.104,-0.163,0.215,-7.5,31.159,-10.366,12_10_3.csv
2018-07-10T11:53:07.729562,-0.104,-0.163,0.215,-22.988,-5.793,2.622,12_10_3.csv
2018-07-10T11:53:07.786720,0.302,-0.088,0.264,2.012,11.463,3.72,12_10_3.csv
2018-07-10T11:53:07.835852,2.938,-1.325,0.019,-15.793,-257.988,88.171,12_10_3.csv
2018-07-10T11:53:07.880977,2.938,-1.325,0.019,51.28,-77.866,242.256,12_10_3.csv
2018-07-10T11:53:07.930109,2.591,-1.619,-0.386,8.354,-47.317,15.183,12_10_3.csv
2018-07-10T11:53:07.977240,2.591,-1.619,-0.386,112.073,35.366,-45.122,12_10_3.csv
2018-07-10T11:53:08.022361,0.051,-0.11,0.303,-28.598,57.805,-28.902,12_10_3.csv
2018-07-10T11:53:08.069493,0.051,-0.11,0.303,-50.732,114.451,-36.22,12_10_3.csv
2018-07-10T11:53:08.117622,-0.352,0.247,0.036,-34.329,6.524,-25.366,12_10_3.csv
2018-07-10T11:53:08.164753,0.004,-0.125,0.167,6.341,-46.341,19.817,12_10_3.csv
2018-07-10T11:53:08.210876,0.004,-0.125,0.167,26.098,-32.988,19.146,12_10_3.csv
2018-07-10T11:53:08.272046,0.068,-0.039,0.145,34.817,17.378,24.573,12_10_3.csv
2018-07-10T11:53:08.328196,1.601,-0.953,0.324,45.122,-27.622,23.963,12_10_3.csv
2018-07-10T11:53:08.432480,2.843,-1.855,0.032,66.646,-108.293,120.061,12_10_3.csv
2018-07-10T11:53:08.472593,2.843,-1.855,0.032,-46.28,-100.244,-55.915,12_10_3.csv
2018-07-10T11:53:08.519719,1.238,-1.155,0.179,-78.476,73.902,-52.683,12_10_3.csv
2018-07-10T11:53:08.566361,-0.096,0.16,0.103,-195.488,123.902,-69.695,12_10_3.csv
2018-07-10T11:53:08.614490,-0.096,0.16,0.103,-140.061,64.573,-96.829,12_10_3.csv
2018-07-10T11:53:08.668139,-0.339,0.141,0.167,-72.073,35.122,-48.537,12_10_3.csv
2018-07-10T11:53:08.729303,0.008,-0.081,0.175,38.415,-11.951,13.963,12_10_3.csv
2018-07-10T11:53:08.769418,0.008,-0.081,0.175,24.451,-30.0,18.598,12_10_3.csv
2018-07-10T11:53:08.820555,0.5,-0.189,-0.075,41.341,-28.232,1.28,12_10_3.csv
2018-07-10T11:53:08.865681,0.5,-0.189,-0.075,51.707,-55.244,-27.256,12_10_3.csv
2018-07-10T11:53:08.914813,2.866,-1.21,0.46,-4.634,3.415,6.22,12_10_3.csv
2018-07-10T11:53:08.968963,2.365,-0.983,0.229,51.829,-119.634,-68.171,12_10_3.csv
2018-07-10T11:53:09.020100,2.365,-0.983,0.229,15.915,-28.232,-58.598,12_10_3.csv
2018-07-10T11:53:09.072246,0.024,-0.198,0.157,22.927,78.598,-55.793,12_10_3.csv
2018-07-10T11:53:09.115362,0.024,-0.198,0.157,-7.073,90.732,-68.72,12_10_3.csv
2018-07-10T11:53:09.169514,-0.313,0.151,0.12,-27.683,13.902,-19.695,12_10_3.csv
2018-07-10T11:53:09.211627,-0.042,0.02,0.146,6.037,6.646,35.976,12_10_3.csv
2018-07-10T11:53:09.261262,-0.042,0.02,0.146,6.524,33.659,30.793,12_10_3.csv
2018-07-10T11:53:09.308389,0.133,-0.059,0.131,28.354,23.963,24.634,12_10_3.csv
2018-07-10T11:53:09.363039,2.477,-0.702,0.66,74.39,-128.963,50.0,12_10_3.csv
2018-07-10T11:53:09.412674,2.477,-0.702,0.66,147.683,-76.951,138.537,12_10_3.csv
2018-07-10T11:53:09.456293,2.969,-1.073,0.58,175.366,-56.707,27.561,12_10_3.csv
2018-07-10T11:53:09.504422,2.969,-1.073,0.58,-1.463,-38.476,-53.476,12_10_3.csv
2018-07-10T11:53:09.557344,0.708,-0.387,0.239,-101.829,26.402,-62.744,12_10_3.csv
2018-07-10T11:53:09.615000,-0.275,0.218,-0.118,-93.11,66.585,-80.976,12_10_3.csv
2018-07-10T11:53:09.663634,-0.275,0.218,-0.118,-15.793,78.72,-28.537,12_10_3.csv
2018-07-10T11:53:09.712266,-0.236,-0.04,0.309,24.939,14.39,10.427,12_10_3.csv
2018-07-10T11:53:09.831092,-0.003,0.005,0.199,-0.976,-20.061,34.085,12_10_3.csv
2018-07-10T11:53:09.878219,1.593,-0.586,0.125,-6.037,-67.927,2.317,12_10_3.csv
2018-07-10T11:53:09.930165,3.419,-0.996,0.502,65.549,-34.878,53.72,12_10_3.csv
2018-07-10T11:53:09.972278,3.419,-0.996,0.502,-2.378,-33.598,-79.695,12_10_3.csv
2018-07-10T11:53:10.019908,1.113,-0.605,0.149,-65.366,69.024,-94.695,12_10_3.csv
2018-07-10T11:53:10.067538,1.113,-0.605,0.149,-171.707,90.0,-113.963,12_10_3.csv
2018-07-10T11:53:10.114165,-0.465,0.209,-0.045,-142.683,43.72,-110.732,12_10_3.csv
2018-07-10T11:53:10.159792,-0.465,0.209,-0.045,-50.549,39.817,-44.146,12_10_3.csv
2018-07-10T11:53:10.213438,-0.275,0.057,0.32,13.72,-35.793,49.207,12_10_3.csv
2018-07-10T11:53:10.270092,0.111,-0.115,-0.011,-15.366,-18.537,61.037,12_10_3.csv
2018-07-10T11:53:10.320229,0.111,-0.115,-0.011,1.463,10.854,41.829,12_10_3.csv
2018-07-10T11:53:10.369360,0.767,-0.13,0.188,-10.244,-47.988,20.488,12_10_3.csv
2018-07-10T11:53:10.416989,3.403,-0.937,0.379,74.268,-102.439,141.585,12_10_3.csv
2018-07-10T11:53:10.463112,3.403,-0.937,0.379,51.768,17.561,5.976,12_10_3.csv
2018-07-10T11:53:10.506228,2.029,-0.659,0.372,-15.427,-6.829,-71.585,12_10_3.csv
2018-07-10T11:53:10.558368,2.029,-0.659,0.372,-11.951,60.244,-36.037,12_10_3.csv
2018-07-10T11:53:10.601987,-0.015,0.092,-0.039,-18.78,55.488,-35.549,12_10_3.csv
2018-07-10T11:53:10.650116,-0.34,0.097,-0.074,79.085,62.683,-17.866,12_10_3.csv
2018-07-10T11:53:10.695242,-0.34,0.097,-0.074,134.634,15.793,102.134,12_10_3.csv
2018-07-10T11:53:10.743372,-0.154,-0.067,0.348,123.963,9.878,77.622,12_10_3.csv
2018-07-10T11:53:10.795012,-0.154,-0.067,0.348,47.073,-50.122,30.305,12_10_3.csv
2018-07-10T11:53:10.852671,0.199,-0.179,0.291,-94.695,-111.402,66.829,12_10_3.csv
2018-07-10T11:53:10.893781,3.268,-1.371,-0.543,-79.817,-359.085,56.89,12_10_3.csv
2018-07-10T11:53:10.948934,3.268,-1.371,-0.543,121.768,41.829,-73.476,12_10_3.csv
2018-07-10T11:53:10.988039,2.79,-0.914,-0.139,13.841,99.085,-172.439,12_10_3.csv
2018-07-10T11:53:11.041186,2.79,-0.914,-0.139,11.951,188.415,-86.402,12_10_3.csv
2018-07-10T11:53:11.143045,-0.416,0.276,0.093,-37.561,35.366,-4.695,12_10_3.csv
2018-07-10T11:53:11.191173,-0.416,0.276,0.093,68.476,-0.61,30.061,12_10_3.csv
2018-07-10T11:53:11.238306,0.002,-0.16,0.166,92.256,5.0,47.073,12_10_3.csv
2018-07-10T11:53:11.286435,0.002,-0.16,0.166,22.5,18.415,28.659,12_10_3.csv
2018-07-10T11:53:11.332564,0.113,-0.104,-0.013,-54.024,-22.622,33.72,12_10_3.csv
2018-07-10T11:53:11.378688,1.714,-0.891,0.567,-67.744,-104.695,73.171,12_10_3.csv
2018-07-10T11:53:11.433840,1.714,-0.891,0.567,-32.866,-227.317,176.707,12_10_3.csv
2018-07-10T11:53:11.497011,3.398,-1.208,-0.209,2.744,-31.159,-115.244,12_10_3.csv
2018-07-10T11:53:11.536120,0.936,-0.645,0.104,35.671,99.573,-90.305,12_10_3.csv
2018-07-10T11:53:11.583247,0.936,-0.645,0.104,-67.256,78.293,-87.378,12_10_3.csv
2018-07-10T11:53:11.627371,-0.448,0.186,0.059,-81.463,36.951,-67.622,12_10_3.csv
2018-07-10T11:53:11.681516,-0.448,0.186,0.059,-63.232,65.61,-34.146,12_10_3.csv
2018-07-10T11:53:11.734664,-0.052,-0.115,0.11,-21.646,26.646,23.78,12_10_3.csv
2018-07-10T11:53:11.800842,-0.086,0.014,0.256,-0.183,48.78,9.634,12_10_3.csv
2018-07-10T11:53:11.847975,-0.086,0.014,0.256,12.805,51.89,-9.268,12_10_3.csv
2018-07-10T11:53:11.896104,1.104,-0.274,0.494,-16.89,-154.512,8.537,12_10_3.csv
2018-07-10T11:53:11.941230,3.722,-0.983,0.127,115.854,-168.963,85.915,12_10_3.csv
2018-07-10T11:53:11.987354,3.722,-0.983,0.127,90.732,13.841,-13.659,12_10_3.csv
2018-07-10T11:53:12.043510,1.384,-0.916,0.266,49.024,68.902,-48.841,12_10_3.csv
2018-07-10T11:53:12.104675,-0.383,0.251,0.039,-109.329,101.524,-86.524,12_10_3.csv
2018-07-10T11:53:12.146793,-0.383,0.251,0.039,-53.537,95.854,-96.159,12_10_3.csv
2018-07-10T11:53:12.193920,-0.186,0.022,0.285,5.427,55.122,-31.524,12_10_3.csv
2018-07-10T11:53:12.243058,-0.186,0.022,0.285,-11.037,29.39,12.012,12_10_3.csv
2018-07-10T11:53:12.288177,0.041,-0.094,0.081,-56.951,6.585,27.561,12_10_3.csv
2018-07-10T11:53:12.353357,0.328,0.028,0.238,-51.951,7.683,2.317,12_10_3.csv
2018-07-10T11:53:12.396472,0.328,0.028,0.238,-48.78,-24.268,-3.78,12_10_3.csv
2018-07-10T11:53:12.441598,2.917,-0.802,1.004,14.939,-73.354,52.866,12_10_3.csv
2018-07-10T11:53:12.552901,2.527,-1.083,0.808,53.354,32.012,-29.756,12_10_3.csv
2018-07-10T11:53:12.601031,0.284,-0.318,0.24,-81.037,-0.915,-47.683,12_10_3.csv
2018-07-10T11:53:12.645155,0.284,-0.318,0.24,-118.11,25.305,-82.5,12_10_3.csv
2018-07-10T11:53:12.699300,-0.421,0.435,-0.05,-16.037,1.829,-3.537,12_10_3.csv
2018-07-10T11:53:12.754453,-0.061,-0.082,0.163,43.232,2.317,18.476,12_10_3.csv
2018-07-10T11:53:12.805590,-0.061,-0.082,0.163,9.756,-11.524,13.963,12_10_3.csv
2018-07-10T11:53:12.848711,0.128,-0.065,0.227,-13.598,-8.72,10.366,12_10_3.csv
2018-07-10T11:53:12.897843,0.128,-0.065,0.227,-39.268,-4.146,-2.317,12_10_3.csv
2018-07-10T11:53:12.943971,1.68,-0.289,0.478,-56.037,-192.317,20.732,12_10_3.csv
2018-07-10T11:53:12.993103,3.434,-1.054,0.056,102.866,-9.329,77.5,12_10_3.csv
2018-07-10T11:53:13.051268,3.434,-1.054,0.056,72.927,-9.573,-37.012,12_10_3.csv
2018-07-10T11:53:13.101402,1.116,-0.716,0.156,-64.146,21.098,-8.78,12_10_3.csv
2018-07-10T11:53:13.145261,-0.57,0.36,0.125,-11.463,87.927,-23.598,12_10_3.csv
2018-07-10T11:53:13.191385,-0.57,0.36,0.125,27.256,135.854,-28.354,12_10_3.csv
2018-07-10T11:53:13.240523,-0.091,0.164,0.12,45.244,41.585,-9.512,12_10_3.csv
2018-07-10T11:53:13.289655,-0.091,0.164,0.12,89.878,25.427,15.427,12_10_3.csv
2018-07-10T11:53:13.331773,0.053,-0.1,0.172,81.098,29.939,25.0,12_10_3.csv
2018-07-10T11:53:13.385918,0.577,-0.137,0.515,85.976,24.573,47.378,12_10_3.csv
2018-07-10T11:53:13.431042,0.577,-0.137,0.515,65.427,-62.134,33.537,12_10_3.csv
2018-07-10T11:53:13.479173,3.275,-1.306,0.979,129.573,-128.11,146.829,12_10_3.csv
2018-07-10T11:53:13.520286,3.275,-1.306,0.979,121.037,-123.963,92.988,12_10_3.csv
2018-07-10T11:53:13.576440,2.106,-0.911,0.319,-40.488,-36.463,-71.28,12_10_3.csv
2018-07-10T11:53:13.630085,-0.271,0.212,0.098,-88.598,53.78,-32.927,12_10_3.csv
2018-07-10T11:53:13.675707,-0.271,0.212,0.098,-23.11,88.902,-41.707,12_10_3.csv
2018-07-10T11:53:13.724338,-0.304,0.187,0.214,79.329,56.524,17.073,12_10_3.csv
2018-07-10T11:53:13.769459,-0.304,0.187,0.214,63.841,-26.646,45.732,12_10_3.csv
2018-07-10T11:53:13.999207,2.588,-0.706,0.381,-16.341,-81.098,79.207,12_10_3.csv
2018-07-10T11:53:14.056395,2.594,-0.84,0.24,-47.439,-69.207,-20.244,12_10_3.csv
2018-07-10T11:53:14.097505,2.594,-0.84,0.24,-36.159,-6.768,-15.122,12_10_3.csv
2018-07-10T11:53:14.143633,0.972,-0.347,0.028,-66.524,48.293,-35.915,12_10_3.csv
2018-07-10T11:53:14.193768,-0.183,0.208,0.094,-32.256,93.598,-58.841,12_10_3.csv
2018-07-10T11:53:14.237891,-0.183,0.208,0.094,37.073,128.659,-2.927,12_10_3.csv
2018-07-10T11:53:14.285018,-0.245,0.0,0.303,63.293,42.927,21.646,12_10_3.csv
2018-07-10T11:53:14.341173,-0.245,0.0,0.303,23.354,-15.671,11.037,12_10_3.csv
2018-07-10T11:53:14.396321,0.14,-0.086,-0.006,54.329,4.329,24.634,12_10_3.csv
2018-07-10T11:53:14.440444,1.244,-0.566,0.298,30.976,-31.829,37.866,12_10_3.csv
2018-07-10T11:53:14.494590,1.244,-0.566,0.298,-79.268,-187.805,48.476,12_10_3.csv
2018-07-10T11:53:14.536389,3.077,-0.93,0.073,-49.146,-85.793,100.488,12_10_3.csv
2018-07-10T11:53:14.581510,3.077,-0.93,0.073,-14.146,-91.646,-35.732,12_10_3.csv
2018-07-10T11:53:14.637665,1.66,-0.726,0.05,-79.512,84.573,-27.012,12_10_3.csv
2018-07-10T11:53:14.680781,-0.246,0.261,0.09,-87.805,62.988,-62.5,12_10_3.csv
2018-07-10T11:53:14.726406,-0.246,0.261,0.09,-2.561,63.171,-36.098,12_10_3.csv
2018-07-10T11:53:14.771028,-0.21,0.116,0.212,100.976,73.171,17.439,12_10_3.csv
2018-07-10T11:53:14.819662,-0.21,0.116,0.212,96.341,6.159,22.866,12_10_3.csv
2018-07-10T11:53:14.867291,0.03,-0.222,0.208,49.512,22.561,46.098,12_10_3.csv
2018-07-10T11:53:14.918428,0.804,-0.223,0.195,40.061,-12.5,45.976,12_10_3.csv
2018-07-10T11:53:14.977479,0.804,-0.223,0.195,62.439,-117.927,69.573,12_10_3.csv
2018-07-10T11:53:15.019594,3.053,-1.101,0.49,74.329,70.0,122.866,12_10_3.csv
2018-07-10T11:53:15.075747,2.048,-1.052,0.32,12.317,-163.049,-67.378,12_10_3.csv
2018-07-10T11:53:15.128390,2.048,-1.052,0.32,-57.378,23.354,-59.207,12_10_3.csv
2018-07-10T11:53:15.235717,-0.36,0.132,0.168,-70.305,4.451,90.183,12_10_3.csv
2018-07-10T11:53:15.310921,0.168,0.079,0.122,52.744,-70.122,74.817,12_10_3.csv
2018-07-10T11:53:15.363567,0.168,0.079,0.122,-48.049,42.988,-12.683,12_10_3.csv
