time,accel_x_list,accel_y_list,accel_z_list,gyro_x_list,gyro_y_list,gyro_z_list,filename
2018-07-10T11:39:08.767244,0.972,-0.886,-0.354,76.159,-53.476,-17.439,12_6_1.csv
2018-07-10T11:39:08.812365,0.851,-0.592,-0.292,54.634,-44.939,35.793,12_6_1.csv
2018-07-10T11:39:08.867517,0.795,-0.444,-0.175,10.488,-48.902,148.659,12_6_1.csv
2018-07-10T11:39:08.926675,0.795,-0.444,-0.175,-18.902,-78.598,132.134,12_6_1.csv
2018-07-10T11:39:08.968795,0.747,-0.524,-0.121,-46.28,-79.207,89.085,12_6_1.csv
2018-07-10T11:39:09.021935,0.715,-0.512,-0.153,5.549,6.951,34.512,12_6_1.csv
2018-07-10T11:39:09.067059,0.715,-0.512,-0.153,10.122,40.793,29.512,12_6_1.csv
2018-07-10T11:39:09.110176,0.637,-0.495,-0.128,-8.902,35.61,14.939,12_6_1.csv
2018-07-10T11:39:09.165827,0.637,-0.495,-0.128,-28.415,33.049,-2.073,12_6_1.csv
2018-07-10T11:39:09.224486,0.651,-0.563,-0.195,12.561,52.988,-35.427,12_6_1.csv
2018-07-10T11:39:09.267103,0.547,-0.782,-0.428,50.366,77.683,-47.683,12_6_1.csv
2018-07-10T11:39:09.318743,0.547,-0.782,-0.428,152.317,28.963,-81.463,12_6_1.csv
2018-07-10T11:39:09.360357,0.599,-0.858,-0.472,224.695,-69.634,-117.866,12_6_1.csv
2018-07-10T11:39:09.409991,0.599,-0.858,-0.472,158.598,-125.0,-89.756,12_6_1.csv
2018-07-10T11:39:09.463636,1.015,-0.801,-0.395,-19.146,-52.195,-30.122,12_6_1.csv
2018-07-10T11:39:09.517280,0.743,-0.688,-0.19,-86.402,21.89,-5.671,12_6_1.csv
2018-07-10T11:39:09.562901,0.743,-0.688,-0.19,-119.024,12.622,45.915,12_6_1.csv
2018-07-10T11:39:09.610529,0.689,-0.686,-0.041,-83.049,-63.659,93.476,12_6_1.csv
2018-07-10T11:39:09.657153,0.689,-0.686,-0.041,13.78,-130.854,95.915,12_6_1.csv
2018-07-10T11:39:09.704782,0.877,-0.223,-0.35,-15.366,40.0,43.902,12_6_1.csv
2018-07-10T11:39:09.755920,0.551,-0.321,-0.331,-58.415,-38.11,32.012,12_6_1.csv
2018-07-10T11:39:09.816624,0.551,-0.321,-0.331,18.049,-93.232,-3.11,12_6_1.csv
2018-07-10T11:39:09.859739,0.523,-0.566,-0.224,135.183,-121.89,-49.878,12_6_1.csv
2018-07-10T11:39:09.909377,0.601,-0.473,-0.292,220.427,-128.171,-126.342,12_6_1.csv
2018-07-10T11:39:09.960513,0.601,-0.473,-0.292,146.402,-100.793,-130.793,12_6_1.csv
2018-07-10T11:39:10.048754,0.874,-0.531,-0.313,-96.89,87.805,-109.695,12_6_1.csv
2018-07-10T11:39:10.103907,0.982,-0.898,-0.436,-119.695,147.805,-99.756,12_6_1.csv
2018-07-10T11:39:10.160057,0.914,-0.912,-0.506,-55.671,147.073,-77.134,12_6_1.csv
2018-07-10T11:39:10.204180,0.914,-0.912,-0.506,-34.512,110.793,-48.049,12_6_1.csv
2018-07-10T11:39:10.260330,0.587,-0.568,-0.227,-42.134,52.683,3.902,12_6_1.csv
2018-07-10T11:39:10.313005,0.717,-0.655,-0.157,-70.183,-136.342,92.012,12_6_1.csv
2018-07-10T11:39:10.360131,0.717,-0.655,-0.157,-44.146,-157.561,70.427,12_6_1.csv
2018-07-10T11:39:10.416787,0.714,-0.761,-0.194,43.537,-154.878,29.39,12_6_1.csv
2018-07-10T11:39:10.474945,0.698,-0.493,-0.139,200.122,-82.744,28.72,12_6_1.csv
2018-07-10T11:39:10.518063,0.698,-0.493,-0.139,170.244,-27.317,51.646,12_6_1.csv
2018-07-10T11:39:10.566195,0.662,-0.406,-0.063,78.049,9.329,58.049,12_6_1.csv
2018-07-10T11:39:10.609312,0.662,-0.406,-0.063,-12.988,37.134,52.012,12_6_1.csv
2018-07-10T11:39:10.657441,0.633,-0.517,-0.121,-53.415,45.122,38.598,12_6_1.csv
2018-07-10T11:39:10.714196,0.812,-0.649,-0.376,-26.22,93.232,-12.927,12_6_1.csv
2018-07-10T11:39:10.773859,0.812,-0.649,-0.376,-22.073,106.281,-44.085,12_6_1.csv
2018-07-10T11:39:10.818481,1.021,-0.869,-0.543,-15.366,149.512,-86.951,12_6_1.csv
2018-07-10T11:39:10.876639,0.637,-0.644,-0.115,-89.939,10.122,-89.329,12_6_1.csv
2018-07-10T11:39:10.922767,0.637,-0.644,-0.115,-133.902,-60.732,-36.89,12_6_1.csv
2018-07-10T11:39:10.968894,0.662,-0.792,-0.041,-75.244,-175.488,0.366,12_6_1.csv
2018-07-10T11:39:11.027052,0.662,-0.792,-0.041,71.646,-225.549,8.537,12_6_1.csv
2018-07-10T11:39:11.095240,0.737,-0.642,-0.299,300.915,-150.061,-40.915,12_6_1.csv
2018-07-10T11:39:11.142366,0.562,-0.265,-0.368,265.305,-77.256,-38.415,12_6_1.csv
2018-07-10T11:39:11.187491,0.562,-0.265,-0.368,137.622,-47.622,-15.244,12_6_1.csv
2018-07-10T11:39:11.242638,0.655,-0.42,-0.136,-52.805,-24.634,-41.707,12_6_1.csv
2018-07-10T11:39:11.285432,0.742,-0.58,-0.243,-95.0,79.756,-37.866,12_6_1.csv
2018-07-10T11:39:11.400745,0.758,-0.816,-0.366,-69.024,182.805,-29.695,12_6_1.csv
2018-07-10T11:39:11.458900,0.867,-0.856,-0.36,19.512,80.122,-57.927,12_6_1.csv
2018-07-10T11:39:11.502020,0.867,-0.856,-0.36,80.915,-3.415,-49.329,12_6_1.csv
2018-07-10T11:39:11.552154,0.849,-0.612,-0.305,68.902,-38.11,-27.683,12_6_1.csv
2018-07-10T11:39:11.599286,0.692,-0.518,-0.101,-58.415,-84.085,67.439,12_6_1.csv
2018-07-10T11:39:11.642400,0.692,-0.518,-0.101,-74.329,-98.537,72.5,12_6_1.csv
2018-07-10T11:39:11.701564,0.723,-0.688,-0.088,-50.061,-106.707,40.244,12_6_1.csv
2018-07-10T11:39:11.758716,0.727,-0.563,-0.108,59.878,-71.89,6.829,12_6_1.csv
2018-07-10T11:39:11.804844,0.727,-0.563,-0.108,70.244,-22.012,31.829,12_6_1.csv
2018-07-10T11:39:11.854979,0.687,-0.501,-0.125,54.39,13.78,45.366,12_6_1.csv
2018-07-10T11:39:11.907621,0.687,-0.501,-0.125,35.305,33.171,41.707,12_6_1.csv
2018-07-10T11:39:11.955251,0.642,-0.527,-0.181,14.695,42.622,-3.963,12_6_1.csv
2018-07-10T11:39:12.014409,0.689,-0.614,-0.388,29.939,65.061,-24.329,12_6_1.csv
2018-07-10T11:39:12.067556,0.689,-0.614,-0.388,61.585,83.11,-49.024,12_6_1.csv
2018-07-10T11:39:12.109669,0.806,-0.761,-0.378,79.878,53.902,-82.988,12_6_1.csv
2018-07-10T11:39:12.165354,0.973,-0.75,-0.089,61.768,-132.561,-91.768,12_6_1.csv
2018-07-10T11:39:12.206464,0.973,-0.75,-0.089,74.451,-156.585,-62.622,12_6_1.csv
2018-07-10T11:39:12.255098,0.944,-0.521,-0.015,44.939,-96.28,-15.366,12_6_1.csv
2018-07-10T11:39:12.312251,0.944,-0.521,-0.015,16.098,-49.817,49.756,12_6_1.csv
2018-07-10T11:39:12.359382,0.704,-0.352,-0.405,212.317,-126.402,13.11,12_6_1.csv
2018-07-10T11:39:12.414529,0.651,-0.276,-0.15,84.695,-157.073,-13.598,12_6_1.csv
2018-07-10T11:39:12.470684,0.651,-0.276,-0.15,45.122,-146.951,-32.134,12_6_1.csv
2018-07-10T11:39:12.514802,0.701,-0.505,-0.023,83.232,-85.793,-49.146,12_6_1.csv
2018-07-10T11:39:12.561933,0.677,-0.649,-0.334,86.098,-27.195,-108.232,12_6_1.csv
2018-07-10T11:39:12.638968,0.677,-0.649,-0.334,88.293,33.232,-119.39,12_6_1.csv
2018-07-10T11:39:12.692110,0.744,-0.552,-0.39,-43.659,108.293,-5.976,12_6_1.csv
2018-07-10T11:39:12.768319,0.766,-0.827,-0.317,-21.951,2.5,-20.122,12_6_1.csv
2018-07-10T11:39:12.819454,0.896,-0.768,-0.409,108.171,-50.244,-31.22,12_6_1.csv
2018-07-10T11:39:12.875371,0.896,-0.768,-0.409,135.427,-65.793,-21.098,12_6_1.csv
2018-07-10T11:39:12.926008,0.842,-0.384,-0.175,-48.902,-66.037,78.415,12_6_1.csv
2018-07-10T11:39:12.982663,0.773,-0.469,-0.067,-106.585,-82.561,76.463,12_6_1.csv
2018-07-10T11:39:13.032798,0.773,-0.469,-0.067,-108.659,-61.402,46.89,12_6_1.csv
2018-07-10T11:39:13.078923,0.693,-0.603,-0.145,-80.915,-23.049,29.024,12_6_1.csv
2018-07-10T11:39:13.126553,0.643,-0.625,-0.164,61.402,9.634,8.293,12_6_1.csv
2018-07-10T11:39:13.172177,0.643,-0.625,-0.164,97.622,-9.085,-0.671,12_6_1.csv
2018-07-10T11:39:13.220306,0.69,-0.506,-0.181,87.622,-20.122,4.207,12_6_1.csv
2018-07-10T11:39:13.278467,0.69,-0.506,-0.181,54.634,-17.622,7.622,12_6_1.csv
2018-07-10T11:39:13.328102,0.676,-0.545,-0.313,90.732,38.476,-28.171,12_6_1.csv
2018-07-10T11:39:13.374728,0.658,-0.584,-0.344,105.793,35.488,-57.561,12_6_1.csv
2018-07-10T11:39:13.427870,0.658,-0.584,-0.344,58.902,3.293,-74.329,12_6_1.csv
2018-07-10T11:39:13.472996,0.895,-0.722,-0.262,-24.024,-12.378,-67.927,12_6_1.csv
2018-07-10T11:39:13.521124,0.895,-0.722,-0.262,-66.22,-30.183,-58.963,12_6_1.csv
2018-07-10T11:39:13.574271,0.885,-0.829,-0.151,23.72,-69.512,-49.085,12_6_1.csv
2018-07-10T11:39:13.641450,0.792,-0.516,-0.076,40.061,-78.537,21.341,12_6_1.csv
2018-07-10T11:39:13.687099,0.796,-0.293,-0.49,137.561,-41.951,61.341,12_6_1.csv
2018-07-10T11:39:13.736230,0.796,-0.293,-0.49,239.939,-175.976,7.378,12_6_1.csv
2018-07-10T11:39:13.779851,0.79,-0.36,-0.168,105.549,-149.268,-26.463,12_6_1.csv
2018-07-10T11:39:13.827980,0.79,-0.36,-0.168,95.671,-106.463,-50.671,12_6_1.csv
2018-07-10T11:39:13.885137,0.705,-0.479,-0.012,86.646,-66.829,-48.171,12_6_1.csv
2018-07-10T11:39:13.942290,0.658,-0.602,-0.231,46.463,7.256,-73.232,12_6_1.csv
2018-07-10T11:39:13.990116,0.658,-0.602,-0.231,59.634,0.305,-84.024,12_6_1.csv
2018-07-10T11:39:14.037242,0.733,-0.593,-0.308,3.598,42.988,-56.89,12_6_1.csv
2018-07-10T11:39:14.138517,0.821,-0.74,-0.286,-3.476,49.451,-78.72,12_6_1.csv
2018-07-10T11:39:14.188152,1.026,-0.707,-0.239,70.366,32.439,-92.134,12_6_1.csv
2018-07-10T11:39:14.239790,1.026,-0.707,-0.239,122.805,57.5,-48.354,12_6_1.csv
2018-07-10T11:39:14.298447,0.905,-0.191,0.028,0.305,3.232,62.805,12_6_1.csv
2018-07-10T11:39:14.344069,0.813,-0.199,0.165,-134.451,-102.317,53.11,12_6_1.csv
2018-07-10T11:39:14.392199,0.813,-0.199,0.165,-158.598,-155.793,49.512,12_6_1.csv
2018-07-10T11:39:14.438322,0.805,-0.5,-0.012,-108.842,-136.037,41.707,12_6_1.csv
2018-07-10T11:39:14.484449,0.805,-0.5,-0.012,-33.354,-85.854,25.61,12_6_1.csv
2018-07-10T11:39:14.541602,0.781,-0.505,-0.168,42.012,7.195,2.378,12_6_1.csv
2018-07-10T11:39:14.578705,0.735,-0.493,-0.202,34.512,42.012,-1.89,12_6_1.csv
2018-07-10T11:39:14.624829,0.735,-0.493,-0.202,30.366,19.878,-7.439,12_6_1.csv
2018-07-10T11:39:14.671959,0.735,-0.512,-0.271,64.024,21.524,-20.488,12_6_1.csv
2018-07-10T11:39:14.720088,0.735,-0.512,-0.271,66.89,36.951,-28.476,12_6_1.csv
2018-07-10T11:39:14.767719,0.756,-0.503,-0.307,30.488,42.195,-25.427,12_6_1.csv
2018-07-10T11:39:14.818353,0.833,-0.61,-0.292,-28.902,48.841,-27.317,12_6_1.csv
2018-07-10T11:39:14.859462,0.833,-0.61,-0.292,-32.683,49.939,-22.988,12_6_1.csv
2018-07-10T11:39:14.907089,1.001,-0.712,-0.288,-14.878,5.305,-33.11,12_6_1.csv
2018-07-10T11:39:14.954720,1.001,-0.712,-0.288,16.037,-45.854,-45.427,12_6_1.csv
2018-07-10T11:39:14.999840,0.847,-0.32,-0.153,48.72,-75.061,-8.049,12_6_1.csv
2018-07-10T11:39:15.045968,0.847,-0.32,-0.153,36.098,-99.878,59.329,12_6_1.csv
2018-07-10T11:39:15.101115,0.953,-0.168,-0.095,-57.5,-87.195,26.768,12_6_1.csv
2018-07-10T11:39:15.157271,0.815,-0.531,-0.104,98.72,-104.512,-32.988,12_6_1.csv
2018-07-10T11:39:15.208407,0.815,-0.531,-0.104,269.817,-125.305,-41.646,12_6_1.csv
2018-07-10T11:39:15.253029,0.738,-0.335,-0.183,170.671,-45.122,-54.756,12_6_1.csv
2018-07-10T11:39:15.302171,0.751,-0.401,-0.19,16.098,-6.768,-55.915,12_6_1.csv
2018-07-10T11:39:15.348295,0.751,-0.401,-0.19,-86.707,47.744,-46.89,12_6_1.csv
2018-07-10T11:39:15.401942,0.693,-0.646,-0.309,-116.159,93.72,-26.22,12_6_1.csv
2018-07-10T11:39:15.489179,0.675,-0.677,-0.354,-18.476,63.293,-1.463,12_6_1.csv
2018-07-10T11:39:15.536305,0.805,-0.604,-0.347,107.866,-27.5,-9.878,12_6_1.csv
2018-07-10T11:39:15.585442,0.805,-0.604,-0.347,115.549,-51.098,-3.049,12_6_1.csv
2018-07-10T11:39:15.625548,1.013,-0.554,-0.293,111.281,-46.829,9.024,12_6_1.csv
2018-07-10T11:39:15.677693,1.013,-0.554,-0.293,74.329,-13.049,23.537,12_6_1.csv
2018-07-10T11:39:15.740862,0.87,-0.316,-0.229,-186.159,-18.171,60.061,12_6_1.csv
2018-07-10T11:39:15.785989,0.785,-0.524,-0.258,-236.524,-5.366,63.598,12_6_1.csv
2018-07-10T11:39:15.837125,0.785,-0.524,-0.258,-201.342,54.39,18.049,12_6_1.csv
2018-07-10T11:39:15.878241,0.661,-0.716,-0.233,-126.159,69.085,-9.024,12_6_1.csv
2018-07-10T11:39:15.921357,0.661,-0.716,-0.233,-73.598,30.244,2.073,12_6_1.csv
2018-07-10T11:39:15.977511,0.666,-0.659,-0.162,7.988,-99.817,48.598,12_6_1.csv
2018-07-10T11:39:16.026642,0.704,-0.595,-0.175,60.061,-119.146,48.293,12_6_1.csv
2018-07-10T11:39:16.078786,0.704,-0.595,-0.175,113.598,-124.024,40.122,12_6_1.csv
2018-07-10T11:39:16.125912,0.695,-0.437,-0.159,145.732,-111.951,22.195,12_6_1.csv
2018-07-10T11:39:16.172539,0.695,-0.437,-0.159,137.5,-74.207,-0.305,12_6_1.csv
2018-07-10T11:39:16.219166,0.772,-0.359,-0.299,2.378,90.122,-55.854,12_6_1.csv
2018-07-10T11:39:16.266795,0.795,-0.562,-0.529,-42.439,159.451,-83.293,12_6_1.csv
2018-07-10T11:39:16.320940,0.795,-0.562,-0.529,25.488,181.037,-94.024,12_6_1.csv
2018-07-10T11:39:16.376588,0.956,-0.598,-0.449,114.512,93.902,-128.293,12_6_1.csv
2018-07-10T11:39:16.422210,0.947,-0.716,-0.185,-92.317,-28.598,-78.049,12_6_1.csv
2018-07-10T11:39:16.475352,0.947,-0.716,-0.185,-81.829,0.366,-63.354,12_6_1.csv
2018-07-10T11:39:16.519974,0.609,-0.692,-0.009,-22.073,-2.012,-11.402,12_6_1.csv
2018-07-10T11:39:16.567100,0.609,-0.692,-0.009,47.317,-60.793,40.976,12_6_1.csv
2018-07-10T11:39:16.622251,0.822,-0.491,-0.075,161.342,-120.793,45.183,12_6_1.csv
2018-07-10T11:39:16.676395,0.876,-0.096,-0.402,213.049,-55.305,11.098,12_6_1.csv
2018-07-10T11:39:16.719515,0.876,-0.096,-0.402,240.0,-91.89,-38.232,12_6_1.csv
2018-07-10T11:39:16.776670,0.814,-0.322,-0.172,147.622,-104.451,-21.28,12_6_1.csv
2018-07-10T11:39:16.857892,0.726,-0.552,-0.172,-76.098,15.854,-37.073,12_6_1.csv
2018-07-10T11:39:16.909028,0.639,-0.707,-0.343,-87.256,102.378,-8.11,12_6_1.csv
2018-07-10T11:39:16.959167,0.639,-0.707,-0.343,-11.402,77.805,-14.573,12_6_1.csv
2018-07-10T11:39:17.017322,0.814,-0.545,-0.431,66.951,39.512,-11.159,12_6_1.csv
2018-07-10T11:39:17.062448,1.159,-0.482,-0.338,-7.866,-11.768,57.439,12_6_1.csv
2018-07-10T11:39:17.110576,1.159,-0.482,-0.338,-125.61,-25.732,36.463,12_6_1.csv
2018-07-10T11:39:17.157708,0.848,-0.595,-0.112,-205.183,-17.866,0.366,12_6_1.csv
2018-07-10T11:39:17.203831,0.848,-0.595,-0.112,-202.012,-25.061,14.634,12_6_1.csv
2018-07-10T11:39:17.258983,0.653,-0.691,-0.067,-83.659,-33.841,14.939,12_6_1.csv
2018-07-10T11:39:17.316136,0.628,-0.523,-0.04,81.585,-48.049,-20.61,12_6_1.csv
2018-07-10T11:39:17.363266,0.628,-0.523,-0.04,47.988,-65.122,8.11,12_6_1.csv
2018-07-10T11:39:17.411395,0.762,-0.508,-0.077,22.866,-40.183,31.646,12_6_1.csv
2018-07-10T11:39:17.454514,0.762,-0.508,-0.077,1.768,-1.098,33.171,12_6_1.csv
2018-07-10T11:39:17.504648,0.789,-0.584,-0.16,-13.11,37.561,41.768,12_6_1.csv
2018-07-10T11:39:17.561806,0.752,-0.542,-0.271,5.366,44.268,32.683,12_6_1.csv
2018-07-10T11:39:17.609934,0.752,-0.542,-0.271,19.634,65.671,26.463,12_6_1.csv
2018-07-10T11:39:17.659071,0.608,-0.379,-0.605,56.098,92.317,9.39,12_6_1.csv
2018-07-10T11:39:17.709205,0.843,-0.549,-0.366,-23.476,-40.488,-35.915,12_6_1.csv
2018-07-10T11:39:17.757338,0.843,-0.549,-0.366,-29.756,21.28,-28.902,12_6_1.csv
2018-07-10T11:39:17.798448,0.982,-0.851,-0.11,-10.0,-19.39,-53.902,12_6_1.csv
2018-07-10T11:39:17.857612,0.982,-0.851,-0.11,68.476,-81.585,-78.72,12_6_1.csv
2018-07-10T11:39:17.907746,0.808,-0.546,-0.035,128.72,-60.0,2.317,12_6_1.csv
2018-07-10T11:39:17.952870,0.699,-0.396,-0.453,134.451,-57.927,4.756,12_6_1.csv
2018-07-10T11:39:18.002001,0.699,-0.396,-0.453,273.537,-169.817,-40.671,12_6_1.csv
2018-07-10T11:39:18.046624,0.813,-0.285,-0.215,136.951,-92.195,5.671,12_6_1.csv
2018-07-10T11:39:18.095256,0.813,-0.285,-0.215,25.061,-18.78,1.707,12_6_1.csv
2018-07-10T11:39:18.150405,0.653,-0.481,-0.11,-40.976,20.061,5.854,12_6_1.csv
2018-07-10T11:39:18.252685,0.678,-0.562,-0.267,9.878,4.817,-32.866,12_6_1.csv
2018-07-10T11:39:18.301817,0.692,-0.54,-0.267,-12.073,2.988,-25.549,12_6_1.csv
2018-07-10T11:39:18.349947,0.746,-0.578,-0.253,-26.829,30.732,-13.11,12_6_1.csv
2018-07-10T11:39:18.408105,0.746,-0.578,-0.253,-28.537,54.878,2.988,12_6_1.csv
2018-07-10T11:39:18.458245,0.829,-0.688,-0.247,5.427,33.232,5.488,12_6_1.csv
2018-07-10T11:39:18.508378,0.829,-0.688,-0.247,75.244,-9.817,-3.11,12_6_1.csv
2018-07-10T11:39:18.563531,1.073,-0.507,-0.38,119.39,16.341,-5.305,12_6_1.csv
2018-07-10T11:39:18.609654,0.82,-0.27,-0.136,-104.817,-43.049,1.28,12_6_1.csv
2018-07-10T11:39:18.658791,0.82,-0.27,-0.136,-173.903,-40.732,39.268,12_6_1.csv
2018-07-10T11:39:18.702908,0.756,-0.633,0.021,-83.171,-44.634,22.988,12_6_1.csv
2018-07-10T11:39:18.763074,0.822,-0.554,-0.016,46.768,-89.695,-22.317,12_6_1.csv
2018-07-10T11:39:18.821230,0.822,-0.554,-0.016,84.085,-79.146,6.829,12_6_1.csv
2018-07-10T11:39:18.871368,0.886,-0.457,-0.116,89.573,-35.976,-19.39,12_6_1.csv
2018-07-10T11:39:18.925513,0.726,-0.548,-0.284,185.671,-46.768,-78.902,12_6_1.csv
2018-07-10T11:39:18.970638,0.726,-0.548,-0.284,311.89,-94.512,-134.756,12_6_1.csv
2018-07-10T11:39:19.024783,0.718,-0.4,-0.249,253.293,-82.805,-128.72,12_6_1.csv
2018-07-10T11:39:19.078932,0.739,-0.576,-0.301,-40.305,12.134,-65.061,12_6_1.csv
2018-07-10T11:39:19.135085,0.739,-0.576,-0.301,-126.342,84.207,-38.72,12_6_1.csv
2018-07-10T11:39:19.192239,0.697,-0.816,-0.444,-129.817,127.988,20.183,12_6_1.csv
2018-07-10T11:39:19.239868,0.825,-0.822,-0.356,-18.537,42.439,21.707,12_6_1.csv
2018-07-10T11:39:19.306547,0.825,-0.822,-0.356,79.878,-61.829,10.793,12_6_1.csv
2018-07-10T11:39:19.350163,1.058,-0.271,-0.278,136.098,-110.854,10.61,12_6_1.csv
2018-07-10T11:39:19.408822,1.031,0.1,-0.129,-132.317,-37.378,56.89,12_6_1.csv
2018-07-10T11:39:19.455445,1.031,0.1,-0.129,-315.366,-20.427,28.78,12_6_1.csv
2018-07-10T11:39:19.501568,0.781,-0.682,-0.03,-227.561,22.378,13.476,12_6_1.csv
2018-07-10T11:39:19.581281,0.689,-0.418,-0.12,282.195,-112.561,-75.549,12_6_1.csv
2018-07-10T11:39:19.627404,0.689,-0.418,-0.12,260.488,-140.061,-82.744,12_6_1.csv
2018-07-10T11:39:19.676537,0.774,-0.349,-0.16,160.061,-185.915,-22.866,12_6_1.csv
2018-07-10T11:39:19.720655,0.741,-0.517,-0.29,166.22,-81.402,-49.634,12_6_1.csv
2018-07-10T11:39:19.766783,0.741,-0.517,-0.29,195.183,-19.817,-93.598,12_6_1.csv
2018-07-10T11:39:19.815914,0.644,-0.422,-0.497,259.939,-58.78,-108.415,12_6_1.csv
2018-07-10T11:39:19.880091,0.806,-0.489,-0.375,12.256,21.341,-22.866,12_6_1.csv
2018-07-10T11:39:19.923206,0.806,-0.489,-0.375,-97.866,71.89,-17.378,12_6_1.csv
2018-07-10T11:39:19.968331,0.899,-0.786,-0.392,-125.366,90.854,-3.049,12_6_1.csv
2018-07-10T11:39:20.017462,0.899,-0.786,-0.392,-61.646,78.415,-10.854,12_6_1.csv
2018-07-10T11:39:20.064593,0.819,-0.664,-0.394,11.89,50.671,-37.439,12_6_1.csv
2018-07-10T11:39:20.110716,0.819,-0.664,-0.394,-16.89,27.134,-20.488,12_6_1.csv
2018-07-10T11:39:20.164867,0.678,-0.483,-0.213,-127.744,-44.39,58.78,12_6_1.csv
2018-07-10T11:39:20.220014,0.772,-0.619,-0.225,-103.171,-34.512,35.305,12_6_1.csv
2018-07-10T11:39:20.270153,0.772,-0.619,-0.225,-69.268,-11.28,25.0,12_6_1.csv
2018-07-10T11:39:20.317279,0.729,-0.596,-0.16,-47.5,-9.817,32.622,12_6_1.csv
2018-07-10T11:39:20.378446,0.704,-0.556,-0.112,-3.72,-57.134,45.732,12_6_1.csv
2018-07-10T11:39:20.425572,0.704,-0.556,-0.112,22.683,-63.415,53.354,12_6_1.csv
2018-07-10T11:39:20.484735,0.753,-0.517,-0.122,66.524,-33.963,50.976,12_6_1.csv
2018-07-10T11:39:20.532864,0.733,-0.444,-0.167,88.11,-4.634,34.817,12_6_1.csv
2018-07-10T11:39:20.577988,0.733,-0.444,-0.167,93.659,30.366,9.573,12_6_1.csv
2018-07-10T11:39:20.626117,0.844,-0.475,-0.328,80.976,62.439,-25.793,12_6_1.csv
2018-07-10T11:39:20.672245,0.844,-0.475,-0.328,52.988,74.878,-64.268,12_6_1.csv
2018-07-10T11:39:20.719371,1.15,-0.742,-0.616,-12.378,95.61,-135.427,12_6_1.csv
2018-07-10T11:39:20.771516,0.737,-0.616,-0.476,-76.524,69.329,-113.415,12_6_1.csv
2018-07-10T11:39:20.831677,0.737,-0.616,-0.476,-175.427,68.476,-29.39,12_6_1.csv
2018-07-10T11:39:20.944486,0.777,-0.727,-0.257,287.012,-298.842,-23.841,12_6_1.csv
2018-07-10T11:39:20.992115,0.777,-0.727,-0.257,364.207,-303.232,4.146,12_6_1.csv
2018-07-10T11:39:21.038238,0.852,-0.318,-0.228,326.951,-231.403,13.354,12_6_1.csv
2018-07-10T11:39:21.078348,0.852,-0.318,-0.228,197.012,-131.524,29.39,12_6_1.csv
2018-07-10T11:39:21.139651,0.625,-0.213,-0.294,-71.951,75.549,41.646,12_6_1.csv
2018-07-10T11:39:21.188281,0.432,-0.488,-0.373,-98.293,76.22,-4.39,12_6_1.csv
2018-07-10T11:39:21.235908,0.432,-0.488,-0.373,-10.061,5.671,-74.573,12_6_1.csv
2018-07-10T11:39:21.283537,0.657,-0.582,-0.411,85.061,-22.134,-136.22,12_6_1.csv
2018-07-10T11:39:21.329661,0.944,-0.706,-0.289,27.866,-48.476,-152.988,12_6_1.csv
2018-07-10T11:39:21.375285,0.944,-0.706,-0.289,-48.78,-45.793,-139.268,12_6_1.csv
2018-07-10T11:39:21.430934,1.062,-0.874,-0.354,-86.159,10.366,-82.561,12_6_1.csv
2018-07-10T11:39:21.491097,0.658,-0.71,-0.261,-61.28,90.183,15.976,12_6_1.csv
2018-07-10T11:39:21.536218,0.658,-0.71,-0.261,-43.659,59.756,75.732,12_6_1.csv
2018-07-10T11:39:21.583348,0.667,-0.467,-0.221,-9.146,19.39,117.866,12_6_1.csv
2018-07-10T11:39:21.625462,0.667,-0.467,-0.221,-7.622,-4.878,106.524,12_6_1.csv
2018-07-10T11:39:21.678609,0.816,-0.423,-0.198,-40.61,-7.622,74.573,12_6_1.csv
2018-07-10T11:39:21.730748,0.794,-0.501,-0.19,-108.902,14.024,48.659,12_6_1.csv
2018-07-10T11:39:21.781891,0.794,-0.501,-0.19,-92.012,43.72,58.659,12_6_1.csv
2018-07-10T11:39:21.837037,0.674,-0.534,-0.222,-75.976,64.573,57.561,12_6_1.csv
2018-07-10T11:39:21.876146,0.674,-0.534,-0.222,-36.159,54.146,40.915,12_6_1.csv
2018-07-10T11:39:21.921267,0.638,-0.492,-0.216,3.232,25.0,19.939,12_6_1.csv
2018-07-10T11:39:21.975417,0.767,-0.553,-0.287,37.5,-1.037,-5.549,12_6_1.csv
2018-07-10T11:39:22.034574,0.767,-0.553,-0.287,74.695,-7.988,-38.476,12_6_1.csv
2018-07-10T11:39:22.078696,0.938,-0.737,-0.367,131.524,-20.366,-81.585,12_6_1.csv
2018-07-10T11:39:22.124820,0.938,-0.737,-0.367,134.878,-43.11,-97.561,12_6_1.csv
2018-07-10T11:39:22.171949,0.9,-0.737,-0.37,107.134,-24.329,-54.207,12_6_1.csv
2018-07-10T11:39:22.220079,0.528,-0.469,-0.106,91.89,-61.646,-9.634,12_6_1.csv
2018-07-10T11:39:22.312330,0.783,-0.473,-0.195,64.39,-140.122,49.817,12_6_1.csv
2018-07-10T11:39:22.372493,0.734,-0.402,-0.303,192.683,-87.439,-4.329,12_6_1.csv
2018-07-10T11:39:22.426640,0.734,-0.402,-0.303,154.146,-82.195,-18.902,12_6_1.csv
2018-07-10T11:39:22.468755,0.675,-0.306,-0.147,69.634,-56.402,-19.39,12_6_1.csv
2018-07-10T11:39:22.521899,0.675,-0.306,-0.147,-58.049,-39.085,-27.012,12_6_1.csv
2018-07-10T11:39:22.566521,0.831,-0.586,-0.217,-155.305,23.72,-32.256,12_6_1.csv
2018-07-10T11:39:22.609636,0.707,-0.733,-0.355,-86.707,214.268,-93.78,12_6_1.csv
2018-07-10T11:39:22.666788,0.707,-0.733,-0.355,94.878,198.476,-92.866,12_6_1.csv
2018-07-10T11:39:22.725448,0.818,-0.441,-0.315,81.402,120.549,-24.939,12_6_1.csv
2018-07-10T11:39:22.768564,0.818,-0.441,-0.315,-27.5,49.39,23.659,12_6_1.csv
2018-07-10T11:39:22.813688,1.031,-0.636,-0.175,-32.561,-72.744,47.866,12_6_1.csv
2018-07-10T11:39:22.859812,0.871,-0.54,0.005,-9.939,-120.244,36.89,12_6_1.csv
2018-07-10T11:39:22.907945,0.871,-0.54,0.005,-26.585,-152.683,43.476,12_6_1.csv
2018-07-10T11:39:22.970111,0.864,-0.505,-0.048,-29.146,-133.354,56.768,12_6_1.csv
2018-07-10T11:39:23.016240,0.857,-0.451,-0.103,40.976,-50.0,-0.732,12_6_1.csv
2018-07-10T11:39:23.063367,0.857,-0.451,-0.103,26.402,-16.585,-0.854,12_6_1.csv
2018-07-10T11:39:23.110495,0.767,-0.38,-0.2,8.11,24.024,21.951,12_6_1.csv
2018-07-10T11:39:23.157622,0.767,-0.38,-0.2,-19.329,50.366,17.866,12_6_1.csv
2018-07-10T11:39:23.204249,0.687,-0.548,-0.252,-2.012,37.073,-16.524,12_6_1.csv
2018-07-10T11:39:23.258897,0.721,-0.604,-0.282,77.744,-7.988,-50.244,12_6_1.csv
2018-07-10T11:39:23.313046,0.721,-0.604,-0.282,89.085,-9.024,-54.207,12_6_1.csv
2018-07-10T11:39:23.363180,0.654,-0.569,-0.239,82.378,-8.11,-49.573,12_6_1.csv
2018-07-10T11:39:23.409308,0.654,-0.569,-0.239,61.341,-17.378,-39.39,12_6_1.csv
2018-07-10T11:39:23.458440,0.743,-0.625,-0.178,43.049,-37.012,-38.78,12_6_1.csv
2018-07-10T11:39:23.502058,1.01,-0.798,-0.25,67.866,-37.256,-47.317,12_6_1.csv
2018-07-10T11:39:23.563725,1.01,-0.798,-0.25,118.537,-51.951,-66.22,12_6_1.csv
2018-07-10T11:39:23.673021,0.798,-0.197,-0.406,101.951,-145.305,38.659,12_6_1.csv
2018-07-10T11:39:23.719149,0.798,-0.197,-0.406,117.439,-146.707,21.037,12_6_1.csv
2018-07-10T11:39:23.766274,0.875,-0.364,-0.196,180.0,-121.22,0.366,12_6_1.csv
2018-07-10T11:39:23.812403,0.875,-0.364,-0.196,162.134,-86.524,-9.756,12_6_1.csv
2018-07-10T11:39:23.860532,0.687,-0.332,-0.08,20.488,20.183,-5.915,12_6_1.csv
2018-07-10T11:39:23.912675,0.69,-0.542,-0.232,31.768,40.305,-38.72,12_6_1.csv
2018-07-10T11:39:23.952781,0.69,-0.542,-0.232,54.329,39.146,-76.159,12_6_1.csv
2018-07-10T11:39:24.001915,0.726,-0.556,-0.285,-12.866,25.915,-59.573,12_6_1.csv
2018-07-10T11:39:24.049043,0.726,-0.556,-0.285,-85.915,21.341,-27.561,12_6_1.csv
2018-07-10T11:39:24.094667,0.73,-0.654,-0.334,-107.988,37.256,-3.78,12_6_1.csv
2018-07-10T11:39:24.140291,0.804,-0.725,-0.332,-24.634,48.354,1.037,12_6_1.csv
2018-07-10T11:39:24.196444,0.804,-0.725,-0.332,32.012,-0.122,-0.488,12_6_1.csv
2018-07-10T11:39:24.252596,0.993,-0.574,-0.264,73.78,-29.939,16.341,12_6_1.csv
2018-07-10T11:39:24.301228,0.95,-0.348,-0.101,-46.829,-52.866,57.744,12_6_1.csv
2018-07-10T11:39:24.355373,0.95,-0.348,-0.101,-93.963,-69.146,65.671,12_6_1.csv
2018-07-10T11:39:24.408516,0.823,-0.519,-0.017,-40.671,-99.512,13.963,12_6_1.csv
2018-07-10T11:39:24.452633,0.823,-0.519,-0.017,40.488,-83.902,-18.659,12_6_1.csv
2018-07-10T11:39:24.528335,0.751,-0.431,-0.125,46.768,-26.585,9.939,12_6_1.csv
2018-07-10T11:39:24.602032,0.737,-0.43,-0.24,2.195,15.305,-5.915,12_6_1.csv
2018-07-10T11:39:24.642139,0.641,-0.542,-0.232,-11.829,16.037,-15.793,12_6_1.csv
2018-07-10T11:39:24.689265,0.641,-0.542,-0.232,25.549,-5.122,-29.329,12_6_1.csv
2018-07-10T11:39:24.741906,0.632,-0.542,-0.247,99.024,-26.829,-64.268,12_6_1.csv
2018-07-10T11:39:24.786024,0.753,-0.549,-0.326,71.402,0.488,-72.134,12_6_1.csv
2018-07-10T11:39:24.835155,0.753,-0.549,-0.326,7.134,29.329,-65.854,12_6_1.csv
2018-07-10T11:39:24.876265,0.85,-0.788,-0.341,-13.476,50.061,-58.293,12_6_1.csv
2018-07-10T11:39:24.924895,0.85,-0.788,-0.341,23.293,31.89,-52.561,12_6_1.csv
2018-07-10T11:39:25.037699,0.785,-0.288,-0.189,123.476,-61.037,12.073,12_6_1.csv
2018-07-10T11:39:25.078309,0.785,-0.288,-0.189,81.341,-62.561,84.939,12_6_1.csv
2018-07-10T11:39:25.124935,0.903,-0.022,-0.393,46.341,-61.951,80.61,12_6_1.csv
2018-07-10T11:39:25.177578,0.903,-0.022,-0.393,80.305,-174.695,-8.659,12_6_1.csv
2018-07-10T11:39:25.219191,0.778,-0.507,-0.151,163.781,-150.488,-30.915,12_6_1.csv
2018-07-10T11:39:25.267320,0.69,-0.421,-0.111,88.78,-31.28,-36.037,12_6_1.csv
2018-07-10T11:39:25.313947,0.69,-0.421,-0.111,-27.195,8.476,-7.805,12_6_1.csv
2018-07-10T11:39:25.374609,0.641,-0.663,-0.349,-11.951,34.512,-28.72,12_6_1.csv
2018-07-10T11:39:25.421737,0.641,-0.663,-0.349,56.341,35.183,-53.476,12_6_1.csv
2018-07-10T11:39:25.481898,0.608,-0.578,-0.402,61.098,-29.512,-17.622,12_6_1.csv
2018-07-10T11:39:25.533039,0.742,-0.602,-0.27,-12.744,-18.963,7.256,12_6_1.csv
2018-07-10T11:39:25.580165,0.742,-0.602,-0.27,-18.902,-2.134,6.89,12_6_1.csv
2018-07-10T11:39:25.626294,0.841,-0.691,-0.322,40.305,23.598,9.634,12_6_1.csv
2018-07-10T11:39:25.671414,0.947,-0.509,-0.262,34.939,34.39,16.829,12_6_1.csv
2018-07-10T11:39:25.723559,0.947,-0.509,-0.262,-47.622,11.951,21.89,12_6_1.csv
2018-07-10T11:39:25.782717,0.816,-0.419,-0.1,-173.842,1.524,36.768,12_6_1.csv
2018-07-10T11:39:25.827841,0.763,-0.652,-0.167,-133.049,42.134,18.537,12_6_1.csv
2018-07-10T11:39:25.874967,0.763,-0.652,-0.167,-67.317,69.939,-8.354,12_6_1.csv
2018-07-10T11:39:25.922614,0.705,-0.598,-0.14,-76.22,76.402,-2.744,12_6_1.csv
2018-07-10T11:39:25.969740,0.705,-0.598,-0.14,-89.512,58.841,21.829,12_6_1.csv
2018-07-10T11:39:26.016370,0.651,-0.626,-0.089,-41.707,-6.22,32.073,12_6_1.csv
2018-07-10T11:39:26.067507,0.69,-0.542,-0.106,123.354,-97.012,30.854,12_6_1.csv
2018-07-10T11:39:26.124663,0.69,-0.542,-0.106,158.902,-117.805,28.78,12_6_1.csv
2018-07-10T11:39:26.174798,0.807,-0.42,-0.234,130.976,-89.512,4.512,12_6_1.csv
2018-07-10T11:39:26.219923,0.807,-0.42,-0.234,36.098,12.683,-18.293,12_6_1.csv
2018-07-10T11:39:26.265044,0.636,-0.658,-0.563,12.134,125.915,-45.061,12_6_1.csv
2018-07-10T11:39:26.318190,0.908,-0.648,-0.456,49.878,-36.951,-70.305,12_6_1.csv
2018-07-10T11:39:26.402417,0.989,-0.82,-0.155,-27.073,-58.72,-34.024,12_6_1.csv
2018-07-10T11:39:26.453556,0.989,-0.82,-0.155,77.805,-71.463,-58.598,12_6_1.csv
2018-07-10T11:39:26.504698,0.631,-0.427,-0.008,91.768,-70.671,-6.829,12_6_1.csv
2018-07-10T11:39:26.552826,0.75,-0.428,-0.253,106.037,-185.793,-4.146,12_6_1.csv
2018-07-10T11:39:26.598450,0.75,-0.428,-0.253,186.098,-203.842,-0.854,12_6_1.csv
2018-07-10T11:39:26.642069,0.726,-0.421,-0.306,247.317,-125.183,-6.707,12_6_1.csv
2018-07-10T11:39:26.697720,0.726,-0.421,-0.306,208.354,-70.854,-39.085,12_6_1.csv
2018-07-10T11:39:26.754374,0.65,-0.322,-0.17,-70.122,-14.329,-27.683,12_6_1.csv
2018-07-10T11:39:26.806516,0.708,-0.52,-0.199,-122.317,38.232,-31.524,12_6_1.csv
2018-07-10T11:39:26.848629,0.708,-0.52,-0.199,-155.61,110.793,-23.902,12_6_1.csv
2018-07-10T11:39:26.905534,0.658,-0.748,-0.396,-162.073,157.317,-12.134,12_6_1.csv
2018-07-10T11:39:26.954665,0.755,-0.752,-0.456,23.72,73.232,-34.695,12_6_1.csv
2018-07-10T11:39:27.014831,0.755,-0.752,-0.456,70.854,23.537,-13.78,12_6_1.csv
2018-07-10T11:39:27.063962,0.98,-0.643,-0.41,111.159,-34.024,10.244,12_6_1.csv
2018-07-10T11:39:27.115104,0.884,-0.482,-0.2,-33.78,-45.61,25.061,12_6_1.csv
2018-07-10T11:39:27.159222,0.884,-0.482,-0.2,-111.585,-40.061,57.012,12_6_1.csv
2018-07-10T11:39:27.209358,0.747,-0.562,-0.029,-95.427,-53.78,57.256,12_6_1.csv
2018-07-10T11:39:27.255983,0.747,-0.562,-0.029,-24.146,-69.024,21.707,12_6_1.csv
2018-07-10T11:39:27.307620,0.741,-0.523,-0.019,40.488,-74.756,-5.671,12_6_1.csv
2018-07-10T11:39:27.367281,0.767,-0.431,-0.112,37.683,3.354,19.573,12_6_1.csv
2018-07-10T11:39:27.408390,0.767,-0.431,-0.112,0.122,32.927,21.646,12_6_1.csv
2018-07-10T11:39:27.454012,0.712,-0.527,-0.22,-19.451,53.902,16.341,12_6_1.csv
2018-07-10T11:39:27.508159,0.712,-0.527,-0.22,0.366,62.195,1.402,12_6_1.csv
2018-07-10T11:39:27.547263,0.604,-0.57,-0.438,86.585,65.915,-29.939,12_6_1.csv
2018-07-10T11:39:27.608432,0.672,-0.507,-0.313,4.268,-7.866,-36.098,12_6_1.csv
2018-07-10T11:39:27.658566,0.672,-0.507,-0.313,-136.89,37.927,-16.402,12_6_1.csv
2018-07-10T11:39:27.765352,0.87,-0.814,-0.374,-6.098,60.366,-12.5,12_6_1.csv
2018-07-10T11:39:27.818495,0.87,-0.814,-0.374,31.89,9.146,-15.122,12_6_1.csv
2018-07-10T11:39:27.864631,0.78,-0.58,-0.186,62.683,-60.976,-12.622,12_6_1.csv
2018-07-10T11:39:27.907245,0.78,-0.58,-0.186,69.451,-86.159,5.854,12_6_1.csv
2018-07-10T11:39:27.966406,0.912,-0.287,-0.202,31.646,-187.927,-8.11,12_6_1.csv
2018-07-10T11:39:28.024562,0.897,-0.565,-0.235,145.793,-204.268,-5.244,12_6_1.csv
2018-07-10T11:39:28.062667,0.897,-0.565,-0.235,232.622,-116.585,-12.5,12_6_1.csv
2018-07-10T11:39:28.111798,0.651,-0.328,-0.189,211.342,-57.622,-24.573,12_6_1.csv
2018-07-10T11:39:28.171963,0.628,-0.402,-0.14,-33.293,-2.134,4.695,12_6_1.csv
2018-07-10T11:39:28.220092,0.628,-0.402,-0.14,-71.707,16.585,-11.524,12_6_1.csv
2018-07-10T11:39:28.270231,0.682,-0.609,-0.259,-92.256,61.585,-21.89,12_6_1.csv
2018-07-10T11:39:28.314349,0.682,-0.609,-0.259,-92.378,92.317,-23.537,12_6_1.csv
2018-07-10T11:39:28.358472,0.641,-0.738,-0.417,26.28,36.402,-41.463,12_6_1.csv
2018-07-10T11:39:28.409609,0.757,-0.663,-0.417,66.098,0.61,-30.549,12_6_1.csv
2018-07-10T11:39:28.453731,0.757,-0.663,-0.417,71.402,-16.098,-8.293,12_6_1.csv
2018-07-10T11:39:28.502862,1.012,-0.682,-0.294,59.146,-47.134,4.024,12_6_1.csv
2018-07-10T11:39:28.561023,0.799,-0.5,-0.188,-15.976,-18.841,-2.744,12_6_1.csv
2018-07-10T11:39:28.618175,0.799,-0.5,-0.188,-58.963,13.963,45.793,12_6_1.csv
2018-07-10T11:39:28.660790,0.665,-0.495,-0.05,-47.622,-8.902,56.768,12_6_1.csv
2018-07-10T11:39:28.707916,0.665,-0.495,-0.05,-9.756,-48.598,21.463,12_6_1.csv
2018-07-10T11:39:28.754541,0.795,-0.513,-0.063,10.488,-46.707,-6.341,12_6_1.csv
2018-07-10T11:39:28.804174,0.746,-0.496,-0.162,9.451,17.744,13.963,12_6_1.csv
2018-07-10T11:39:28.854809,0.746,-0.496,-0.162,20.549,21.89,7.378,12_6_1.csv
2018-07-10T11:39:28.909454,0.669,-0.546,-0.21,40.732,16.159,-8.293,12_6_1.csv
2018-07-10T11:39:28.955578,0.669,-0.546,-0.21,56.098,8.902,-26.402,12_6_1.csv
2018-07-10T11:39:29.001701,0.67,-0.606,-0.298,60.854,20.0,-49.634,12_6_1.csv
2018-07-10T11:39:29.054845,0.633,-0.61,-0.304,21.341,33.476,-33.415,12_6_1.csv
2018-07-10T11:39:29.159039,0.669,-0.703,-0.258,-51.402,-3.293,-16.098,12_6_1.csv
2018-07-10T11:39:29.212183,0.859,-0.827,-0.191,30.671,-49.817,-18.476,12_6_1.csv
2018-07-10T11:39:29.270341,0.859,-0.827,-0.191,104.817,-104.451,-34.695,12_6_1.csv
2018-07-10T11:39:29.318973,0.96,-0.655,-0.214,159.512,-120.122,-48.354,12_6_1.csv
2018-07-10T11:39:29.360586,0.96,-0.655,-0.214,151.281,-59.39,-14.817,12_6_1.csv
2018-07-10T11:39:29.407714,0.81,-0.185,-0.51,-35.549,-35.793,93.476,12_6_1.csv
2018-07-10T11:39:29.457849,0.765,-0.468,-0.36,38.354,-160.793,42.256,12_6_1.csv
2018-07-10T11:39:29.512999,0.765,-0.468,-0.36,115.244,-136.463,-10.732,12_6_1.csv
2018-07-10T11:39:29.563136,0.692,-0.366,-0.016,180.061,-90.122,-66.098,12_6_1.csv
2018-07-10T11:39:29.614777,0.694,-0.486,-0.169,1.646,-40.549,-15.549,12_6_1.csv
2018-07-10T11:39:29.662406,0.694,-0.486,-0.169,10.122,-18.72,-52.5,12_6_1.csv
2018-07-10T11:39:29.703516,0.653,-0.627,-0.349,61.89,0.549,-90.122,12_6_1.csv
2018-07-10T11:39:29.760495,0.653,-0.627,-0.349,40.244,-3.963,-79.451,12_6_1.csv
2018-07-10T11:39:29.811634,0.668,-0.599,-0.278,-33.78,49.756,-34.207,12_6_1.csv
2018-07-10T11:39:29.860768,0.69,-0.689,-0.304,-33.902,59.024,-26.341,12_6_1.csv
2018-07-10T11:39:29.923941,0.69,-0.689,-0.304,-13.232,50.671,-24.695,12_6_1.csv
2018-07-10T11:39:29.974075,0.927,-0.789,-0.368,44.39,-17.927,-18.232,12_6_1.csv
2018-07-10T11:39:30.020705,0.876,-0.52,-0.323,41.037,-11.159,-10.061,12_6_1.csv
2018-07-10T11:39:30.069337,0.876,-0.52,-0.323,25.732,-25.122,38.902,12_6_1.csv
2018-07-10T11:39:30.126494,0.78,-0.354,-0.147,-9.268,-76.646,50.366,12_6_1.csv
2018-07-10T11:39:30.188659,0.835,-0.459,-0.023,-9.695,-92.5,3.78,12_6_1.csv
2018-07-10T11:39:30.236794,0.835,-0.459,-0.023,0.305,-78.841,-11.341,12_6_1.csv
2018-07-10T11:39:30.283920,0.805,-0.56,-0.125,29.024,-35.61,-15.061,12_6_1.csv
2018-07-10T11:39:30.332050,0.646,-0.615,-0.232,80.427,4.085,-32.439,12_6_1.csv
2018-07-10T11:39:30.412268,0.625,-0.523,-0.25,100.854,-2.378,-21.768,12_6_1.csv
2018-07-10T11:39:30.537606,0.694,-0.57,-0.239,9.573,-3.841,-28.232,12_6_1.csv
2018-07-10T11:39:30.582730,0.745,-0.614,-0.3,-4.146,3.11,-36.89,12_6_1.csv
2018-07-10T11:39:30.641889,0.745,-0.614,-0.3,-20.244,15.854,-35.549,12_6_1.csv
2018-07-10T11:39:30.693030,0.829,-0.734,-0.293,32.988,-51.89,-44.207,12_6_1.csv
2018-07-10T11:39:30.735143,0.905,-0.68,-0.279,103.659,-78.11,-61.463,12_6_1.csv
2018-07-10T11:39:30.787993,0.905,-0.68,-0.279,125.854,-64.695,-39.085,12_6_1.csv
2018-07-10T11:39:30.832111,0.837,-0.252,-0.284,45.976,-35.976,34.39,12_6_1.csv
2018-07-10T11:39:30.878238,0.837,-0.252,-0.284,-58.049,-33.354,78.72,12_6_1.csv
2018-07-10T11:39:30.923359,0.833,-0.374,-0.311,-60.915,-100.183,39.756,12_6_1.csv
2018-07-10T11:39:30.986533,0.712,-0.384,-0.152,197.439,-106.342,-38.232,12_6_1.csv
2018-07-10T11:39:31.032656,0.712,-0.384,-0.152,192.805,-72.012,-38.598,12_6_1.csv
2018-07-10T11:39:31.078783,0.732,-0.354,-0.104,93.537,-59.329,-29.939,12_6_1.csv
2018-07-10T11:39:31.125909,0.732,-0.354,-0.104,25.183,-45.488,-51.037,12_6_1.csv
2018-07-10T11:39:31.172034,0.734,-0.554,-0.278,29.512,6.89,-84.451,12_6_1.csv
2018-07-10T11:39:31.221168,0.708,-0.539,-0.37,-6.341,30.305,-68.659,12_6_1.csv
2018-07-10T11:39:31.277323,0.708,-0.539,-0.37,-37.073,44.756,-35.793,12_6_1.csv
2018-07-10T11:39:31.329462,0.688,-0.615,-0.372,-40.915,67.744,0.732,12_6_1.csv
2018-07-10T11:39:31.376089,0.747,-0.68,-0.418,34.451,47.439,-2.195,12_6_1.csv
2018-07-10T11:39:31.425724,0.747,-0.68,-0.418,83.963,-6.28,-3.293,12_6_1.csv
2018-07-10T11:39:31.473855,0.959,-0.597,-0.417,96.524,-37.439,-3.049,12_6_1.csv
2018-07-10T11:39:31.522485,0.959,-0.597,-0.417,27.195,-42.683,-2.744,12_6_1.csv
2018-07-10T11:39:31.582645,0.756,-0.47,-0.23,-128.72,-8.232,57.012,12_6_1.csv
2018-07-10T11:39:31.626764,0.717,-0.6,-0.146,-95.305,1.402,55.061,12_6_1.csv
2018-07-10T11:39:31.675894,0.717,-0.6,-0.146,-44.451,-13.11,22.988,12_6_1.csv
2018-07-10T11:39:31.727535,0.769,-0.684,-0.14,-44.634,-33.598,6.037,12_6_1.csv
2018-07-10T11:39:31.769647,0.769,-0.684,-0.14,-47.317,-46.89,14.634,12_6_1.csv
2018-07-10T11:39:31.850870,0.698,-0.668,-0.16,54.817,-53.598,62.561,12_6_1.csv
2018-07-10T11:39:31.900505,0.638,-0.514,-0.257,87.744,-8.232,44.512,12_6_1.csv
2018-07-10T11:39:31.960167,0.592,-0.483,-0.367,42.195,22.134,28.659,12_6_1.csv
2018-07-10T11:39:32.004285,0.592,-0.483,-0.367,-2.866,44.695,12.622,12_6_1.csv
2018-07-10T11:39:32.051415,0.624,-0.565,-0.391,-29.756,54.329,3.171,12_6_1.csv
2018-07-10T11:39:32.094530,0.624,-0.565,-0.391,-43.354,43.841,-8.598,12_6_1.csv
2018-07-10T11:39:32.156700,0.732,-0.611,-0.326,-8.354,51.22,-42.5,12_6_1.csv
2018-07-10T11:39:32.208839,0.889,-0.664,-0.222,9.146,25.244,-68.293,12_6_1.csv
2018-07-10T11:39:32.255971,0.889,-0.664,-0.222,5.976,-2.5,-81.829,12_6_1.csv
2018-07-10T11:39:32.297080,0.812,-0.647,-0.208,-28.902,-1.768,-38.232,12_6_1.csv
2018-07-10T11:39:32.347218,0.661,-0.64,-0.153,-38.232,-31.098,-0.671,12_6_1.csv
2018-07-10T11:39:32.390333,0.661,-0.64,-0.153,9.085,-83.11,23.598,12_6_1.csv
2018-07-10T11:39:32.437963,0.734,-0.581,-0.176,83.354,-113.415,20.671,12_6_1.csv
2018-07-10T11:39:32.497626,0.734,-0.581,-0.176,127.988,-106.829,6.28,12_6_1.csv
2018-07-10T11:39:32.552777,0.576,-0.412,-0.377,149.329,-178.415,-50.366,12_6_1.csv
2018-07-10T11:39:32.599903,0.678,-0.376,-0.407,56.402,-104.085,-43.963,12_6_1.csv
2018-07-10T11:39:32.642021,0.678,-0.376,-0.407,-7.439,64.817,-44.817,12_6_1.csv
2018-07-10T11:39:32.693157,0.644,-0.504,-0.417,-44.695,115.305,-39.878,12_6_1.csv
2018-07-10T11:39:32.747307,0.658,-0.636,-0.437,-118.598,140.793,-10.244,12_6_1.csv
2018-07-10T11:39:32.799446,0.658,-0.636,-0.437,-66.89,90.183,-24.756,12_6_1.csv
2018-07-10T11:39:32.847580,0.74,-0.681,-0.392,1.341,31.585,-33.354,12_6_1.csv
2018-07-10T11:39:32.907741,0.955,-0.635,-0.44,92.5,-57.683,-21.341,12_6_1.csv
2018-07-10T11:39:32.953869,0.955,-0.635,-0.44,58.171,-46.037,-15.671,12_6_1.csv
2018-07-10T11:39:33.001997,0.804,-0.561,-0.338,-15.122,-25.549,10.793,12_6_1.csv
2018-07-10T11:39:33.046119,0.804,-0.561,-0.338,-46.585,-27.195,49.207,12_6_1.csv
2018-07-10T11:39:33.103272,0.71,-0.512,-0.16,-0.61,-41.646,30.427,12_6_1.csv
2018-07-10T11:39:33.214572,0.807,-0.517,-0.153,-80.366,40.671,12.317,12_6_1.csv
2018-07-10T11:39:33.255181,0.663,-0.621,-0.164,-110.0,49.817,39.634,12_6_1.csv
2018-07-10T11:39:33.302810,0.663,-0.621,-0.164,-72.134,36.159,68.659,12_6_1.csv
2018-07-10T11:39:33.345925,0.624,-0.556,-0.268,39.024,2.744,69.512,12_6_1.csv
2018-07-10T11:39:33.394059,0.658,-0.433,-0.368,32.5,6.402,60.0,12_6_1.csv
2018-07-10T11:39:33.453217,0.658,-0.433,-0.368,-2.988,6.28,42.622,12_6_1.csv
2018-07-10T11:39:33.507366,0.685,-0.487,-0.358,-38.293,-5.488,-6.28,12_6_1.csv
2018-07-10T11:39:33.563516,0.73,-0.55,-0.322,-27.317,0.427,-16.22,12_6_1.csv
2018-07-10T11:39:33.610173,0.73,-0.55,-0.322,1.768,-4.146,-32.256,12_6_1.csv
2018-07-10T11:39:33.657298,0.882,-0.64,-0.282,34.268,-18.902,-60.061,12_6_1.csv
2018-07-10T11:39:33.704930,0.882,-0.64,-0.282,60.0,-43.963,-92.012,12_6_1.csv
2018-07-10T11:39:33.757070,0.901,-0.667,-0.277,76.341,-20.488,-89.817,12_6_1.csv
2018-07-10T11:39:33.818237,0.662,-0.544,-0.223,35.244,15.366,-32.012,12_6_1.csv
2018-07-10T11:39:33.866366,0.649,-0.567,-0.25,28.415,-50.671,34.329,12_6_1.csv
2018-07-10T11:39:33.926532,0.649,-0.567,-0.25,86.402,-78.11,10.244,12_6_1.csv
2018-07-10T11:39:33.970652,0.567,-0.4,-0.585,162.744,-201.281,-43.537,12_6_1.csv
2018-07-10T11:39:34.024799,0.567,-0.4,-0.585,171.159,-286.707,-62.805,12_6_1.csv
2018-07-10T11:39:34.079947,0.628,-0.369,-0.44,150.671,-19.817,-95.244,12_6_1.csv
2018-07-10T11:39:34.126072,0.599,-0.365,-0.318,47.622,39.39,-63.963,12_6_1.csv
2018-07-10T11:39:34.172699,0.599,-0.365,-0.318,-56.402,79.451,-40.305,12_6_1.csv
2018-07-10T11:39:34.219326,0.678,-0.571,-0.43,-134.207,120.915,-28.293,12_6_1.csv
2018-07-10T11:39:34.272971,0.852,-0.802,-0.472,-69.817,101.768,-47.012,12_6_1.csv
2018-07-10T11:39:34.313583,0.852,-0.802,-0.472,29.756,25.183,-62.866,12_6_1.csv
2018-07-10T11:39:34.358702,0.938,-0.698,-0.531,88.78,-9.085,-59.146,12_6_1.csv
2018-07-10T11:39:34.407840,0.938,-0.698,-0.531,54.268,-3.293,-22.195,12_6_1.csv
2018-07-10T11:39:34.454966,0.659,-0.484,-0.35,-5.61,-6.341,43.659,12_6_1.csv
2018-07-10T11:39:34.502097,0.659,-0.484,-0.35,-34.756,-35.305,72.805,12_6_1.csv
2018-07-10T11:39:34.630943,0.76,-0.601,-0.182,-13.963,-56.585,52.195,12_6_1.csv
2018-07-10T11:39:34.673055,0.719,-0.596,-0.179,28.659,-56.098,52.195,12_6_1.csv
2018-07-10T11:39:34.722186,0.719,-0.596,-0.179,66.037,-45.305,42.988,12_6_1.csv
2018-07-10T11:39:34.785857,0.674,-0.499,-0.269,77.561,-24.207,43.476,12_6_1.csv
2018-07-10T11:39:34.847020,0.606,-0.428,-0.365,21.22,32.317,38.537,12_6_1.csv
2018-07-10T11:39:34.924226,0.602,-0.457,-0.393,-48.476,63.415,-1.89,12_6_1.csv
2018-07-10T11:39:34.986392,0.602,-0.457,-0.393,-68.659,62.805,-24.878,12_6_1.csv
2018-07-10T11:39:35.035524,0.774,-0.583,-0.392,-68.963,53.902,-60.793,12_6_1.csv
2018-07-10T11:39:35.087162,0.972,-0.77,-0.401,-22.683,34.512,-80.366,12_6_1.csv
2018-07-10T11:39:35.125765,0.972,-0.77,-0.401,40.366,7.561,-103.963,12_6_1.csv
2018-07-10T11:39:35.177904,0.801,-0.695,-0.357,72.439,0.61,-94.451,12_6_1.csv
2018-07-10T11:39:35.229542,0.801,-0.695,-0.357,72.195,-10.61,-48.476,12_6_1.csv
2018-07-10T11:39:35.281682,0.583,-0.571,-0.226,126.402,-117.5,23.11,12_6_1.csv
2018-07-10T11:39:35.327805,0.724,-0.487,-0.256,168.903,-148.476,15.671,12_6_1.csv
2018-07-10T11:39:35.375933,0.724,-0.487,-0.256,180.122,-138.171,-4.573,12_6_1.csv
2018-07-10T11:39:35.424062,0.552,-0.343,-0.509,143.781,-145.854,-32.012,12_6_1.csv
2018-07-10T11:39:35.476201,0.639,-0.444,-0.521,80.976,-154.878,-60.671,12_6_1.csv
2018-07-10T11:39:35.526837,0.639,-0.444,-0.521,74.39,-8.598,-81.159,12_6_1.csv
2018-07-10T11:39:35.579978,0.65,-0.457,-0.261,40.427,52.5,-66.28,12_6_1.csv
2018-07-10T11:39:35.626102,0.65,-0.457,-0.261,-17.256,70.488,-39.329,12_6_1.csv
2018-07-10T11:39:35.673227,0.636,-0.545,-0.27,-53.72,58.841,-32.683,12_6_1.csv
2018-07-10T11:39:35.720353,0.678,-0.672,-0.476,-9.573,47.5,-50.0,12_6_1.csv
2018-07-10T11:39:35.768482,0.678,-0.672,-0.476,80.671,36.646,-69.939,12_6_1.csv
2018-07-10T11:39:35.819619,0.805,-0.655,-0.467,120.427,8.598,-62.988,12_6_1.csv
2018-07-10T11:39:35.939439,0.927,-0.645,-0.418,12.866,-33.841,-24.329,12_6_1.csv
2018-07-10T11:39:35.992583,0.722,-0.525,-0.313,-24.39,17.073,47.927,12_6_1.csv
2018-07-10T11:39:36.036703,0.722,-0.525,-0.313,-48.963,14.756,74.39,12_6_1.csv
2018-07-10T11:39:36.087841,0.763,-0.52,-0.194,-131.829,-23.049,66.524,12_6_1.csv
2018-07-10T11:39:36.131962,0.783,-0.637,-0.159,-120.488,-2.439,65.122,12_6_1.csv
2018-07-10T11:39:36.198139,0.727,-0.57,-0.146,-32.317,-25.427,71.037,12_6_1.csv
2018-07-10T11:39:36.255795,0.727,-0.57,-0.146,11.585,-46.585,59.695,12_6_1.csv
2018-07-10T11:39:36.318461,0.727,-0.511,-0.174,122.073,-57.927,1.829,12_6_1.csv
2018-07-10T11:39:36.367592,0.711,-0.409,-0.294,118.659,-27.988,-23.232,12_6_1.csv
2018-07-10T11:39:36.422238,0.711,-0.409,-0.294,52.805,30.61,-22.134,12_6_1.csv
2018-07-10T11:39:36.469867,0.441,-0.556,-0.572,12.866,27.073,-20.854,12_6_1.csv
2018-07-10T11:39:36.515990,0.441,-0.556,-0.572,43.537,-34.939,-58.78,12_6_1.csv
2018-07-10T11:39:36.575153,0.578,-0.603,-0.447,-59.451,62.927,-30.122,12_6_1.csv
2018-07-10T11:39:36.627293,0.818,-0.756,-0.335,-39.817,26.402,-45.122,12_6_1.csv
2018-07-10T11:39:36.676429,0.818,-0.756,-0.335,6.768,12.378,-67.439,12_6_1.csv
2018-07-10T11:39:36.724558,0.879,-0.786,-0.373,129.024,-48.841,-82.866,12_6_1.csv
2018-07-10T11:39:36.771691,0.751,-0.582,-0.26,148.842,-65.488,-69.939,12_6_1.csv
2018-07-10T11:39:36.817814,0.751,-0.582,-0.26,106.037,-69.451,-32.439,12_6_1.csv
2018-07-10T11:39:36.872967,0.714,-0.46,-0.251,51.037,-70.305,13.841,12_6_1.csv
2018-07-10T11:39:36.924103,0.747,-0.301,-0.554,148.415,-238.11,-39.573,12_6_1.csv
2018-07-10T11:39:36.974241,0.747,-0.301,-0.554,164.817,-197.378,-31.951,12_6_1.csv
2018-07-10T11:39:37.026380,0.714,-0.334,-0.268,152.256,-83.049,-48.049,12_6_1.csv
2018-07-10T11:39:37.064488,0.714,-0.334,-0.268,102.988,-56.037,-53.902,12_6_1.csv
2018-07-10T11:39:37.118632,0.707,-0.455,-0.161,33.72,-55.122,-44.634,12_6_1.csv
2018-07-10T11:39:37.166766,0.633,-0.541,-0.332,12.561,6.098,-52.317,12_6_1.csv
2018-07-10T11:39:37.220911,0.633,-0.541,-0.332,12.134,39.024,-56.951,12_6_1.csv
2018-07-10T11:39:37.303135,0.666,-0.591,-0.427,30.732,34.634,-65.671,12_6_1.csv
2018-07-10T11:39:37.347256,0.728,-0.592,-0.449,35.793,35.671,-65.671,12_6_1.csv
2018-07-10T11:39:37.392380,0.728,-0.592,-0.449,13.11,52.256,-48.171,12_6_1.csv
2018-07-10T11:39:37.439007,0.78,-0.616,-0.449,-0.671,30.122,-32.988,12_6_1.csv
2018-07-10T11:39:37.500674,0.852,-0.537,-0.48,-59.634,5.305,-82.134,12_6_1.csv
2018-07-10T11:39:37.549306,0.852,-0.537,-0.48,-58.537,-3.78,-61.22,12_6_1.csv
2018-07-10T11:39:37.596936,0.74,-0.261,-0.394,-35.549,6.341,13.72,12_6_1.csv
2018-07-10T11:39:37.642560,0.74,-0.261,-0.394,-40.427,-23.11,67.683,12_6_1.csv
2018-07-10T11:39:37.689185,0.873,-0.36,-0.394,-127.744,-39.878,115.244,12_6_1.csv
2018-07-10T11:39:37.736311,0.742,-0.676,-0.375,-96.341,20.244,44.329,12_6_1.csv
2018-07-10T11:39:37.787949,0.742,-0.676,-0.375,-40.61,20.488,10.854,12_6_1.csv
2018-07-10T11:39:37.840589,0.611,-0.581,-0.254,21.28,-52.134,32.805,12_6_1.csv
2018-07-10T11:39:37.892729,0.737,-0.451,-0.289,84.207,-114.634,47.561,12_6_1.csv
2018-07-10T11:39:37.944366,0.737,-0.451,-0.289,85.915,-76.22,49.634,12_6_1.csv
2018-07-10T11:39:37.985978,0.683,-0.311,-0.361,47.927,-18.963,53.049,12_6_1.csv
2018-07-10T11:39:38.039120,0.683,-0.311,-0.361,-5.915,36.22,46.28,12_6_1.csv
2018-07-10T11:39:38.097776,0.655,-0.398,-0.404,-61.341,52.683,-13.293,12_6_1.csv
2018-07-10T11:39:38.158939,0.826,-0.6,-0.442,-40.427,47.012,-43.598,12_6_1.csv
2018-07-10T11:39:38.204060,0.826,-0.6,-0.442,8.72,32.195,-72.561,12_6_1.csv
2018-07-10T11:39:38.253693,0.936,-0.687,-0.477,82.195,21.463,-114.085,12_6_1.csv
2018-07-10T11:39:38.298312,0.694,-0.587,-0.365,70.427,22.5,-89.268,12_6_1.csv
2018-07-10T11:39:38.345939,0.694,-0.587,-0.365,39.695,9.451,-40.0,12_6_1.csv
2018-07-10T11:39:38.398580,0.596,-0.559,-0.24,40.305,-37.317,12.988,12_6_1.csv
2018-07-10T11:39:38.460245,0.635,-0.426,-0.43,126.037,-113.354,15.366,12_6_1.csv
2018-07-10T11:39:38.503861,0.635,-0.426,-0.43,187.317,-186.281,-41.463,12_6_1.csv
2018-07-10T11:39:38.556001,0.678,-0.258,-0.588,161.951,-238.476,-55.732,12_6_1.csv
2018-07-10T11:39:38.668804,0.632,-0.389,-0.344,32.317,29.695,-62.134,12_6_1.csv
2018-07-10T11:39:38.720948,0.624,-0.449,-0.376,-28.841,74.878,-35.427,12_6_1.csv
2018-07-10T11:39:38.776096,0.679,-0.623,-0.459,-96.524,96.951,-27.561,12_6_1.csv
2018-07-10T11:39:38.829243,0.679,-0.623,-0.459,-45.671,76.707,-37.683,12_6_1.csv
2018-07-10T11:39:38.875366,0.833,-0.7,-0.495,19.268,28.78,-42.317,12_6_1.csv
2018-07-10T11:39:38.924503,0.833,-0.7,-0.495,76.098,-18.354,-44.817,12_6_1.csv
2018-07-10T11:39:38.969623,1.057,-0.629,-0.509,100.305,-11.402,-57.683,12_6_1.csv
2018-07-10T11:39:39.021768,0.759,-0.463,-0.168,-7.134,127.073,-22.195,12_6_1.csv
2018-07-10T11:39:39.069896,0.759,-0.463,-0.168,-53.902,82.988,44.695,12_6_1.csv
2018-07-10T11:39:39.126052,0.793,-0.362,0.022,-16.951,-17.744,38.049,12_6_1.csv
2018-07-10T11:39:39.173178,0.763,-0.482,0.071,-146.342,-25.732,56.951,12_6_1.csv
2018-07-10T11:39:39.221312,0.763,-0.482,0.071,-99.756,-61.28,38.415,12_6_1.csv
2018-07-10T11:39:39.278465,0.632,-0.51,-0.07,-59.512,-58.415,43.415,12_6_1.csv
2018-07-10T11:39:39.330105,0.632,-0.51,-0.07,-55.122,-104.329,54.512,12_6_1.csv
2018-07-10T11:39:39.384751,0.723,-0.497,-0.283,2.744,-93.78,55.305,12_6_1.csv
2018-07-10T11:39:39.441402,0.737,-0.421,-0.438,29.207,-28.963,42.012,12_6_1.csv
2018-07-10T11:39:39.490533,0.737,-0.421,-0.438,14.878,9.573,23.293,12_6_1.csv
2018-07-10T11:39:39.534150,0.68,-0.404,-0.458,-22.439,42.195,-1.829,12_6_1.csv
2018-07-10T11:39:39.582278,0.788,-0.511,-0.45,-10.976,65.488,-20.61,12_6_1.csv
2018-07-10T11:39:39.625896,0.788,-0.511,-0.45,-8.902,26.646,-48.598,12_6_1.csv
2018-07-10T11:39:39.681544,0.905,-0.646,-0.472,1.707,39.756,-67.5,12_6_1.csv
2018-07-10T11:39:39.738697,0.685,-0.606,-0.393,31.585,45.183,-59.451,12_6_1.csv
2018-07-10T11:39:39.785323,0.685,-0.606,-0.393,36.22,17.012,-36.768,12_6_1.csv
2018-07-10T11:39:39.835457,0.661,-0.581,-0.262,42.195,-52.439,-1.037,12_6_1.csv
2018-07-10T11:39:39.891612,0.661,-0.581,-0.262,64.756,-107.561,16.524,12_6_1.csv
2018-07-10T11:39:39.937735,0.688,-0.441,-0.372,141.463,-138.293,-22.195,12_6_1.csv
2018-07-10T11:39:40.033996,0.675,-0.163,-0.601,76.28,-150.244,-51.28,12_6_1.csv
2018-07-10T11:39:40.080125,0.736,-0.43,-0.443,116.281,-27.195,-51.768,12_6_1.csv
2018-07-10T11:39:40.126248,0.736,-0.43,-0.443,86.341,47.073,-77.866,12_6_1.csv
2018-07-10T11:39:40.173380,0.637,-0.444,-0.432,-27.134,101.768,-50.183,12_6_1.csv
2018-07-10T11:39:40.223513,0.618,-0.652,-0.528,-123.963,111.646,-15.732,12_6_1.csv
2018-07-10T11:39:40.275657,0.618,-0.652,-0.528,-30.061,78.841,-41.28,12_6_1.csv
2018-07-10T11:39:40.328799,0.683,-0.535,-0.596,46.341,45.61,-38.902,12_6_1.csv
2018-07-10T11:39:40.395982,0.847,-0.328,-0.595,12.5,0.488,-0.122,12_6_1.csv
2018-07-10T11:39:40.455143,0.847,-0.328,-0.595,-78.11,11.098,27.805,12_6_1.csv
2018-07-10T11:39:40.500266,0.955,-0.492,-0.428,-99.634,-22.561,20.732,12_6_1.csv
2018-07-10T11:39:40.548397,0.718,-0.625,-0.207,-78.841,-64.695,4.756,12_6_1.csv
2018-07-10T11:39:40.599533,0.718,-0.625,-0.207,-20.976,-96.829,6.585,12_6_1.csv
2018-07-10T11:39:40.663707,0.639,-0.522,-0.145,134.207,-102.622,7.073,12_6_1.csv
2018-07-10T11:39:40.707825,0.798,-0.397,-0.193,97.622,-61.159,-16.646,12_6_1.csv
2018-07-10T11:39:40.754451,0.798,-0.397,-0.193,-1.463,-14.695,4.085,12_6_1.csv
2018-07-10T11:39:40.798068,0.724,-0.453,-0.247,-58.171,45.549,55.915,12_6_1.csv
2018-07-10T11:39:40.850207,0.724,-0.453,-0.247,-57.683,86.707,73.963,12_6_1.csv
2018-07-10T11:39:40.921398,0.707,-0.491,-0.337,-41.89,78.415,48.963,12_6_1.csv
2018-07-10T11:39:40.971030,0.678,-0.465,-0.469,-28.659,76.829,33.049,12_6_1.csv
2018-07-10T11:39:41.015649,0.678,-0.465,-0.469,10.793,52.988,16.524,12_6_1.csv
2018-07-10T11:39:41.064279,0.582,-0.41,-0.55,136.707,-63.415,-69.329,12_6_1.csv
2018-07-10T11:39:41.109901,0.808,-0.57,-0.342,97.378,-12.927,-24.39,12_6_1.csv
2018-07-10T11:39:41.156525,0.808,-0.57,-0.342,14.756,53.963,-35.61,12_6_1.csv
2018-07-10T11:39:41.210670,0.823,-0.867,-0.294,-37.805,46.585,-55.854,12_6_1.csv
2018-07-10T11:39:41.250276,0.823,-0.867,-0.294,-10.732,4.573,-48.232,12_6_1.csv
2018-07-10T11:39:41.299912,0.72,-0.735,-0.318,57.927,-37.683,-55.549,12_6_1.csv
2018-07-10T11:39:41.393165,0.828,-0.093,-0.503,26.585,-160.061,-6.22,12_6_1.csv
2018-07-10T11:39:41.438286,0.852,-0.345,-0.396,33.049,-143.354,-14.085,12_6_1.csv
2018-07-10T11:39:41.485417,0.852,-0.345,-0.396,139.939,-101.585,-24.268,12_6_1.csv
2018-07-10T11:39:41.536554,0.705,-0.349,-0.277,153.537,-69.085,-41.89,12_6_1.csv
2018-07-10T11:39:41.600729,0.649,-0.453,-0.38,5.61,-33.72,-21.585,12_6_1.csv
2018-07-10T11:39:41.662482,0.649,-0.453,-0.38,47.805,-27.378,-46.098,12_6_1.csv
2018-07-10T11:39:41.708606,0.574,-0.497,-0.472,53.902,-30.61,-53.415,12_6_1.csv
2018-07-10T11:39:41.757741,0.669,-0.515,-0.409,15.244,7.5,-37.988,12_6_1.csv
2018-07-10T11:39:41.800856,0.669,-0.515,-0.409,1.28,66.585,-26.159,12_6_1.csv
2018-07-10T11:39:41.854003,0.679,-0.621,-0.551,-5.671,87.805,-23.841,12_6_1.csv
2018-07-10T11:39:41.906142,0.679,-0.621,-0.551,12.439,63.841,-31.159,12_6_1.csv
2018-07-10T11:39:41.954276,0.889,-0.623,-0.626,5.671,5.427,13.963,12_6_1.csv
2018-07-10T11:39:42.001402,0.781,-0.479,-0.308,-66.646,-30.976,30.061,12_6_1.csv
2018-07-10T11:39:42.048532,0.781,-0.479,-0.308,-102.5,-73.11,60.061,12_6_1.csv
2018-07-10T11:39:42.095658,0.751,-0.619,-0.179,-39.39,-90.732,57.439,12_6_1.csv
2018-07-10T11:39:42.156323,0.817,-0.42,-0.198,132.927,-122.439,-37.134,12_6_1.csv
2018-07-10T11:39:42.224505,0.817,-0.42,-0.198,98.232,-77.134,-12.195,12_6_1.csv
2018-07-10T11:39:42.273135,0.774,-0.335,-0.27,-34.878,45.854,12.073,12_6_1.csv
2018-07-10T11:39:42.317253,0.626,-0.516,-0.317,-32.988,46.159,-15.183,12_6_1.csv
2018-07-10T11:39:42.365883,0.626,-0.516,-0.317,-7.988,63.11,-38.78,12_6_1.csv
2018-07-10T11:39:42.424539,0.621,-0.559,-0.471,-2.988,106.159,-38.841,12_6_1.csv
2018-07-10T11:39:42.478684,0.611,-0.57,-0.466,-29.146,73.293,-27.134,12_6_1.csv
2018-07-10T11:39:42.538344,0.611,-0.57,-0.466,-11.524,23.78,-24.939,12_6_1.csv
2018-07-10T11:39:42.582461,0.708,-0.562,-0.427,32.439,10.0,-32.805,12_6_1.csv
2018-07-10T11:39:42.627581,0.708,-0.562,-0.427,70.244,7.744,-40.915,12_6_1.csv
2018-07-10T11:39:42.672702,0.767,-0.57,-0.348,136.098,-74.695,-43.049,12_6_1.csv
2018-07-10T11:39:42.753420,0.923,-0.606,-0.294,189.451,-152.378,-50.305,12_6_1.csv
2018-07-10T11:39:42.811580,0.909,-0.504,-0.308,178.963,-115.0,-45.305,12_6_1.csv
2018-07-10T11:39:42.861714,0.909,-0.504,-0.308,119.207,-39.512,-16.951,12_6_1.csv
2018-07-10T11:39:42.928900,0.645,-0.352,-0.286,-54.39,-26.829,55.793,12_6_1.csv
2018-07-10T11:39:42.975023,0.749,-0.35,-0.458,-50.854,-165.854,-7.622,12_6_1.csv
2018-07-10T11:39:43.024159,0.749,-0.35,-0.458,24.878,-231.646,-10.488,12_6_1.csv
2018-07-10T11:39:43.064266,0.731,-0.49,-0.386,173.537,-145.0,-21.829,12_6_1.csv
2018-07-10T11:39:43.119421,0.626,-0.32,-0.316,189.878,-105.183,-78.841,12_6_1.csv
2018-07-10T11:39:43.173564,0.626,-0.32,-0.316,110.366,-59.634,-64.695,12_6_1.csv
2018-07-10T11:39:43.219693,0.622,-0.409,-0.308,43.293,-11.22,-70.366,12_6_1.csv
2018-07-10T11:39:43.268823,0.622,-0.409,-0.308,-7.866,15.61,-67.195,12_6_1.csv
2018-07-10T11:39:43.311944,0.698,-0.565,-0.436,-52.744,65.732,-70.976,12_6_1.csv
2018-07-10T11:39:43.360072,0.833,-0.69,-0.494,-35.549,126.585,-72.256,12_6_1.csv
2018-07-10T11:39:43.417230,0.833,-0.69,-0.494,-17.927,90.366,-59.939,12_6_1.csv
2018-07-10T11:39:43.473381,0.968,-0.743,-0.51,-1.89,28.659,-48.78,12_6_1.csv
2018-07-10T11:39:43.521010,0.735,-0.61,-0.349,9.268,-30.122,-11.585,12_6_1.csv
2018-07-10T11:39:43.565128,0.735,-0.61,-0.349,2.683,-45.122,27.744,12_6_1.csv
2018-07-10T11:39:43.615763,0.709,-0.504,-0.224,-7.927,-68.415,50.549,12_6_1.csv
2018-07-10T11:39:43.658879,0.709,-0.504,-0.224,-44.024,-56.829,48.537,12_6_1.csv
2018-07-10T11:39:43.717646,0.746,-0.581,-0.189,-118.902,-12.012,64.878,12_6_1.csv
2018-07-10T11:39:43.767780,0.714,-0.658,-0.152,-80.61,-21.585,81.159,12_6_1.csv
2018-07-10T11:39:43.812903,0.714,-0.658,-0.152,-15.549,-35.793,77.683,12_6_1.csv
2018-07-10T11:39:43.867047,0.741,-0.581,-0.154,32.317,-43.902,73.171,12_6_1.csv
2018-07-10T11:39:43.907158,0.741,-0.581,-0.154,67.927,-42.073,60.915,12_6_1.csv
2018-07-10T11:39:43.963308,0.707,-0.451,-0.284,74.512,39.207,42.378,12_6_1.csv
2018-07-10T11:39:44.012945,0.638,-0.412,-0.511,23.11,106.402,38.232,12_6_1.csv
2018-07-10T11:39:44.121643,0.643,-0.534,-0.461,-80.244,34.207,-40.915,12_6_1.csv
2018-07-10T11:39:44.173783,0.864,-0.689,-0.369,-47.744,-14.756,-63.841,12_6_1.csv
2018-07-10T11:39:44.226442,0.864,-0.689,-0.369,26.159,-31.89,-95.122,12_6_1.csv
2018-07-10T11:39:44.272566,0.92,-0.629,-0.333,79.817,-16.341,-109.024,12_6_1.csv
2018-07-10T11:39:44.318192,0.672,-0.503,-0.208,11.098,23.354,-56.768,12_6_1.csv
2018-07-10T11:39:44.375344,0.672,-0.503,-0.208,-60.732,17.317,-3.659,12_6_1.csv
2018-07-10T11:39:44.423477,0.683,-0.599,-0.145,-60.976,-36.463,35.915,12_6_1.csv
2018-07-10T11:39:44.479129,0.785,-0.566,-0.177,108.293,-139.451,42.439,12_6_1.csv
2018-07-10T11:39:44.532774,0.785,-0.566,-0.177,176.829,-147.134,19.939,12_6_1.csv
2018-07-10T11:39:44.579400,0.652,-0.326,-0.25,188.232,-121.89,1.585,12_6_1.csv
2018-07-10T11:39:44.626028,0.652,-0.326,-0.25,147.256,-99.512,-20.366,12_6_1.csv
2018-07-10T11:39:44.679171,0.55,-0.393,-0.447,92.439,-133.537,-57.927,12_6_1.csv
2018-07-10T11:39:44.739334,0.683,-0.493,-0.53,63.78,-82.439,-135.122,12_6_1.csv
2018-07-10T11:39:44.786964,0.683,-0.493,-0.53,21.22,72.317,-132.073,12_6_1.csv
2018-07-10T11:39:44.834594,0.788,-0.524,-0.467,-59.329,128.415,-92.073,12_6_1.csv
2018-07-10T11:39:44.881221,0.788,-0.524,-0.467,-132.317,168.903,-64.451,12_6_1.csv
2018-07-10T11:39:44.925842,0.794,-0.746,-0.524,-117.622,136.402,-38.841,12_6_1.csv
2018-07-10T11:39:44.983499,0.796,-0.795,-0.538,-8.902,70.488,-39.085,12_6_1.csv
2018-07-10T11:39:45.040153,0.796,-0.795,-0.538,78.415,-7.805,-30.61,12_6_1.csv
2018-07-10T11:39:45.087781,0.716,-0.596,-0.419,60.122,-103.354,57.988,12_6_1.csv
2018-07-10T11:39:45.141427,0.835,-0.521,-0.32,53.049,-125.793,92.927,12_6_1.csv
2018-07-10T11:39:45.187553,0.835,-0.521,-0.32,36.037,-130.183,96.707,12_6_1.csv
2018-07-10T11:39:45.234681,0.87,-0.495,-0.257,-9.207,-94.634,81.098,12_6_1.csv
2018-07-10T11:39:45.287326,0.706,-0.536,-0.175,-54.451,-9.207,77.317,12_6_1.csv
2018-07-10T11:39:45.346987,0.706,-0.536,-0.175,-39.024,4.512,65.427,12_6_1.csv
2018-07-10T11:39:45.392611,0.617,-0.581,-0.222,-12.256,14.024,46.341,12_6_1.csv
2018-07-10T11:39:45.482351,0.587,-0.498,-0.363,46.22,20.183,35.366,12_6_1.csv
2018-07-10T11:39:45.537498,0.549,-0.486,-0.448,-30.976,77.866,26.159,12_6_1.csv
2018-07-10T11:39:45.583622,0.549,-0.486,-0.448,-64.756,67.073,10.244,12_6_1.csv
2018-07-10T11:39:45.637769,0.627,-0.536,-0.431,-75.976,45.793,-6.951,12_6_1.csv
2018-07-10T11:39:45.691415,0.836,-0.649,-0.403,-58.72,17.439,-39.512,12_6_1.csv
2018-07-10T11:39:45.741050,0.836,-0.649,-0.403,-10.305,3.415,-65.915,12_6_1.csv
2018-07-10T11:39:45.783163,0.887,-0.65,-0.394,37.744,-4.146,-82.561,12_6_1.csv
2018-07-10T11:39:45.831295,0.887,-0.65,-0.394,51.707,4.146,-82.195,12_6_1.csv
2018-07-10T11:39:45.891456,0.651,-0.549,-0.305,-6.524,0.854,-2.317,12_6_1.csv
2018-07-10T11:39:45.947611,0.692,-0.589,-0.248,17.317,-54.268,25.0,12_6_1.csv
2018-07-10T11:39:46.002760,0.692,-0.589,-0.248,75.244,-82.744,14.939,12_6_1.csv
2018-07-10T11:39:46.050890,0.621,-0.449,-0.362,136.951,-118.049,-30.976,12_6_1.csv
2018-07-10T11:39:46.099523,0.539,-0.37,-0.654,146.22,-275.244,-70.0,12_6_1.csv
2018-07-10T11:39:46.142139,0.539,-0.37,-0.654,150.244,-166.768,-76.524,12_6_1.csv
2018-07-10T11:39:46.195785,0.577,-0.393,-0.465,153.11,-28.354,-102.805,12_6_1.csv
2018-07-10T11:39:46.238401,0.577,-0.393,-0.465,87.195,9.756,-85.183,12_6_1.csv
2018-07-10T11:39:46.286529,0.639,-0.386,-0.42,-43.598,90.793,-33.902,12_6_1.csv
2018-07-10T11:39:46.336668,0.704,-0.662,-0.508,-175.0,138.293,-8.293,12_6_1.csv
2018-07-10T11:39:46.380788,0.704,-0.662,-0.508,-109.634,120.0,-29.756,12_6_1.csv
2018-07-10T11:39:46.424909,0.83,-0.734,-0.55,5.305,58.537,-50.915,12_6_1.csv
2018-07-10T11:39:46.470029,0.83,-0.734,-0.55,88.659,2.439,-58.78,12_6_1.csv
2018-07-10T11:39:46.521170,0.818,-0.586,-0.565,74.39,-5.488,-49.329,12_6_1.csv
2018-07-10T11:39:46.564286,0.818,-0.586,-0.565,4.329,1.341,-9.146,12_6_1.csv
2018-07-10T11:39:46.616430,0.636,-0.544,-0.334,-27.866,-69.451,59.268,12_6_1.csv
2018-07-10T11:39:46.670574,0.796,-0.551,-0.281,-30.366,-88.598,59.451,12_6_1.csv
2018-07-10T11:39:46.728734,0.796,-0.551,-0.281,-54.085,-51.159,54.756,12_6_1.csv
2018-07-10T11:39:46.847055,0.667,-0.589,-0.249,-41.037,-11.402,86.28,12_6_1.csv
2018-07-10T11:39:46.893178,0.653,-0.404,-0.331,54.634,-28.354,69.024,12_6_1.csv
2018-07-10T11:39:46.943317,0.653,-0.404,-0.331,42.622,-4.024,60.854,12_6_1.csv
2018-07-10T11:39:46.990443,0.629,-0.312,-0.409,5.0,25.244,45.0,12_6_1.csv
2018-07-10T11:39:47.044592,0.629,-0.312,-0.409,-31.524,50.183,23.11,12_6_1.csv
2018-07-10T11:39:47.109768,0.673,-0.419,-0.423,-36.646,48.354,-44.512,12_6_1.csv
2018-07-10T11:39:47.158397,0.869,-0.604,-0.41,-5.0,33.354,-73.537,12_6_1.csv
2018-07-10T11:39:47.206526,0.869,-0.604,-0.41,36.402,16.829,-105.366,12_6_1.csv
2018-07-10T11:39:47.252148,0.923,-0.707,-0.389,61.28,11.098,-134.146,12_6_1.csv
2018-07-10T11:39:47.297770,0.702,-0.647,-0.232,43.963,2.439,-67.378,12_6_1.csv
2018-07-10T11:39:47.348406,0.702,-0.647,-0.232,37.744,-38.415,2.439,12_6_1.csv
2018-07-10T11:39:47.407563,0.697,-0.597,-0.272,107.134,-81.402,16.22,12_6_1.csv
2018-07-10T11:39:47.458722,0.542,-0.353,-0.488,222.744,-111.89,-40.915,12_6_1.csv
2018-07-10T11:39:47.505848,0.542,-0.353,-0.488,286.585,-225.427,-95.732,12_6_1.csv
2018-07-10T11:39:47.551474,0.73,-0.37,-0.387,235.976,-227.622,-92.134,12_6_1.csv
2018-07-10T11:39:47.598600,0.73,-0.37,-0.387,184.878,-121.342,-125.671,12_6_1.csv
2018-07-10T11:39:47.667789,0.788,-0.395,-0.277,-21.829,45.854,-79.085,12_6_1.csv
2018-07-10T11:39:47.719931,0.706,-0.569,-0.457,-146.342,132.012,-25.671,12_6_1.csv
2018-07-10T11:39:47.767059,0.706,-0.569,-0.457,-191.646,162.5,-5.61,12_6_1.csv
2018-07-10T11:39:47.814185,0.649,-0.76,-0.503,-120.671,134.329,-14.695,12_6_1.csv
2018-07-10T11:39:47.860313,0.8,-0.634,-0.578,100.305,-8.78,-18.171,12_6_1.csv
2018-07-10T11:39:47.907439,0.8,-0.634,-0.578,140.244,-64.207,2.622,12_6_1.csv
2018-07-10T11:39:47.960587,0.865,-0.529,-0.584,141.646,-88.963,6.463,12_6_1.csv
2018-07-10T11:39:48.020748,0.863,-0.459,-0.438,60.671,-150.976,63.537,12_6_1.csv
2018-07-10T11:39:48.068375,0.863,-0.459,-0.438,14.329,-127.195,85.122,12_6_1.csv
2018-07-10T11:39:48.113496,0.875,-0.469,-0.263,-13.476,-128.902,67.988,12_6_1.csv
2018-07-10T11:39:48.206245,0.724,-0.558,-0.184,-67.012,-97.256,43.537,12_6_1.csv
2018-07-10T11:39:48.255380,0.724,-0.558,-0.184,-12.805,-32.378,26.707,12_6_1.csv
2018-07-10T11:39:48.306517,0.586,-0.474,-0.221,89.329,2.073,-5.976,12_6_1.csv
2018-07-10T11:39:48.368688,0.623,-0.557,-0.306,1.646,26.402,4.695,12_6_1.csv
2018-07-10T11:39:48.406790,0.623,-0.557,-0.306,0.854,40.122,-7.988,12_6_1.csv
2018-07-10T11:39:48.461942,0.58,-0.613,-0.437,77.866,62.134,-13.659,12_6_1.csv
2018-07-10T11:39:48.503052,0.512,-0.521,-0.446,90.122,57.073,-40.0,12_6_1.csv
2018-07-10T11:39:48.556200,0.512,-0.521,-0.446,50.366,29.573,-61.22,12_6_1.csv
2018-07-10T11:39:48.618366,0.666,-0.591,-0.335,-15.61,-8.171,-66.707,12_6_1.csv
2018-07-10T11:39:48.674522,0.929,-0.834,-0.313,-48.78,-23.354,-69.024,12_6_1.csv
2018-07-10T11:39:48.722152,0.929,-0.834,-0.313,16.098,-49.268,-87.622,12_6_1.csv
2018-07-10T11:39:48.784318,0.862,-0.711,-0.268,154.756,-56.463,-85.122,12_6_1.csv
2018-07-10T11:39:48.837961,0.626,-0.399,-0.227,90.61,38.232,-25.488,12_6_1.csv
2018-07-10T11:39:48.878068,0.626,-0.399,-0.227,2.378,61.341,39.756,12_6_1.csv
2018-07-10T11:39:48.951264,0.613,-0.547,-0.223,24.207,-29.695,8.232,12_6_1.csv
2018-07-10T11:39:49.004907,0.614,-0.664,-0.54,142.744,-76.707,-38.476,12_6_1.csv
2018-07-10T11:39:49.047521,0.614,-0.664,-0.54,350.244,-149.878,-88.476,12_6_1.csv
2018-07-10T11:39:49.099661,0.818,-0.251,-0.459,358.293,-139.817,-77.134,12_6_1.csv
2018-07-10T11:39:49.157315,0.833,-0.38,-0.236,-115.793,-4.695,-17.317,12_6_1.csv
2018-07-10T11:39:49.207916,0.833,-0.38,-0.236,-232.622,66.89,5.244,12_6_1.csv
2018-07-10T11:39:49.258050,0.592,-0.679,-0.288,-196.098,106.342,4.024,12_6_1.csv
2018-07-10T11:39:49.313701,0.603,-0.64,-0.303,-19.817,43.537,-39.756,12_6_1.csv
2018-07-10T11:39:49.359323,0.603,-0.64,-0.303,37.866,10.244,-45.732,12_6_1.csv
2018-07-10T11:39:49.409404,0.773,-0.605,-0.4,38.537,14.512,-31.585,12_6_1.csv
2018-07-10T11:39:49.453521,0.773,-0.605,-0.4,9.634,23.232,-10.488,12_6_1.csv
2018-07-10T11:39:49.500651,0.951,-0.82,-0.434,25.793,-5.244,2.317,12_6_1.csv
2018-07-10T11:39:49.616968,0.969,-0.525,-0.334,144.695,-106.098,102.683,12_6_1.csv
2018-07-10T11:39:49.658077,0.991,-0.02,-0.269,127.5,-75.732,135.549,12_6_1.csv
2018-07-10T11:39:49.709217,0.871,-0.254,-0.136,-69.268,-53.293,0.854,12_6_1.csv
2018-07-10T11:39:49.753336,0.871,-0.254,-0.136,-111.646,1.402,-7.622,12_6_1.csv
2018-07-10T11:39:49.805479,0.716,-0.509,-0.207,-134.329,51.159,-13.659,12_6_1.csv
2018-07-10T11:39:49.863635,0.716,-0.509,-0.207,-121.463,78.78,-18.78,12_6_1.csv
2018-07-10T11:39:49.907757,0.664,-0.622,-0.263,-67.439,44.085,-25.732,12_6_1.csv
2018-07-10T11:39:49.952878,0.678,-0.638,-0.258,-10.366,8.354,-24.451,12_6_1.csv
2018-07-10T11:39:50.007027,0.678,-0.638,-0.258,50.549,-14.329,-31.037,12_6_1.csv
2018-07-10T11:39:50.050142,0.727,-0.563,-0.298,82.5,-19.634,-34.634,12_6_1.csv
2018-07-10T11:39:50.103289,0.727,-0.563,-0.298,88.415,-14.268,-39.573,12_6_1.csv
2018-07-10T11:39:50.157433,0.724,-0.548,-0.355,69.939,-3.72,-30.915,12_6_1.csv
2018-07-10T11:39:50.204564,0.823,-0.633,-0.404,59.634,-2.378,-23.537,12_6_1.csv
2018-07-10T11:39:50.253696,0.823,-0.633,-0.404,57.317,-27.744,-22.5,12_6_1.csv
2018-07-10T11:39:50.317872,0.838,-0.564,-0.431,65.549,-39.146,-5.793,12_6_1.csv
2018-07-10T11:39:50.366001,0.704,-0.071,-0.487,35.61,-65.854,9.451,12_6_1.csv
2018-07-10T11:39:50.408118,0.704,-0.071,-0.487,-20.427,-104.329,34.268,12_6_1.csv
2018-07-10T11:39:50.458253,0.832,-0.361,-0.324,8.963,-93.537,42.744,12_6_1.csv
2018-07-10T11:39:50.520424,0.767,-0.447,-0.334,189.207,-69.085,-67.317,12_6_1.csv
2018-07-10T11:39:50.579083,0.767,-0.447,-0.334,155.183,-17.256,-56.037,12_6_1.csv
2018-07-10T11:39:50.626711,0.717,-0.379,-0.358,33.72,10.854,-10.915,12_6_1.csv
2018-07-10T11:39:50.671831,0.746,-0.553,-0.397,-55.244,31.22,-9.817,12_6_1.csv
2018-07-10T11:39:50.720461,0.746,-0.553,-0.397,-30.61,50.0,-21.951,12_6_1.csv
2018-07-10T11:39:50.765582,0.609,-0.556,-0.376,13.72,50.061,-35.183,12_6_1.csv
2018-07-10T11:39:50.813211,0.609,-0.556,-0.376,49.634,15.183,-50.61,12_6_1.csv
2018-07-10T11:39:50.932537,0.766,-0.566,-0.356,13.171,36.585,-40.549,12_6_1.csv
2018-07-10T11:39:50.991697,0.766,-0.566,-0.356,34.146,65.244,-58.537,12_6_1.csv
2018-07-10T11:39:51.031806,0.889,-0.517,-0.222,58.232,89.756,-9.146,12_6_1.csv
2018-07-10T11:39:51.088460,0.992,-0.389,-0.275,-1.524,-45.244,20.0,12_6_1.csv
2018-07-10T11:39:51.127066,0.992,-0.389,-0.275,-76.951,-29.634,43.537,12_6_1.csv
2018-07-10T11:39:51.188232,0.733,-0.375,-0.266,-129.085,-11.89,77.866,12_6_1.csv
2018-07-10T11:39:51.243382,0.769,-0.541,-0.249,-116.463,-49.939,30.427,12_6_1.csv
2018-07-10T11:39:51.304548,0.769,-0.541,-0.249,-102.988,-43.171,11.22,12_6_1.csv
2018-07-10T11:39:51.347664,0.767,-0.592,-0.276,-110.915,-18.902,18.537,12_6_1.csv
2018-07-10T11:39:51.393790,0.767,-0.592,-0.276,-97.561,4.39,42.134,12_6_1.csv
2018-07-10T11:39:51.440916,0.655,-0.603,-0.268,46.829,-15.122,27.073,12_6_1.csv
2018-07-10T11:39:51.492056,0.682,-0.491,-0.264,93.354,-39.329,11.098,12_6_1.csv
2018-07-10T11:39:51.541189,0.682,-0.491,-0.264,111.098,-43.354,-1.402,12_6_1.csv
2018-07-10T11:39:51.604362,0.784,-0.383,-0.294,36.646,27.866,3.78,12_6_1.csv
2018-07-10T11:39:51.642464,0.761,-0.43,-0.499,38.963,82.012,-11.22,12_6_1.csv
2018-07-10T11:39:51.693602,0.761,-0.43,-0.499,30.366,127.256,-23.11,12_6_1.csv
2018-07-10T11:39:51.736719,0.721,-0.519,-0.535,6.585,116.768,-43.841,12_6_1.csv
2018-07-10T11:39:51.782344,0.721,-0.519,-0.535,-15.122,42.073,-61.341,12_6_1.csv
2018-07-10T11:39:51.844012,0.869,-0.682,-0.394,-52.256,-30.366,-54.268,12_6_1.csv
2018-07-10T11:39:51.892643,0.777,-0.712,-0.27,14.878,-52.866,-50.61,12_6_1.csv
2018-07-10T11:39:51.943278,0.777,-0.712,-0.27,72.134,-67.256,-25.854,12_6_1.csv
2018-07-10T11:39:51.985892,0.654,-0.488,-0.157,86.159,-74.451,9.146,12_6_1.csv
2018-07-10T11:39:52.040540,0.793,-0.183,-0.507,54.146,-129.756,38.537,12_6_1.csv
2018-07-10T11:39:52.081151,0.793,-0.183,-0.507,28.902,-208.476,-33.293,12_6_1.csv
2018-07-10T11:39:52.125773,0.751,-0.415,-0.501,123.842,-147.744,-31.463,12_6_1.csv
2018-07-10T11:39:52.171896,0.751,-0.415,-0.501,194.573,-57.988,-60.549,12_6_1.csv
2018-07-10T11:39:52.223037,0.703,-0.331,-0.247,143.72,-34.817,-62.134,12_6_1.csv
2018-07-10T11:39:52.308272,0.638,-0.519,-0.285,-81.28,52.927,-11.524,12_6_1.csv
2018-07-10T11:39:52.361414,0.529,-0.612,-0.484,6.22,54.878,-48.963,12_6_1.csv
2018-07-10T11:39:52.425086,0.529,-0.612,-0.484,64.878,-18.415,-57.988,12_6_1.csv
2018-07-10T11:39:52.474719,0.729,-0.531,-0.487,52.5,4.817,-40.0,12_6_1.csv
2018-07-10T11:39:52.523349,0.807,-0.704,-0.471,-15.671,68.11,-7.927,12_6_1.csv
2018-07-10T11:39:52.583510,0.807,-0.704,-0.471,34.451,31.463,-5.061,12_6_1.csv
2018-07-10T11:39:52.639660,0.844,-0.55,-0.424,73.659,7.012,12.012,12_6_1.csv
2018-07-10T11:39:52.688791,0.781,-0.423,-0.234,-36.037,-31.463,31.22,12_6_1.csv
2018-07-10T11:39:52.735918,0.781,-0.423,-0.234,-73.72,-43.963,43.78,12_6_1.csv
2018-07-10T11:39:52.783044,0.748,-0.561,-0.152,-62.317,-48.537,22.134,12_6_1.csv
2018-07-10T11:39:52.831178,0.748,-0.561,-0.152,-25.305,-52.622,1.098,12_6_1.csv
2018-07-10T11:39:52.877302,0.729,-0.54,-0.241,-13.78,-34.329,5.061,12_6_1.csv
2018-07-10T11:39:52.935461,0.694,-0.569,-0.25,-42.439,16.951,34.573,12_6_1.csv
2018-07-10T11:39:52.990608,0.694,-0.569,-0.25,-30.0,4.451,35.427,12_6_1.csv
2018-07-10T11:39:53.038741,0.698,-0.571,-0.213,16.341,-12.073,20.122,12_6_1.csv
2018-07-10T11:39:53.087873,0.722,-0.492,-0.315,59.573,-0.793,-11.646,12_6_1.csv
2018-07-10T11:39:53.128987,0.722,-0.492,-0.315,36.585,43.171,-13.232,12_6_1.csv
2018-07-10T11:39:53.190150,0.607,-0.509,-0.549,28.232,80.732,-14.451,12_6_1.csv
2018-07-10T11:39:53.247308,0.649,-0.526,-0.484,4.085,42.439,-37.012,12_6_1.csv
2018-07-10T11:39:53.299447,0.649,-0.526,-0.484,-66.768,34.329,-18.902,12_6_1.csv
2018-07-10T11:39:53.343569,0.82,-0.714,-0.365,-87.134,23.902,-19.939,12_6_1.csv
2018-07-10T11:39:53.394706,0.82,-0.714,-0.365,-42.988,13.232,-34.268,12_6_1.csv
2018-07-10T11:39:53.438634,0.824,-0.708,-0.336,20.244,-12.378,-38.537,12_6_1.csv
2018-07-10T11:39:53.486763,0.707,-0.494,-0.246,61.829,-36.585,-14.939,12_6_1.csv
2018-07-10T11:39:53.540911,0.707,-0.494,-0.246,15.427,-42.622,12.561,12_6_1.csv
2018-07-10T11:39:53.659233,0.78,-0.397,-0.418,51.646,-198.293,-28.171,12_6_1.csv
2018-07-10T11:39:53.707865,0.78,-0.397,-0.418,105.915,-116.524,-13.78,12_6_1.csv
2018-07-10T11:39:53.751483,0.704,-0.337,-0.375,49.146,-45.305,-8.354,12_6_1.csv
2018-07-10T11:39:53.798609,0.704,-0.337,-0.375,-24.146,-3.598,5.671,12_6_1.csv
2018-07-10T11:39:53.849749,0.66,-0.507,-0.342,-5.122,71.707,-1.646,12_6_1.csv
2018-07-10T11:39:53.913923,0.546,-0.51,-0.482,42.195,59.451,-25.183,12_6_1.csv
2018-07-10T11:39:53.970075,0.646,-0.478,-0.404,38.659,2.805,-24.329,12_6_1.csv
2018-07-10T11:39:54.018707,0.646,-0.478,-0.404,25.0,30.427,-17.073,12_6_1.csv
2018-07-10T11:39:54.071350,0.695,-0.556,-0.38,7.866,42.317,-10.488,12_6_1.csv
2018-07-10T11:39:54.114468,0.695,-0.556,-0.38,-2.378,46.341,-7.195,12_6_1.csv
2018-07-10T11:39:54.157326,0.819,-0.625,-0.487,17.439,32.378,-9.634,12_6_1.csv
2018-07-10T11:39:54.218493,0.81,-0.49,-0.51,24.207,26.524,-9.329,12_6_1.csv
2018-07-10T11:39:54.273642,0.81,-0.49,-0.51,-25.0,31.646,10.915,12_6_1.csv
2018-07-10T11:39:54.314255,0.691,-0.405,-0.307,-85.366,7.195,43.659,12_6_1.csv
2018-07-10T11:39:54.370908,0.798,-0.647,-0.224,-81.098,-35.427,12.012,12_6_1.csv
2018-07-10T11:39:54.422048,0.798,-0.647,-0.224,-37.683,-36.585,-4.39,12_6_1.csv
2018-07-10T11:39:54.472182,0.791,-0.601,-0.206,-14.634,-37.683,13.78,12_6_1.csv
2018-07-10T11:39:54.526331,0.791,-0.601,-0.206,2.195,-34.39,41.402,12_6_1.csv
2018-07-10T11:39:54.584486,0.792,-0.479,-0.223,18.415,-15.549,50.915,12_6_1.csv
2018-07-10T11:39:54.630615,0.741,-0.408,-0.265,37.073,-12.561,31.707,12_6_1.csv
2018-07-10T11:39:54.696792,0.637,-0.384,-0.482,117.317,-36.098,-60.488,12_6_1.csv
2018-07-10T11:39:54.740913,0.637,-0.384,-0.482,157.317,-72.378,-113.842,12_6_1.csv
2018-07-10T11:39:54.791048,0.717,-0.393,-0.414,133.842,-29.695,-111.89,12_6_1.csv
2018-07-10T11:39:54.845194,0.717,-0.393,-0.414,37.683,7.378,-95.122,12_6_1.csv
2018-07-10T11:39:54.892821,0.82,-0.643,-0.271,-37.256,8.598,-100.427,12_6_1.csv
2018-07-10T11:39:54.938945,0.867,-0.797,-0.347,-10.122,46.037,-83.963,12_6_1.csv
2018-07-10T11:39:55.024676,0.807,-0.714,-0.371,65.183,27.988,-46.28,12_6_1.csv
2018-07-10T11:39:55.078825,0.807,-0.714,-0.371,74.939,8.11,-24.207,12_6_1.csv
2018-07-10T11:39:55.124949,0.625,-0.549,-0.348,65.976,14.756,8.171,12_6_1.csv
2018-07-10T11:39:55.174844,0.92,0.136,-0.316,113.781,-107.134,35.305,12_6_1.csv
2018-07-10T11:39:55.219965,0.92,0.136,-0.316,45.061,-148.11,11.524,12_6_1.csv
2018-07-10T11:39:55.267097,0.903,-0.393,-0.241,32.805,-121.342,-70.488,12_6_1.csv
2018-07-10T11:39:55.315226,0.903,-0.393,-0.241,187.012,-169.146,-107.683,12_6_1.csv
2018-07-10T11:39:55.359847,0.722,-0.489,-0.221,271.89,-134.756,-86.463,12_6_1.csv
2018-07-10T11:39:55.407476,0.722,-0.489,-0.221,221.037,-84.878,-44.207,12_6_1.csv
2018-07-10T11:39:55.463127,0.72,-0.36,-0.308,94.878,-33.902,-54.024,12_6_1.csv
2018-07-10T11:39:55.521786,0.648,-0.448,-0.431,144.573,-36.585,-78.232,12_6_1.csv
2018-07-10T11:39:55.568917,0.648,-0.448,-0.431,123.476,-25.122,-59.695,12_6_1.csv
2018-07-10T11:39:55.618048,0.729,-0.471,-0.358,-37.073,24.573,-2.866,12_6_1.csv
2018-07-10T11:39:55.657656,0.715,-0.594,-0.407,-32.317,40.854,-8.659,12_6_1.csv
2018-07-10T11:39:55.709296,0.715,-0.594,-0.407,3.72,41.951,-14.024,12_6_1.csv
2018-07-10T11:39:55.763443,0.825,-0.627,-0.509,20.549,23.049,-14.817,12_6_1.csv
2018-07-10T11:39:55.813580,0.825,-0.627,-0.509,31.22,-10.549,-23.659,12_6_1.csv
2018-07-10T11:39:55.865723,0.786,-0.59,-0.49,32.439,-41.098,2.439,12_6_1.csv
2018-07-10T11:39:55.909841,0.76,-0.481,-0.372,15.244,-69.085,49.756,12_6_1.csv
2018-07-10T11:39:55.954463,0.76,-0.481,-0.372,2.561,-80.122,60.549,12_6_1.csv
2018-07-10T11:39:56.000869,0.8,-0.474,-0.296,-18.78,-67.317,42.256,12_6_1.csv
2018-07-10T11:39:56.062035,0.728,-0.509,-0.269,-49.512,-28.659,41.585,12_6_1.csv
2018-07-10T11:39:56.110165,0.728,-0.509,-0.269,-47.561,-0.793,29.329,12_6_1.csv
2018-07-10T11:39:56.157294,0.721,-0.598,-0.211,-38.537,-3.537,19.939,12_6_1.csv
2018-07-10T11:39:56.205426,0.721,-0.598,-0.211,-28.476,-49.024,40.549,12_6_1.csv
2018-07-10T11:39:56.251050,0.726,-0.532,-0.183,20.305,-53.171,58.476,12_6_1.csv
2018-07-10T11:39:56.298680,0.726,-0.532,-0.183,71.646,11.524,52.134,12_6_1.csv
2018-07-10T11:39:56.398953,0.543,-0.694,-0.429,77.195,58.171,-70.976,12_6_1.csv
2018-07-10T11:39:56.455104,0.543,-0.694,-0.429,79.573,18.598,-103.354,12_6_1.csv
2018-07-10T11:39:56.504238,0.766,-0.912,-0.389,183.415,-58.963,-119.207,12_6_1.csv
2018-07-10T11:39:56.554875,0.868,-0.702,-0.238,190.061,-66.524,-93.72,12_6_1.csv
2018-07-10T11:39:56.599496,0.868,-0.702,-0.238,149.756,-48.72,-59.878,12_6_1.csv
2018-07-10T11:39:56.643615,0.61,-0.414,-0.291,65.244,-48.659,6.524,12_6_1.csv
2018-07-10T11:39:56.696762,0.61,-0.414,-0.291,-50.305,-127.317,58.902,12_6_1.csv
2018-07-10T11:39:56.754418,0.684,-0.514,-0.346,33.537,-110.915,54.451,12_6_1.csv
2018-07-10T11:39:56.809066,0.661,-0.503,-0.35,128.781,-127.622,-8.415,12_6_1.csv
2018-07-10T11:39:56.861208,0.654,-0.349,-0.245,109.878,-44.39,-43.293,12_6_1.csv
2018-07-10T11:39:56.909339,0.654,-0.349,-0.245,23.902,-40.122,-28.293,12_6_1.csv
2018-07-10T11:39:56.955464,0.753,-0.435,-0.265,-65.976,-22.744,-30.0,12_6_1.csv
2018-07-10T11:39:57.001590,0.753,-0.435,-0.265,-127.988,43.415,-20.793,12_6_1.csv
2018-07-10T11:39:57.048716,0.699,-0.604,-0.456,-170.549,137.134,5.61,12_6_1.csv
2018-07-10T11:39:57.115900,0.635,-0.692,-0.443,-90.732,128.049,-8.963,12_6_1.csv
2018-07-10T11:39:57.165034,0.635,-0.692,-0.443,10.549,69.634,-39.39,12_6_1.csv
2018-07-10T11:39:57.229207,0.731,-0.584,-0.434,66.341,-8.171,-41.098,12_6_1.csv
2018-07-10T11:39:57.282354,0.828,-0.588,-0.468,42.805,-9.146,-33.354,12_6_1.csv
2018-07-10T11:39:57.328477,0.828,-0.588,-0.468,16.646,-4.695,-18.659,12_6_1.csv
2018-07-10T11:39:57.377613,0.764,-0.613,-0.424,-15.61,3.78,-1.098,12_6_1.csv
2018-07-10T11:39:57.423238,0.764,-0.613,-0.424,-45.976,-4.817,30.183,12_6_1.csv
2018-07-10T11:39:57.487669,0.777,-0.531,-0.306,-25.0,-51.402,69.146,12_6_1.csv
2018-07-10T11:39:57.554350,0.828,-0.456,-0.3,-128.11,11.707,61.768,12_6_1.csv
2018-07-10T11:39:57.603982,0.659,-0.604,-0.292,-126.89,41.098,50.183,12_6_1.csv
2018-07-10T11:39:57.658628,0.659,-0.604,-0.292,-55.549,9.085,55.915,12_6_1.csv
2018-07-10T11:39:57.762406,0.713,-0.475,-0.2,61.585,-82.195,32.256,12_6_1.csv
2018-07-10T11:39:57.817555,0.713,-0.475,-0.2,85.244,-59.39,5.915,12_6_1.csv
2018-07-10T11:39:57.872702,0.768,-0.34,-0.22,-91.22,98.476,6.524,12_6_1.csv
2018-07-10T11:39:57.923844,0.761,-0.702,-0.341,-190.0,165.549,24.451,12_6_1.csv
2018-07-10T11:39:57.978991,0.761,-0.702,-0.341,-115.0,210.488,21.524,12_6_1.csv
2018-07-10T11:39:58.025120,0.679,-0.649,-0.9,37.866,200.793,7.988,12_6_1.csv
2018-07-10T11:39:58.078261,0.873,-0.448,-0.706,225.366,-202.5,-135.854,12_6_1.csv
2018-07-10T11:39:58.126394,0.873,-0.448,-0.706,93.72,-95.0,-21.28,12_6_1.csv
2018-07-10T11:39:58.176528,0.641,-0.495,-0.037,45.244,-67.5,-9.817,12_6_1.csv
2018-07-10T11:39:58.241203,0.706,-0.511,-0.269,0.427,-119.329,32.256,12_6_1.csv
2018-07-10T11:39:58.287327,0.706,-0.511,-0.269,77.683,-137.561,13.72,12_6_1.csv
2018-07-10T11:39:58.334954,0.728,-0.495,-0.623,168.842,-168.781,-20.244,12_6_1.csv
2018-07-10T11:39:58.380576,0.728,-0.495,-0.623,226.22,-143.232,-56.341,12_6_1.csv
2018-07-10T11:39:58.423691,0.634,-0.352,-0.42,198.963,-69.756,-73.659,12_6_1.csv
2018-07-10T11:39:58.478341,0.685,-0.358,-0.145,55.366,-1.707,-42.866,12_6_1.csv
2018-07-10T11:39:58.536999,0.685,-0.358,-0.145,-28.171,73.902,-46.341,12_6_1.csv
2018-07-10T11:39:58.578613,0.558,-0.544,-0.28,-57.073,45.915,-54.817,12_6_1.csv
2018-07-10T11:39:58.631755,0.758,-0.601,-0.385,-137.317,77.439,-41.463,12_6_1.csv
2018-07-10T11:39:58.673873,0.758,-0.601,-0.385,-150.183,132.012,-25.427,12_6_1.csv
2018-07-10T11:39:58.720999,0.81,-0.698,-0.412,-101.22,94.451,-18.78,12_6_1.csv
2018-07-10T11:39:58.792193,0.926,-0.723,-0.55,8.354,49.634,-14.146,12_6_1.csv
2018-07-10T11:39:58.849349,0.926,-0.723,-0.55,40.976,56.28,-32.744,12_6_1.csv
2018-07-10T11:39:58.891463,0.781,-0.438,-0.388,20.854,70.183,-15.427,12_6_1.csv
2018-07-10T11:39:58.941600,0.781,-0.438,-0.388,-15.671,10.366,54.024,12_6_1.csv
2018-07-10T11:39:58.989730,0.738,-0.279,-0.216,-33.963,-61.585,88.293,12_6_1.csv
2018-07-10T11:39:59.031843,0.738,-0.279,-0.216,-110.0,-84.939,88.537,12_6_1.csv
2018-07-10T11:39:59.113064,0.754,-0.685,-0.227,-6.402,-79.878,-7.866,12_6_1.csv
2018-07-10T11:39:59.173230,0.754,-0.685,-0.227,31.585,-92.317,14.024,12_6_1.csv
2018-07-10T11:39:59.225369,0.727,-0.536,-0.19,70.549,-84.268,32.317,12_6_1.csv
2018-07-10T11:39:59.272502,0.727,-0.536,-0.19,98.232,-68.049,34.207,12_6_1.csv
2018-07-10T11:39:59.316619,0.696,-0.398,-0.183,69.573,-15.0,4.39,12_6_1.csv
2018-07-10T11:39:59.365755,0.732,-0.467,-0.263,36.585,21.341,-15.854,12_6_1.csv
2018-07-10T11:39:59.418897,0.732,-0.467,-0.263,37.378,54.207,-41.585,12_6_1.csv
2018-07-10T11:39:59.474048,0.791,-0.622,-0.497,48.72,96.768,-56.463,12_6_1.csv
2018-07-10T11:39:59.517164,0.872,-0.675,-0.517,124.268,121.646,-137.012,12_6_1.csv
2018-07-10T11:39:59.564793,0.872,-0.675,-0.517,121.037,41.341,-156.342,12_6_1.csv
2018-07-10T11:39:59.618938,1.015,-0.604,0.016,27.5,-62.744,-99.817,12_6_1.csv
2018-07-10T11:39:59.658042,1.015,-0.604,0.016,-26.463,-69.146,-67.195,12_6_1.csv
2018-07-10T11:39:59.717200,0.697,-0.505,0.13,-5.305,28.049,79.817,12_6_1.csv
2018-07-10T11:39:59.767334,0.604,-0.49,-0.075,34.512,-8.537,106.463,12_6_1.csv
2018-07-10T11:39:59.814460,0.604,-0.49,-0.075,139.024,-105.0,60.427,12_6_1.csv
2018-07-10T11:39:59.860583,0.759,-0.3,-0.284,199.024,-201.098,-17.744,12_6_1.csv
2018-07-10T11:39:59.911221,0.759,-0.3,-0.284,131.281,-197.683,-24.878,12_6_1.csv
2018-07-10T11:39:59.954336,0.949,-0.371,-0.317,112.927,-145.854,-27.134,12_6_1.csv
2018-07-10T11:40:00.003472,0.729,-0.461,-0.279,-19.634,-5.427,-19.451,12_6_1.csv
2018-07-10T11:40:00.047590,0.729,-0.461,-0.279,-43.293,35.244,-6.22,12_6_1.csv
2018-07-10T11:40:00.095723,0.58,-0.509,-0.284,-15.793,31.037,-18.78,12_6_1.csv
2018-07-10T11:40:00.140843,0.58,-0.509,-0.284,-4.756,3.171,-22.622,12_6_1.csv
2018-07-10T11:40:00.194992,0.763,-0.631,-0.271,-14.756,13.476,-15.366,12_6_1.csv
2018-07-10T11:40:00.235099,0.763,-0.631,-0.271,7.5,16.28,-23.049,12_6_1.csv
2018-07-10T11:40:00.282729,0.931,-0.702,-0.378,96.829,52.317,-19.024,12_6_1.csv
2018-07-10T11:40:00.330887,0.957,-0.48,-0.428,129.39,38.11,-7.561,12_6_1.csv
2018-07-10T11:40:00.376011,0.957,-0.48,-0.428,111.22,8.354,-1.098,12_6_1.csv
2018-07-10T11:40:00.477303,0.805,-0.239,-0.246,-139.39,-72.683,31.585,12_6_1.csv
2018-07-10T11:40:00.526938,0.802,-0.58,-0.067,-37.744,-79.146,-0.854,12_6_1.csv
2018-07-10T11:40:00.581085,0.823,-0.542,-0.121,-28.11,-45.366,9.146,12_6_1.csv
2018-07-10T11:40:00.631222,0.823,-0.542,-0.121,-18.171,-1.037,26.89,12_6_1.csv
2018-07-10T11:40:00.692390,0.765,-0.446,-0.215,-40.671,29.024,55.732,12_6_1.csv
2018-07-10T11:40:00.749543,0.719,-0.463,-0.25,-50.305,31.159,56.524,12_6_1.csv
2018-07-10T11:40:00.797674,0.719,-0.463,-0.25,-25.0,13.049,41.951,12_6_1.csv
2018-07-10T11:40:00.866859,0.719,-0.442,-0.265,66.159,-7.378,-11.829,12_6_1.csv
2018-07-10T11:40:00.935542,0.733,-0.451,-0.342,82.256,-5.244,-67.866,12_6_1.csv
2018-07-10T11:40:00.991191,0.819,-0.571,-0.347,67.622,-15.366,-78.293,12_6_1.csv
2018-07-10T11:40:01.053359,0.961,-0.688,-0.286,57.317,-48.902,-59.573,12_6_1.csv
2018-07-10T11:40:01.099483,0.961,-0.688,-0.286,72.866,-63.841,-72.866,12_6_1.csv
2018-07-10T11:40:01.157162,0.787,-0.6,-0.188,100.671,-73.415,-82.012,12_6_1.csv
2018-07-10T11:40:01.207296,0.648,-0.482,-0.127,81.524,-21.951,18.415,12_6_1.csv
2018-07-10T11:40:01.258939,0.648,-0.482,-0.127,77.439,-47.073,43.11,12_6_1.csv
2018-07-10T11:40:01.333143,0.695,-0.418,-0.373,225.793,-158.659,-43.476,12_6_1.csv
2018-07-10T11:40:01.380269,0.756,-0.181,-0.612,258.049,-244.756,-98.476,12_6_1.csv
2018-07-10T11:40:01.421882,0.756,-0.181,-0.612,152.805,-101.524,-62.134,12_6_1.csv
2018-07-10T11:40:01.474525,0.796,-0.373,-0.238,18.11,7.744,-29.512,12_6_1.csv
2018-07-10T11:40:01.518646,0.796,-0.373,-0.238,-88.72,27.073,-8.963,12_6_1.csv
2018-07-10T11:40:01.568782,0.637,-0.575,-0.244,-55.732,79.024,-22.561,12_6_1.csv
2018-07-10T11:40:01.624934,0.666,-0.582,-0.338,-27.988,76.768,-28.902,12_6_1.csv
2018-07-10T11:40:01.674068,0.666,-0.582,-0.338,-9.756,54.695,-32.317,12_6_1.csv
2018-07-10T11:40:01.724706,0.791,-0.595,-0.429,-5.305,42.622,-27.866,12_6_1.csv
2018-07-10T11:40:01.839519,0.875,-0.64,-0.477,2.5,32.317,18.902,12_6_1.csv
2018-07-10T11:40:01.891658,0.969,-0.111,-0.317,-60.366,-58.537,122.195,12_6_1.csv
2018-07-10T11:40:01.938789,0.895,-0.493,-0.077,-199.939,-34.756,84.207,12_6_1.csv
2018-07-10T11:40:01.999952,0.895,-0.493,-0.077,-109.39,-25.122,-97.561,12_6_1.csv
2018-07-10T11:40:02.051094,0.734,-0.738,-0.195,290.305,-128.72,-100.976,12_6_1.csv
2018-07-10T11:40:02.102231,0.743,-0.245,-0.302,212.988,-42.134,-57.988,12_6_1.csv
2018-07-10T11:40:02.158386,0.743,-0.245,-0.302,37.5,8.293,11.402,12_6_1.csv
2018-07-10T11:40:02.205512,0.721,-0.399,-0.267,-110.854,25.183,66.098,12_6_1.csv
2018-07-10T11:40:02.250638,0.723,-0.589,-0.306,-89.024,47.988,38.841,12_6_1.csv
2018-07-10T11:40:02.302778,0.723,-0.589,-0.306,-3.354,17.561,7.561,12_6_1.csv
2018-07-10T11:40:02.344894,0.722,-0.442,-0.309,61.646,-17.5,-16.098,12_6_1.csv
2018-07-10T11:40:02.392020,0.722,-0.442,-0.309,81.707,-37.317,-19.817,12_6_1.csv
2018-07-10T11:40:02.439148,0.761,-0.451,-0.328,71.098,-31.89,-34.451,12_6_1.csv
2018-07-10T11:40:02.485271,0.761,-0.451,-0.328,61.585,-12.561,-59.085,12_6_1.csv
2018-07-10T11:40:02.534904,0.837,-0.605,-0.427,11.28,30.0,-52.439,12_6_1.csv
2018-07-10T11:40:02.595065,0.9,-0.747,-0.384,17.378,19.573,-46.463,12_6_1.csv
2018-07-10T11:40:02.658735,0.772,-0.358,-0.319,112.866,-35.976,-31.585,12_6_1.csv
2018-07-10T11:40:02.714455,0.772,-0.358,-0.319,127.439,-57.317,-28.963,12_6_1.csv
2018-07-10T11:40:02.768101,0.885,0.045,-0.299,10.244,-118.963,-3.78,12_6_1.csv
2018-07-10T11:40:02.813726,0.834,-0.532,-0.279,146.281,-140.915,-28.049,12_6_1.csv
2018-07-10T11:40:02.876395,0.834,-0.532,-0.279,265.61,-84.146,-62.195,12_6_1.csv
2018-07-10T11:40:02.926030,0.653,-0.254,-0.343,210.244,-39.878,-41.098,12_6_1.csv
2018-07-10T11:40:02.974160,0.654,-0.412,-0.343,-17.683,-3.659,-3.415,12_6_1.csv
2018-07-10T11:40:03.022291,0.654,-0.412,-0.343,-16.037,16.707,-21.768,12_6_1.csv
2018-07-10T11:40:03.065407,0.666,-0.507,-0.345,-40.793,42.927,-8.049,12_6_1.csv
2018-07-10T11:40:03.115546,0.666,-0.507,-0.345,-56.402,52.256,3.963,12_6_1.csv
2018-07-10T11:40:03.203786,0.673,-0.531,-0.369,-35.488,40.305,-0.366,12_6_1.csv
2018-07-10T11:40:03.262944,0.715,-0.537,-0.43,-22.927,62.5,-4.939,12_6_1.csv
2018-07-10T11:40:03.322881,0.842,-0.471,-0.496,-65.061,61.28,-41.341,12_6_1.csv
2018-07-10T11:40:03.375525,0.955,-0.427,-0.521,-42.744,-18.232,-17.195,12_6_1.csv
2018-07-10T11:40:03.423154,0.955,-0.427,-0.521,-7.256,-25.305,-4.024,12_6_1.csv
2018-07-10T11:40:03.470784,0.774,-0.277,-0.298,-23.293,-46.524,39.512,12_6_1.csv
2018-07-10T11:40:03.517411,0.774,-0.277,-0.298,-37.073,-67.256,81.28,12_6_1.csv
2018-07-10T11:40:03.571057,0.783,-0.499,-0.322,-17.744,-36.159,62.927,12_6_1.csv
2018-07-10T11:40:03.630717,0.691,-0.534,-0.294,-72.561,17.439,-10.427,12_6_1.csv
2018-07-10T11:40:03.673330,0.691,-0.534,-0.294,-129.878,-16.098,24.39,12_6_1.csv
2018-07-10T11:40:03.725971,0.721,-0.59,-0.256,-72.988,-52.5,75.549,12_6_1.csv
2018-07-10T11:40:03.771092,0.721,-0.59,-0.256,15.427,-69.695,79.024,12_6_1.csv
2018-07-10T11:40:03.820225,0.795,-0.501,-0.298,96.098,-24.634,37.561,12_6_1.csv
2018-07-10T11:40:03.869357,0.723,-0.36,-0.342,77.622,4.329,20.915,12_6_1.csv
2018-07-10T11:40:03.925512,0.723,-0.36,-0.342,48.841,32.378,0.305,12_6_1.csv
2018-07-10T11:40:03.970632,0.66,-0.321,-0.511,46.585,50.549,-35.183,12_6_1.csv
2018-07-10T11:40:04.021774,0.826,-0.463,-0.523,115.793,63.171,-83.476,12_6_1.csv
2018-07-10T11:40:04.070905,0.826,-0.463,-0.523,80.854,24.207,-91.585,12_6_1.csv
2018-07-10T11:40:04.119538,1.07,-0.75,-0.435,2.561,5.366,-103.476,12_6_1.csv
2018-07-10T11:40:04.167166,1.07,-0.75,-0.435,-47.866,-2.622,-104.329,12_6_1.csv
2018-07-10T11:40:04.222313,0.565,-0.709,-0.132,-13.232,-75.854,-15.183,12_6_1.csv
2018-07-10T11:40:04.266932,0.634,-0.677,-0.076,112.5,-152.805,-11.829,12_6_1.csv
2018-07-10T11:40:04.314560,0.634,-0.677,-0.076,172.439,-157.5,-28.415,12_6_1.csv
2018-07-10T11:40:04.359683,0.918,-0.357,-0.553,197.927,-125.0,-31.402,12_6_1.csv
2018-07-10T11:40:04.406808,0.918,-0.357,-0.553,221.829,-32.073,-0.671,12_6_1.csv
2018-07-10T11:40:04.461960,0.663,-0.195,-0.759,112.5,-79.024,-30.0,12_6_1.csv
2018-07-10T11:40:04.569252,0.748,-0.392,-0.027,-75.183,-27.317,-10.061,12_6_1.csv
2018-07-10T11:40:04.612367,0.661,-0.653,-0.154,-78.72,38.78,3.841,12_6_1.csv
2018-07-10T11:40:04.659499,0.661,-0.653,-0.154,-0.976,58.049,-22.561,12_6_1.csv
2018-07-10T11:40:04.704620,0.544,-0.636,-0.542,217.378,-10.366,-110.549,12_6_1.csv
2018-07-10T11:40:04.756764,0.78,-0.388,-0.426,78.049,21.341,-42.5,12_6_1.csv
2018-07-10T11:40:04.811911,0.78,-0.388,-0.426,-107.927,93.659,40.183,12_6_1.csv
2018-07-10T11:40:04.860045,0.803,-0.682,-0.312,-201.524,167.134,45.671,12_6_1.csv
2018-07-10T11:40:04.906168,0.881,-0.623,-0.294,-69.756,82.866,3.537,12_6_1.csv
2018-07-10T11:40:04.961319,0.881,-0.623,-0.294,-37.439,18.293,-7.073,12_6_1.csv
2018-07-10T11:40:05.002429,0.84,-0.394,-0.147,-117.622,6.341,30.0,12_6_1.csv
2018-07-10T11:40:05.047554,0.84,-0.394,-0.147,-158.11,-20.488,39.939,12_6_1.csv
2018-07-10T11:40:05.102701,0.704,-0.625,-0.108,-109.756,-3.293,10.488,12_6_1.csv
2018-07-10T11:40:05.157855,0.69,-0.608,-0.133,4.878,-68.78,25.0,12_6_1.csv
2018-07-10T11:40:05.203978,0.69,-0.608,-0.133,14.817,-102.744,43.476,12_6_1.csv
2018-07-10T11:40:05.252111,0.754,-0.569,-0.164,25.366,-113.11,48.963,12_6_1.csv
2018-07-10T11:40:05.299236,0.754,-0.569,-0.164,40.305,-107.317,40.854,12_6_1.csv
2018-07-10T11:40:05.344361,0.764,-0.523,-0.197,88.354,-52.317,9.451,12_6_1.csv
2018-07-10T11:40:05.396501,0.733,-0.436,-0.361,71.585,5.427,-6.768,12_6_1.csv
2018-07-10T11:40:05.438615,0.733,-0.436,-0.361,40.305,82.134,-6.098,12_6_1.csv
2018-07-10T11:40:05.485743,0.656,-0.574,-0.666,60.061,148.659,-22.683,12_6_1.csv
2018-07-10T11:40:05.532871,0.656,-0.574,-0.666,109.695,129.329,-76.463,12_6_1.csv
2018-07-10T11:40:05.577993,0.859,-0.566,-0.416,68.049,40.488,-108.72,12_6_1.csv
2018-07-10T11:40:05.626124,0.98,-0.753,-0.025,-74.207,-29.817,-100.244,12_6_1.csv
2018-07-10T11:40:05.685282,0.98,-0.753,-0.025,16.585,-82.744,-93.78,12_6_1.csv
2018-07-10T11:40:05.741432,0.767,-0.582,0.024,35.183,-40.732,-34.329,12_6_1.csv
2018-07-10T11:40:05.789561,0.71,-0.541,-0.18,59.939,-86.28,44.695,12_6_1.csv
2018-07-10T11:40:05.831172,0.71,-0.541,-0.18,166.646,-134.39,35.549,12_6_1.csv
2018-07-10T11:40:05.928434,0.758,-0.222,-0.601,224.329,-169.634,-21.646,12_6_1.csv
2018-07-10T11:40:05.974556,0.771,-0.286,-0.161,169.695,-110.854,-45.915,12_6_1.csv
2018-07-10T11:40:06.025698,0.771,-0.286,-0.161,98.049,-132.134,-71.463,12_6_1.csv
2018-07-10T11:40:06.086861,0.799,-0.421,-0.112,-79.329,57.012,-59.085,12_6_1.csv
2018-07-10T11:40:06.129982,0.682,-0.549,-0.277,-97.439,113.902,-42.927,12_6_1.csv
2018-07-10T11:40:06.174099,0.682,-0.549,-0.277,-106.646,140.61,-25.549,12_6_1.csv
2018-07-10T11:40:06.221230,0.721,-0.671,-0.36,-101.402,139.573,-15.244,12_6_1.csv
2018-07-10T11:40:06.274372,0.796,-0.703,-0.432,-31.768,77.622,-13.78,12_6_1.csv
2018-07-10T11:40:06.330527,0.796,-0.703,-0.432,4.939,49.756,7.744,12_6_1.csv
2018-07-10T11:40:06.375648,0.993,-0.594,-0.511,27.073,25.122,27.256,12_6_1.csv
2018-07-10T11:40:06.423783,0.993,-0.594,-0.511,17.805,5.0,45.976,12_6_1.csv
2018-07-10T11:40:06.471911,1.035,0.113,-0.343,-236.037,-84.817,180.305,12_6_1.csv
2018-07-10T11:40:06.516034,0.733,-0.762,-0.316,-269.146,71.524,-14.817,12_6_1.csv
2018-07-10T11:40:06.563160,0.733,-0.762,-0.316,37.378,33.354,-163.842,12_6_1.csv
2018-07-10T11:40:06.612795,0.6,-0.651,-0.295,209.817,-77.256,-115.061,12_6_1.csv
2018-07-10T11:40:06.673460,0.785,-0.538,-0.235,109.207,-159.39,-21.524,12_6_1.csv
2018-07-10T11:40:06.723600,0.785,-0.538,-0.235,52.988,-163.902,25.854,12_6_1.csv
2018-07-10T11:40:06.771729,0.837,-0.577,-0.231,32.683,-123.354,68.293,12_6_1.csv
2018-07-10T11:40:06.816854,0.837,-0.577,-0.231,55.976,-74.939,74.085,12_6_1.csv
2018-07-10T11:40:06.862978,0.698,-0.433,-0.207,73.78,-34.085,60.0,12_6_1.csv
2018-07-10T11:40:06.915121,0.614,-0.405,-0.284,66.829,7.927,-0.061,12_6_1.csv
2018-07-10T11:40:06.974279,0.614,-0.405,-0.284,99.573,29.939,-38.659,12_6_1.csv
2018-07-10T11:40:07.027427,0.684,-0.538,-0.525,154.329,62.073,-86.951,12_6_1.csv
2018-07-10T11:40:07.080568,0.871,-0.639,-0.448,56.402,35.854,-139.207,12_6_1.csv
2018-07-10T11:40:07.132710,0.871,-0.639,-0.448,-54.817,-37.683,-118.72,12_6_1.csv
2018-07-10T11:40:07.191367,1.012,-0.85,-0.184,-148.72,-70.976,-92.622,12_6_1.csv
2018-07-10T11:40:07.293640,0.642,-0.701,-0.132,42.256,19.39,49.939,12_6_1.csv
2018-07-10T11:40:07.344277,0.686,-0.416,-0.483,126.646,9.634,68.171,12_6_1.csv
2018-07-10T11:40:07.392406,0.686,-0.416,-0.483,347.561,-90.244,-23.841,12_6_1.csv
2018-07-10T11:40:07.439535,0.808,-0.146,-0.584,173.293,-140.122,-34.939,12_6_1.csv
2018-07-10T11:40:07.485658,0.751,-0.35,-0.11,87.561,-126.402,2.805,12_6_1.csv
2018-07-10T11:40:07.534291,0.751,-0.35,-0.11,-19.39,-80.061,12.439,12_6_1.csv
2018-07-10T11:40:07.581921,0.697,-0.549,-0.23,-49.512,-14.817,-6.402,12_6_1.csv
2018-07-10T11:40:07.631053,0.697,-0.549,-0.23,2.378,27.622,-44.329,12_6_1.csv
2018-07-10T11:40:07.688208,0.658,-0.558,-0.408,49.207,48.293,-59.939,12_6_1.csv
2018-07-10T11:40:07.742360,0.704,-0.546,-0.349,-0.732,61.585,-12.988,12_6_1.csv
2018-07-10T11:40:07.800513,0.778,-0.655,-0.313,-9.024,45.427,10.61,12_6_1.csv
2018-07-10T11:40:07.845135,0.778,-0.655,-0.313,16.768,18.659,-5.366,12_6_1.csv
2018-07-10T11:40:07.893767,0.986,-0.515,-0.427,35.61,10.61,-1.524,12_6_1.csv
2018-07-10T11:40:07.940394,0.986,-0.515,-0.427,55.427,7.378,13.598,12_6_1.csv
2018-07-10T11:40:07.993035,0.929,-0.245,-0.233,-38.476,26.402,23.902,12_6_1.csv
2018-07-10T11:40:08.066231,0.719,-0.63,-0.188,-112.317,-62.622,-4.634,12_6_1.csv
2018-07-10T11:40:08.110348,0.719,-0.63,-0.188,-21.463,-26.22,-11.89,12_6_1.csv
2018-07-10T11:40:08.157474,0.623,-0.628,-0.222,37.683,-33.537,-9.207,12_6_1.csv
2018-07-10T11:40:08.205102,0.762,-0.573,-0.181,74.207,-84.39,7.256,12_6_1.csv
2018-07-10T11:40:08.252731,0.762,-0.573,-0.181,50.549,-83.72,34.207,12_6_1.csv
2018-07-10T11:40:08.297852,0.785,-0.502,-0.171,39.39,-73.537,47.317,12_6_1.csv
2018-07-10T11:40:08.350998,0.785,-0.502,-0.171,34.39,-41.402,43.841,12_6_1.csv
2018-07-10T11:40:08.423694,0.714,-0.358,-0.247,24.207,33.232,-32.683,12_6_1.csv
2018-07-10T11:40:08.474331,0.775,-0.325,-0.384,37.805,59.695,-52.134,12_6_1.csv
2018-07-10T11:40:08.518452,0.775,-0.325,-0.384,-4.695,105.305,-51.829,12_6_1.csv
2018-07-10T11:40:08.563575,0.898,-0.444,-0.73,-272.317,232.561,25.183,12_6_1.csv
2018-07-10T11:40:08.656828,0.895,-0.801,-0.62,-95.183,122.073,12.012,12_6_1.csv
