time,accel_x_list,accel_y_list,accel_z_list,gyro_x_list,gyro_y_list,gyro_z_list,filename
2018-07-11T13:01:20.801261,-0.934,-0.379,0.075,-7.134,-6.829,-12.195,13_10_1.csv
2018-07-11T13:01:20.847384,-0.912,-0.395,0.061,-9.512,-5.671,-2.012,13_10_1.csv
2018-07-11T13:01:20.962692,-0.928,-0.426,0.046,-10.427,0.244,22.5,13_10_1.csv
2018-07-11T13:01:21.046416,-0.938,-0.453,0.044,-15.671,-1.159,26.037,13_10_1.csv
2018-07-11T13:01:21.113094,-0.95,-0.474,0.053,-12.866,1.89,23.232,13_10_1.csv
2018-07-11T13:01:21.158716,-1.015,-0.476,0.048,-19.573,-1.341,14.39,13_10_1.csv
2018-07-11T13:01:21.207847,-1.015,-0.476,0.048,-23.902,-6.524,4.329,13_10_1.csv
2018-07-11T13:01:21.288563,-1.112,-0.46,-0.018,-7.622,-8.171,-27.256,13_10_1.csv
2018-07-11T13:01:21.347720,-1.049,-0.346,-0.048,-84.451,-42.561,-59.695,13_10_1.csv
2018-07-11T13:01:21.417908,-0.627,-0.276,0.164,-97.866,-11.951,-29.451,13_10_1.csv
2018-07-11T13:01:21.472554,-0.145,-0.434,0.079,-178.537,-132.805,-0.488,13_10_1.csv
2018-07-11T13:01:21.520182,-0.145,-0.434,0.079,-136.342,-94.573,-12.012,13_10_1.csv
2018-07-11T13:01:21.567809,-1.221,-1.156,-0.061,-39.085,-37.317,5.366,13_10_1.csv
2018-07-11T13:01:21.612930,-1.221,-1.156,-0.061,117.683,26.646,25.488,13_10_1.csv
2018-07-11T13:01:21.662562,-2.743,-1.535,-0.295,193.049,69.756,34.695,13_10_1.csv
2018-07-11T13:01:21.721219,-0.683,-0.342,0.251,115.305,79.817,-8.11,13_10_1.csv
2018-07-11T13:01:21.788899,0.193,0.134,0.25,-29.939,-32.866,-130.244,13_10_1.csv
2018-07-11T13:01:21.847556,0.193,0.134,0.25,2.5,-46.22,-110.854,13_10_1.csv
2018-07-11T13:01:21.901199,-0.167,-0.042,0.189,46.402,-63.841,-105.122,13_10_1.csv
2018-07-11T13:01:21.944816,-0.167,-0.042,0.189,39.939,-55.61,-107.317,13_10_1.csv
2018-07-11T13:01:21.995956,-0.231,-0.08,0.13,15.122,-62.439,-104.695,13_10_1.csv
2018-07-11T13:01:22.049098,-1.569,-1.319,0.158,61.524,-54.695,-68.659,13_10_1.csv
2018-07-11T13:01:22.097231,-1.569,-1.319,0.158,29.756,-15.427,51.159,13_10_1.csv
2018-07-11T13:01:22.143354,-2.27,-2.337,0.305,-3.78,106.402,201.707,13_10_1.csv
2018-07-11T13:01:22.192490,-0.207,-0.398,0.806,6.829,97.378,108.293,13_10_1.csv
2018-07-11T13:01:22.257665,-0.207,-0.398,0.806,-35.854,50.061,20.793,13_10_1.csv
2018-07-11T13:01:22.304795,0.304,0.089,0.481,-62.012,-7.744,-10.183,13_10_1.csv
2018-07-11T13:01:22.402060,0.109,-0.266,0.18,-89.146,-51.951,-12.378,13_10_1.csv
2018-07-11T13:01:22.449186,-0.206,-0.57,0.07,-31.098,-31.524,-22.073,13_10_1.csv
2018-07-11T13:01:22.507347,-0.206,-0.57,0.07,67.744,-11.585,-31.463,13_10_1.csv
2018-07-11T13:01:22.552467,-2.504,-1.45,-0.149,92.012,22.866,45.122,13_10_1.csv
2018-07-11T13:01:22.597593,-2.412,-1.735,-0.022,-33.841,42.622,85.671,13_10_1.csv
2018-07-11T13:01:22.650735,-2.412,-1.735,-0.022,-60.366,93.598,55.305,13_10_1.csv
2018-07-11T13:01:22.709898,-0.103,0.01,0.785,38.232,75.183,-62.805,13_10_1.csv
2018-07-11T13:01:22.754018,0.083,0.139,0.495,-6.098,-22.256,-44.024,13_10_1.csv
2018-07-11T13:01:22.799640,0.083,0.139,0.495,17.195,-91.22,-16.951,13_10_1.csv
2018-07-11T13:01:22.849275,-0.074,-0.163,0.226,-19.512,-74.878,-40.427,13_10_1.csv
2018-07-11T13:01:22.892390,-0.074,-0.163,0.226,-30.0,-69.756,-55.305,13_10_1.csv
2018-07-11T13:01:22.961577,-0.323,-0.305,0.03,39.817,-56.829,-60.854,13_10_1.csv
2018-07-11T13:01:23.055327,-2.593,-1.521,-0.234,-96.768,56.159,93.232,13_10_1.csv
2018-07-11T13:01:23.129526,-2.157,-1.779,0.022,49.756,184.512,140.488,13_10_1.csv
2018-07-11T13:01:23.210742,-0.067,0.163,0.907,-140.976,32.378,36.22,13_10_1.csv
2018-07-11T13:01:23.254860,-0.164,-0.479,0.364,-27.683,-93.415,50.366,13_10_1.csv
2018-07-11T13:01:23.373678,-0.402,-0.36,0.274,-36.28,-77.988,-91.159,13_10_1.csv
2018-07-11T13:01:23.505530,-1.901,-0.739,-0.227,104.39,-119.146,-98.171,13_10_1.csv
2018-07-11T13:01:23.595270,-1.843,-2.168,-0.323,2.744,284.451,173.842,13_10_1.csv
2018-07-11T13:01:23.643399,-0.694,-0.19,0.794,122.683,257.195,92.683,13_10_1.csv
2018-07-11T13:01:23.692028,-0.694,-0.19,0.794,1.341,25.427,-17.866,13_10_1.csv
2018-07-11T13:01:23.760712,-0.073,-0.094,0.522,-44.268,-52.012,-73.963,13_10_1.csv
2018-07-11T13:01:23.799816,-0.186,-0.288,0.313,61.28,3.11,-52.439,13_10_1.csv
2018-07-11T13:01:23.865993,-0.186,-0.288,0.313,105.793,7.439,-38.78,13_10_1.csv
2018-07-11T13:01:23.975786,-1.943,-1.128,-0.261,-77.073,-122.256,-109.695,13_10_1.csv
2018-07-11T13:01:24.020907,-1.943,-1.128,-0.261,-13.902,-47.561,46.037,13_10_1.csv
2018-07-11T13:01:24.086081,-3.177,-2.649,-0.172,-252.012,-75.061,62.073,13_10_1.csv
2018-07-11T13:01:24.133207,0.086,-1.002,0.826,-115.061,-7.073,141.037,13_10_1.csv
2018-07-11T13:01:24.179330,0.086,-1.002,0.826,25.244,92.622,65.061,13_10_1.csv
2018-07-11T13:01:24.224450,0.33,0.027,0.497,81.402,64.634,0.915,13_10_1.csv
2018-07-11T13:01:24.351290,-0.104,-0.188,0.182,23.11,-80.915,-10.671,13_10_1.csv
2018-07-11T13:01:24.409445,-0.182,-0.349,0.02,21.037,-110.793,-76.402,13_10_1.csv
2018-07-11T13:01:24.461584,-0.813,-0.687,-0.086,43.659,-106.037,-115.549,13_10_1.csv
2018-07-11T13:01:24.509713,-0.813,-0.687,-0.086,64.207,-29.939,-139.634,13_10_1.csv
2018-07-11T13:01:24.556839,-2.844,-1.835,-0.08,-3.659,58.415,-69.695,13_10_1.csv
2018-07-11T13:01:24.618504,-1.359,-1.599,0.755,-169.817,56.585,160.122,13_10_1.csv
2018-07-11T13:01:24.686184,0.229,-0.266,0.812,63.11,116.22,74.573,13_10_1.csv
2018-07-11T13:01:24.742836,0.229,-0.266,0.812,40.61,59.207,7.866,13_10_1.csv
2018-07-11T13:01:24.790462,0.013,-0.227,0.39,-22.439,-26.28,5.122,13_10_1.csv
2018-07-11T13:01:24.880704,-0.163,-0.33,0.26,65.915,-35.488,-31.22,13_10_1.csv
2018-07-11T13:01:24.946881,-0.557,-0.433,0.163,51.463,-82.012,-71.829,13_10_1.csv
2018-07-11T13:01:24.998519,-0.557,-0.433,0.163,108.232,-79.634,-99.451,13_10_1.csv
2018-07-11T13:01:25.054669,-2.374,-1.032,0.004,-12.256,-34.878,-56.22,13_10_1.csv
2018-07-11T13:01:25.131875,-2.104,-1.943,0.082,-158.354,40.0,159.329,13_10_1.csv
2018-07-11T13:01:25.183516,0.019,-0.852,0.67,-48.598,122.134,114.451,13_10_1.csv
2018-07-11T13:01:25.223623,0.019,-0.852,0.67,50.427,108.476,14.146,13_10_1.csv
2018-07-11T13:01:25.278774,0.173,0.082,0.346,52.5,90.183,-60.976,13_10_1.csv
2018-07-11T13:01:25.333422,-0.055,-0.167,0.221,-22.073,-51.524,-57.866,13_10_1.csv
2018-07-11T13:01:25.392081,-0.055,-0.167,0.221,19.939,-45.0,-51.585,13_10_1.csv
2018-07-11T13:01:25.456756,-0.161,-0.258,0.141,57.317,-16.585,-60.549,13_10_1.csv
2018-07-11T13:01:25.503380,-1.797,-1.149,-0.065,110.183,-14.939,-62.012,13_10_1.csv
2018-07-11T13:01:25.552010,-1.797,-1.149,-0.065,30.061,-71.524,-50.0,13_10_1.csv
2018-07-11T13:01:25.599637,-2.832,-2.748,0.005,-115.549,12.256,85.427,13_10_1.csv
2018-07-11T13:01:25.646765,-0.179,-0.998,0.647,-56.829,85.305,46.829,13_10_1.csv
2018-07-11T13:01:25.701913,-0.179,-0.998,0.647,111.342,155.671,-21.89,13_10_1.csv
2018-07-11T13:01:25.754057,0.204,0.3,0.429,113.232,67.439,-52.622,13_10_1.csv
2018-07-11T13:01:25.799179,0.204,0.3,0.429,27.378,-43.354,-57.805,13_10_1.csv
2018-07-11T13:01:25.849316,0.086,0.03,0.277,28.963,-65.183,-44.146,13_10_1.csv
2018-07-11T13:01:25.894437,0.019,-0.091,0.148,40.915,-50.061,-36.951,13_10_1.csv
2018-07-11T13:01:25.942570,0.019,-0.091,0.148,45.366,-59.695,-33.537,13_10_1.csv
2018-07-11T13:01:25.998721,-0.944,-0.979,0.089,67.683,-63.841,-33.354,13_10_1.csv
2018-07-11T13:01:26.069916,-2.657,-2.598,0.243,64.024,-1.89,65.793,13_10_1.csv
2018-07-11T13:01:26.116041,-2.657,-2.598,0.243,-153.11,22.256,120.61,13_10_1.csv
2018-07-11T13:01:26.160660,-0.855,-1.524,0.721,-164.756,90.732,140.0,13_10_1.csv
2018-07-11T13:01:26.215307,0.043,0.373,0.634,185.732,110.366,8.963,13_10_1.csv
2018-07-11T13:01:26.272459,0.043,0.373,0.634,-19.634,-37.683,-62.622,13_10_1.csv
2018-07-11T13:01:26.350167,0.194,0.083,0.224,-135.549,-92.256,-57.744,13_10_1.csv
2018-07-11T13:01:26.409827,0.208,-0.286,0.099,22.073,-12.561,-27.805,13_10_1.csv
2018-07-11T13:01:26.499065,-0.51,-0.306,0.042,94.756,52.622,-3.049,13_10_1.csv
2018-07-11T13:01:26.552209,-3.597,-1.851,-0.615,42.805,-17.622,61.341,13_10_1.csv
2018-07-11T13:01:26.600339,-3.597,-1.851,-0.615,-309.695,-177.195,52.378,13_10_1.csv
2018-07-11T13:01:26.643972,-1.411,-2.477,-0.122,-381.524,-115.976,64.634,13_10_1.csv
2018-07-11T13:01:26.913993,0.089,-0.566,0.163,60.488,-19.878,-9.878,13_10_1.csv
2018-07-11T13:01:26.957108,-0.309,-0.458,0.05,62.378,-36.463,-54.329,13_10_1.csv
2018-07-11T13:01:27.013263,-2.479,-1.8,-0.226,97.439,11.829,-121.951,13_10_1.csv
2018-07-11T13:01:27.067408,-2.479,-1.8,-0.226,-6.951,21.524,-34.573,13_10_1.csv
2018-07-11T13:01:27.112533,-2.079,-2.824,-0.331,-173.354,69.939,7.256,13_10_1.csv
2018-07-11T13:01:27.160661,-2.079,-2.824,-0.331,-91.951,160.122,-26.829,13_10_1.csv
2018-07-11T13:01:27.212805,-0.315,-0.106,0.553,132.866,143.415,-109.024,13_10_1.csv
2018-07-11T13:01:27.271964,0.007,0.845,0.434,-140.122,25.793,-177.683,13_10_1.csv
2018-07-11T13:01:27.323105,0.007,0.845,0.434,-144.085,-8.415,-132.195,13_10_1.csv
2018-07-11T13:01:27.381260,-0.144,-0.123,0.154,118.415,-19.146,25.0,13_10_1.csv
2018-07-11T13:01:27.428391,-0.216,0.097,0.122,128.537,-10.61,37.622,13_10_1.csv
2018-07-11T13:01:27.472509,-0.216,0.097,0.122,103.293,2.195,16.159,13_10_1.csv
2018-07-11T13:01:27.536686,-1.385,-0.793,-0.004,5.793,-0.61,29.939,13_10_1.csv
2018-07-11T13:01:27.581806,-2.84,-3.426,-0.543,-66.951,-129.512,180.671,13_10_1.csv
2018-07-11T13:01:27.627931,-2.84,-3.426,-0.543,-221.524,-123.72,244.756,13_10_1.csv
2018-07-11T13:01:27.677063,-0.364,-1.891,0.301,-113.476,-3.232,238.72,13_10_1.csv
2018-07-11T13:01:27.724189,-0.364,-1.891,0.301,141.524,139.39,127.683,13_10_1.csv
2018-07-11T13:01:27.771314,0.279,0.115,0.424,150.061,98.415,8.049,13_10_1.csv
2018-07-11T13:01:27.852030,0.085,0.043,0.235,4.939,-76.22,-64.573,13_10_1.csv
2018-07-11T13:01:27.897245,0.047,-0.263,0.025,-30.488,-101.524,-68.293,13_10_1.csv
2018-07-11T13:01:27.948886,0.047,-0.263,0.025,5.854,-113.72,-87.195,13_10_1.csv
2018-07-11T13:01:27.996513,-0.435,-0.809,0.08,44.39,-83.902,-112.378,13_10_1.csv
2018-07-11T13:01:28.042135,-0.435,-0.809,0.08,109.329,4.39,-113.72,13_10_1.csv
2018-07-11T13:01:28.089261,-2.525,-2.989,0.062,51.951,15.183,-42.317,13_10_1.csv
2018-07-11T13:01:28.154938,-1.073,-1.688,0.136,-179.512,-22.134,1.524,13_10_1.csv
2018-07-11T13:01:28.212595,-1.073,-1.688,0.136,-87.683,52.134,7.805,13_10_1.csv
2018-07-11T13:01:28.258217,0.192,0.256,0.605,58.232,116.281,-44.146,13_10_1.csv
2018-07-11T13:01:28.304842,0.031,0.226,0.334,40.305,32.5,-15.915,13_10_1.csv
2018-07-11T13:01:28.346954,0.031,0.226,0.334,26.646,-2.439,7.683,13_10_1.csv
2018-07-11T13:01:28.400096,-0.147,-0.121,0.302,79.146,31.89,19.329,13_10_1.csv
2018-07-11T13:01:28.488332,-0.369,-0.184,0.165,76.524,8.415,10.915,13_10_1.csv
2018-07-11T13:01:28.539970,-0.369,-0.184,0.165,87.805,-34.512,-8.171,13_10_1.csv
2018-07-11T13:01:28.614669,-2.021,-1.968,0.312,3.293,-55.0,93.476,13_10_1.csv
2018-07-11T13:01:28.661293,-2.043,-2.536,0.436,-161.768,74.878,204.085,13_10_1.csv
2018-07-11T13:01:28.709422,-0.114,-0.542,0.685,-30.793,177.195,122.317,13_10_1.csv
2018-07-11T13:01:28.755545,-0.114,-0.542,0.685,70.305,90.732,-3.841,13_10_1.csv
2018-07-11T13:01:28.814704,0.18,0.204,0.351,-7.866,-26.098,-61.098,13_10_1.csv
2018-07-11T13:01:28.865339,0.081,-0.248,0.216,-69.024,-76.89,-51.402,13_10_1.csv
2018-07-11T13:01:28.915472,0.081,-0.248,0.216,2.317,-46.646,-36.951,13_10_1.csv
2018-07-11T13:01:28.958086,-0.06,-0.289,0.059,31.524,-51.037,-34.756,13_10_1.csv
2018-07-11T13:01:29.009724,-0.06,-0.289,0.059,40.061,-55.671,-55.366,13_10_1.csv
2018-07-11T13:01:29.098963,-1.682,-0.932,-0.084,50.366,-74.085,-54.024,13_10_1.csv
2018-07-11T13:01:29.216778,-0.272,-1.351,0.78,-50.854,176.707,162.988,13_10_1.csv
2018-07-11T13:01:29.270922,0.389,0.396,0.721,99.39,52.073,5.976,13_10_1.csv
2018-07-11T13:01:29.316043,0.389,0.396,0.721,-74.329,-43.659,-25.183,13_10_1.csv
2018-07-11T13:01:29.363670,0.148,-0.35,0.204,-120.0,-108.049,-1.646,13_10_1.csv
2018-07-11T13:01:29.410295,0.148,-0.35,0.204,-30.793,-61.22,9.451,13_10_1.csv
2018-07-11T13:01:29.457420,-0.125,-0.377,0.12,73.171,-10.244,0.976,13_10_1.csv
2018-07-11T13:01:29.512067,-1.037,-0.685,-0.025,4.878,-55.183,-77.317,13_10_1.csv
2018-07-11T13:01:29.566211,-1.037,-0.685,-0.025,63.902,-52.805,-102.744,13_10_1.csv
2018-07-11T13:01:29.613838,-3.2,-2.752,-0.287,-8.78,-37.683,-2.134,13_10_1.csv
2018-07-11T13:01:29.692549,-0.8,-1.46,0.559,-106.768,93.049,23.78,13_10_1.csv
2018-07-11T13:01:29.737669,-0.8,-1.46,0.559,141.524,211.768,-18.354,13_10_1.csv
2018-07-11T13:01:29.812870,0.285,0.682,0.687,51.707,32.744,-46.524,13_10_1.csv
2018-07-11T13:01:29.884063,0.065,0.214,0.289,-28.476,-62.805,-0.915,13_10_1.csv
2018-07-11T13:01:29.927178,-0.084,-0.383,0.091,15.183,-63.11,23.476,13_10_1.csv
2018-07-11T13:01:29.973306,-0.084,-0.383,0.091,61.524,-66.768,14.39,13_10_1.csv
2018-07-11T13:01:30.021434,-0.723,-0.674,-0.014,85.549,-63.049,-25.183,13_10_1.csv
2018-07-11T13:01:30.086612,-2.68,-2.049,-0.192,24.268,-17.988,-51.646,13_10_1.csv
2018-07-11T13:01:30.134744,-2.68,-2.049,-0.192,-188.659,-3.171,96.28,13_10_1.csv
2018-07-11T13:01:30.187888,-1.542,-2.088,0.382,11.098,143.232,169.939,13_10_1.csv
2018-07-11T13:01:30.284649,0.135,0.106,0.861,7.317,-9.512,-55.671,13_10_1.csv
2018-07-11T13:01:30.330772,0.207,0.002,0.379,-124.695,-80.061,-44.146,13_10_1.csv
2018-07-11T13:01:30.394943,-0.004,-0.442,0.188,24.146,-36.098,3.476,13_10_1.csv
2018-07-11T13:01:30.441570,-0.004,-0.442,0.188,68.415,-33.963,-7.378,13_10_1.csv
2018-07-11T13:01:30.490702,-0.442,-0.476,0.064,73.841,-57.012,-38.72,13_10_1.csv
2018-07-11T13:01:30.581447,-2.349,-1.549,-0.139,62.5,-70.488,-124.695,13_10_1.csv
2018-07-11T13:01:30.628071,-2.349,-1.549,-0.139,-122.439,-32.805,-48.841,13_10_1.csv
2018-07-11T13:01:30.676200,-2.112,-2.405,0.128,-48.841,144.39,187.683,13_10_1.csv
2018-07-11T13:01:30.724831,-0.058,-0.154,0.808,173.049,198.354,83.049,13_10_1.csv
2018-07-11T13:01:30.770953,-0.058,-0.154,0.808,117.012,70.244,-25.854,13_10_1.csv
2018-07-11T13:01:30.817578,0.177,0.301,0.508,-77.073,-55.976,-48.171,13_10_1.csv
2018-07-11T13:01:30.873728,0.082,-0.295,0.224,-50.183,-89.939,-2.5,13_10_1.csv
2018-07-11T13:01:30.929377,0.082,-0.295,0.224,-12.317,-80.244,5.0,13_10_1.csv
2018-07-11T13:01:30.973995,-0.029,-0.296,0.113,11.707,-82.5,-12.683,13_10_1.csv
2018-07-11T13:01:31.025132,-0.029,-0.296,0.113,22.439,-72.561,-39.085,13_10_1.csv
2018-07-11T13:01:31.097826,-2.103,-1.17,-0.092,108.781,-85.427,-18.963,13_10_1.csv
2018-07-11T13:01:31.146459,-2.972,-2.651,0.282,-92.744,2.073,127.866,13_10_1.csv
2018-07-11T13:01:31.196593,-0.18,0.102,1.092,32.073,241.463,87.256,13_10_1.csv
2018-07-11T13:01:31.258763,-0.18,0.102,1.092,-101.098,23.72,34.329,13_10_1.csv
2018-07-11T13:01:31.331965,0.399,-0.156,0.433,-98.963,-142.012,17.683,13_10_1.csv
2018-07-11T13:01:31.380094,-0.024,-0.722,0.125,37.073,-38.171,17.622,13_10_1.csv
2018-07-11T13:01:31.472345,-0.261,-0.348,0.05,85.305,-5.305,-27.5,13_10_1.csv
2018-07-11T13:01:31.524988,-1.204,-0.842,-0.018,71.768,-77.439,-137.683,13_10_1.csv
2018-07-11T13:01:31.597682,-2.918,-2.397,0.013,4.451,-5.915,-77.073,13_10_1.csv
2018-07-11T13:01:31.714996,-1.088,-1.106,0.842,12.927,182.927,93.72,13_10_1.csv
2018-07-11T13:01:31.785183,0.28,0.51,0.667,-8.78,24.329,-33.902,13_10_1.csv
2018-07-11T13:01:31.833312,0.28,0.51,0.667,-76.646,-76.768,-21.89,13_10_1.csv
2018-07-11T13:01:32.023319,-0.32,-0.382,0.054,58.902,-66.098,-32.561,13_10_1.csv
2018-07-11T13:01:32.083480,-2.276,-1.745,0.064,52.866,-42.988,-114.146,13_10_1.csv
2018-07-11T13:01:32.188260,-2.182,-2.463,0.233,-200.732,18.415,129.329,13_10_1.csv
2018-07-11T13:01:32.318107,-0.067,-0.402,0.789,172.378,110.061,7.195,13_10_1.csv
2018-07-11T13:01:32.380273,0.177,0.456,0.464,-129.329,-60.549,-31.037,13_10_1.csv
2018-07-11T13:01:32.439932,0.082,-0.3,0.241,18.049,-36.159,-1.646,13_10_1.csv
2018-07-11T13:01:32.499090,-0.082,-0.237,0.169,31.402,-34.451,-18.78,13_10_1.csv
2018-07-11T13:01:32.554238,-0.082,-0.237,0.169,26.768,-51.524,-26.768,13_10_1.csv
2018-07-11T13:01:32.657012,-2.799,-2.677,0.285,11.28,63.78,26.463,13_10_1.csv
2018-07-11T13:01:32.724694,-0.601,-0.52,0.532,-58.78,69.634,79.634,13_10_1.csv
2018-07-11T13:01:32.778838,-0.601,-0.52,0.532,-84.329,60.671,9.451,13_10_1.csv
2018-07-11T13:01:32.832481,0.32,0.089,0.469,-37.622,65.915,-13.659,13_10_1.csv
2018-07-11T13:01:32.882114,-0.067,-0.113,0.267,68.659,-24.634,42.378,13_10_1.csv
2018-07-11T13:01:32.930744,-0.067,-0.113,0.267,12.073,-47.622,14.817,13_10_1.csv
2018-07-11T13:01:33.013465,-0.129,-0.208,0.182,0.732,-69.146,-60.366,13_10_1.csv
2018-07-11T13:01:33.082649,-0.601,-0.549,0.064,66.341,-91.037,-113.842,13_10_1.csv
2018-07-11T13:01:33.128271,-2.584,-2.441,0.147,-13.354,-53.902,-103.963,13_10_1.csv
2018-07-11T13:01:33.180926,-2.584,-2.441,0.147,-83.841,41.28,35.0,13_10_1.csv
2018-07-11T13:01:33.225043,-1.45,-1.954,0.375,-89.634,60.854,87.134,13_10_1.csv
2018-07-11T13:01:33.275683,-1.45,-1.954,0.375,-36.524,126.89,79.817,13_10_1.csv
2018-07-11T13:01:33.430100,0.142,0.057,0.373,54.085,-30.0,4.939,13_10_1.csv
2018-07-11T13:01:33.487756,-0.117,-0.258,0.256,31.463,-37.317,-14.329,13_10_1.csv
2018-07-11T13:01:33.581507,-0.489,-0.318,0.083,36.585,-99.329,-83.049,13_10_1.csv
2018-07-11T13:01:33.630639,-1.795,-1.646,0.208,11.159,-93.476,-113.171,13_10_1.csv
2018-07-11T13:01:33.675760,-1.795,-1.646,0.208,-102.927,-23.902,-30.549,13_10_1.csv
2018-07-11T13:01:33.726901,-1.715,-2.689,0.444,-88.11,95.976,137.012,13_10_1.csv
2018-07-11T13:01:33.833187,-0.098,-0.266,0.59,-132.927,-5.854,41.646,13_10_1.csv
2018-07-11T13:01:33.881316,0.126,-0.215,0.191,-7.012,-11.768,45.122,13_10_1.csv
2018-07-11T13:01:33.929446,-0.147,-0.236,0.144,116.098,-36.768,53.902,13_10_1.csv
2018-07-11T13:01:33.977575,-0.147,-0.236,0.144,26.341,-37.012,-1.402,13_10_1.csv
2018-07-11T13:01:34.077847,-0.271,-0.099,-0.102,-94.39,-112.927,-117.866,13_10_1.csv
2018-07-11T13:01:34.168091,-2.139,-2.958,-0.039,-94.085,-31.402,-132.744,13_10_1.csv
2018-07-11T13:01:34.228764,-2.139,-2.958,-0.039,-34.146,40.366,172.744,13_10_1.csv
2018-07-11T13:01:34.276892,-0.756,-1.465,0.251,-143.598,17.5,130.183,13_10_1.csv
2018-07-11T13:01:34.353603,0.312,0.008,0.359,50.366,85.061,32.805,13_10_1.csv
2018-07-11T13:01:34.426805,-0.086,-0.193,0.211,141.281,10.488,44.085,13_10_1.csv
2018-07-11T13:01:34.493985,-0.179,-0.153,0.15,85.915,31.402,-18.415,13_10_1.csv
2018-07-11T13:01:34.545124,-0.179,-0.153,0.15,16.098,-16.707,-62.5,13_10_1.csv
2018-07-11T13:01:34.597263,-0.767,-0.368,0.138,19.817,-52.561,-90.0,13_10_1.csv
2018-07-11T13:01:34.789584,-0.956,-2.915,0.253,195.732,273.049,159.451,13_10_1.csv
2018-07-11T13:01:34.847740,0.385,0.39,0.479,205.488,208.354,31.098,13_10_1.csv
2018-07-11T13:01:34.895870,0.122,0.099,0.24,-22.073,0.366,-22.988,13_10_1.csv
2018-07-11T13:01:34.947007,0.122,0.099,0.24,60.183,-25.366,22.988,13_10_1.csv
2018-07-11T13:01:35.000651,-0.125,-0.256,0.156,99.268,-0.915,18.902,13_10_1.csv
2018-07-11T13:01:35.050784,-0.125,-0.256,0.156,59.39,3.171,-13.11,13_10_1.csv
2018-07-11T13:01:35.097412,-0.352,-0.291,0.025,69.939,-41.402,-84.085,13_10_1.csv
2018-07-11T13:01:35.149551,-2.318,-1.553,0.083,123.72,-48.171,-102.134,13_10_1.csv
2018-07-11T13:01:35.227764,-2.164,-2.77,-0.037,-224.634,-78.963,75.915,13_10_1.csv
2018-07-11T13:01:35.290938,-2.164,-2.77,-0.037,-163.476,-6.463,108.171,13_10_1.csv
2018-07-11T13:01:35.360626,0.123,-0.597,0.72,194.451,145.061,15.183,13_10_1.csv
2018-07-11T13:01:35.409757,0.248,0.323,0.471,78.537,42.866,-12.073,13_10_1.csv
2018-07-11T13:01:35.456883,-0.102,-0.201,0.179,49.451,-39.634,12.744,13_10_1.csv
2018-07-11T13:01:35.505012,-0.102,-0.201,0.179,57.317,-55.244,3.841,13_10_1.csv
2018-07-11T13:01:35.573194,-0.169,-0.205,-0.012,28.902,-76.646,-38.232,13_10_1.csv
2018-07-11T13:01:35.619317,-0.931,-0.97,0.112,30.854,-101.585,-105.549,13_10_1.csv
2018-07-11T13:01:35.707052,-2.193,-3.062,0.157,-134.024,4.512,-41.402,13_10_1.csv
2018-07-11T13:01:35.774231,-2.193,-3.062,0.157,-227.561,63.049,81.646,13_10_1.csv
2018-07-11T13:01:35.822360,-0.614,-1.571,0.752,155.61,202.012,52.622,13_10_1.csv
2018-07-11T13:01:35.864472,0.19,0.544,0.613,125.732,102.683,-20.122,13_10_1.csv
2018-07-11T13:01:35.926638,0.19,0.544,0.613,22.683,18.354,-31.098,13_10_1.csv
2018-07-11T13:01:35.989305,0.028,0.072,0.237,34.939,-33.293,13.232,13_10_1.csv
2018-07-11T13:01:36.100103,-0.448,-0.235,0.045,8.232,-54.817,-35.671,13_10_1.csv
2018-07-11T13:01:36.186336,-2.65,-2.359,0.278,52.5,-58.049,12.256,13_10_1.csv
2018-07-11T13:01:36.246998,-2.65,-2.359,0.278,-173.232,-25.366,105.427,13_10_1.csv
2018-07-11T13:01:36.303650,-1.606,-2.569,0.382,-105.183,9.268,187.378,13_10_1.csv
2018-07-11T13:01:36.347768,0.467,-0.363,0.545,56.098,88.963,108.598,13_10_1.csv
2018-07-11T13:01:36.439011,0.22,-0.045,0.294,-1.524,-18.72,-7.5,13_10_1.csv
2018-07-11T13:01:36.488644,0.22,-0.045,0.294,10.732,-41.22,13.476,13_10_1.csv
2018-07-11T13:01:36.536271,-0.097,-0.371,0.159,64.512,-26.341,14.39,13_10_1.csv
2018-07-11T13:01:36.616986,-0.408,-0.421,0.077,19.085,-88.232,-88.11,13_10_1.csv
2018-07-11T13:01:36.672635,-2.096,-1.707,0.248,73.171,-80.915,-148.659,13_10_1.csv
2018-07-11T13:01:36.745330,-1.729,-2.588,0.464,-144.512,3.476,87.683,13_10_1.csv
2018-07-11T13:01:36.806994,-1.729,-2.588,0.464,-16.89,178.537,151.22,13_10_1.csv
2018-07-11T13:01:36.851613,-0.115,-0.221,0.786,138.232,258.902,77.683,13_10_1.csv
2018-07-11T13:01:36.931326,0.213,0.28,0.373,-37.927,-12.561,-57.195,13_10_1.csv
2018-07-11T13:01:37.039616,-0.083,-0.266,0.292,103.902,-6.768,-6.951,13_10_1.csv
2018-07-11T13:01:37.100278,-0.235,-0.23,0.063,62.561,-53.659,-18.902,13_10_1.csv
2018-07-11T13:01:37.181495,-1.014,-1.061,0.287,35.0,-106.159,-131.463,13_10_1.csv
2018-07-11T13:01:37.285272,-1.964,-2.822,0.372,-151.524,13.841,98.537,13_10_1.csv
2018-07-11T13:01:37.333905,-0.784,-1.439,0.632,-91.585,116.342,135.61,13_10_1.csv
2018-07-11T13:01:37.448214,0.322,0.336,0.618,-65.305,46.341,-13.598,13_10_1.csv
2018-07-11T13:01:37.509379,0.136,-0.278,0.382,94.939,-14.939,68.354,13_10_1.csv
2018-07-11T13:01:37.554502,-0.129,-0.197,0.276,110.793,8.841,29.451,13_10_1.csv
2018-07-11T13:01:37.599624,-0.129,-0.197,0.276,23.78,-40.122,-14.329,13_10_1.csv
2018-07-11T13:01:37.644747,-0.243,-0.227,0.107,-33.11,-88.902,-48.841,13_10_1.csv
2018-07-11T13:01:37.699896,-0.243,-0.227,0.107,-11.524,-91.524,-65.61,13_10_1.csv
2018-07-11T13:01:37.745019,-1.965,-1.825,0.406,45.671,-76.463,-70.0,13_10_1.csv
2018-07-11T13:01:37.822231,-2.24,-2.729,0.819,-60.732,118.476,156.22,13_10_1.csv
2018-07-11T13:01:37.863340,-2.24,-2.729,0.819,-107.134,73.841,127.012,13_10_1.csv
2018-07-11T13:01:37.915483,0.14,-0.594,0.947,67.683,104.756,53.72,13_10_1.csv
2018-07-11T13:01:37.955591,0.236,0.079,0.191,57.5,-8.415,-1.646,13_10_1.csv
2018-07-11T13:01:38.012749,0.236,0.079,0.191,8.049,-106.159,-22.988,13_10_1.csv
2018-07-11T13:01:38.084942,-0.056,-0.263,0.023,30.671,-37.195,-56.524,13_10_1.csv
2018-07-11T13:01:38.160147,-0.283,-0.259,0.013,23.049,-85.732,-92.439,13_10_1.csv
2018-07-11T13:01:38.206273,-0.721,-0.582,0.065,45.244,-109.268,-112.988,13_10_1.csv
2018-07-11T13:01:38.255406,-0.721,-0.582,0.065,53.841,-96.707,-142.683,13_10_1.csv
2018-07-11T13:01:38.306043,-2.296,-2.674,1.035,47.622,20.305,-96.098,13_10_1.csv
2018-07-11T13:01:38.348661,-2.296,-2.674,1.035,-17.561,258.537,141.768,13_10_1.csv
2018-07-11T13:01:38.405315,-1.379,-1.812,1.033,-63.598,34.695,74.634,13_10_1.csv
2018-07-11T13:01:38.477009,0.523,0.141,0.357,-63.78,-37.012,-54.939,13_10_1.csv
2018-07-11T13:01:38.521129,0.336,0.027,0.181,-17.683,-47.5,-44.024,13_10_1.csv
2018-07-11T13:01:38.572266,0.336,0.027,0.181,1.89,-22.927,-4.756,13_10_1.csv
2018-07-11T13:01:38.615882,-0.074,-0.209,0.147,39.39,3.72,9.39,13_10_1.csv
2018-07-11T13:01:38.664512,-0.074,-0.209,0.147,57.927,-18.293,-11.524,13_10_1.csv
2018-07-11T13:01:38.722166,-0.187,-0.172,0.096,2.5,-70.671,-58.415,13_10_1.csv
2018-07-11T13:01:38.825264,-1.265,-1.384,0.499,9.085,6.463,-84.329,13_10_1.csv
2018-07-11T13:01:38.880418,-2.308,-3.019,0.663,-220.366,-34.878,118.842,13_10_1.csv
2018-07-11T13:01:38.927542,-0.427,-1.347,0.721,-82.012,38.11,179.329,13_10_1.csv
2018-07-11T13:01:38.972665,-0.427,-1.347,0.721,71.524,103.232,111.342,13_10_1.csv
2018-07-11T13:01:39.021798,0.344,0.302,0.495,80.793,34.817,-17.805,13_10_1.csv
2018-07-11T13:01:39.080962,0.235,-0.277,0.314,-62.683,-64.756,-26.585,13_10_1.csv
2018-07-11T13:01:39.146136,0.235,-0.277,0.314,72.5,-14.451,-5.305,13_10_1.csv
2018-07-11T13:01:39.206302,-0.162,-0.27,0.062,76.646,-92.378,-43.902,13_10_1.csv
2018-07-11T13:01:39.255433,-0.303,-0.089,0.088,-18.598,-137.256,-93.232,13_10_1.csv
2018-07-11T13:01:39.302564,-0.303,-0.089,0.088,-68.537,-116.89,-117.317,13_10_1.csv
2018-07-11T13:01:39.347685,-1.75,-2.251,0.269,-2.378,-77.317,-100.671,13_10_1.csv
2018-07-11T13:01:39.411861,-1.702,-2.594,0.162,-212.805,63.537,199.756,13_10_1.csv
2018-07-11T13:01:39.472526,-1.702,-2.594,0.162,-165.183,99.268,266.585,13_10_1.csv
2018-07-11T13:01:39.526670,-0.072,-0.821,0.716,4.878,63.72,58.476,13_10_1.csv
2018-07-11T13:01:39.572794,0.112,-0.495,0.548,15.0,39.573,8.293,13_10_1.csv
2018-07-11T13:01:39.617914,0.112,-0.495,0.548,100.976,2.927,22.622,13_10_1.csv
2018-07-11T13:01:39.667547,0.003,-0.258,0.257,160.61,-2.256,16.89,13_10_1.csv
2018-07-11T13:01:39.734225,0.241,0.186,0.067,-1.646,-92.256,-75.854,13_10_1.csv
2018-07-11T13:01:39.793884,0.241,0.186,0.067,-122.5,-124.756,-146.159,13_10_1.csv
2018-07-11T13:01:39.848029,-0.66,-1.055,0.0,20.305,-26.159,-161.89,13_10_1.csv
2018-07-11T13:01:39.899166,-2.691,-3.559,-0.26,68.049,-47.866,-48.902,13_10_1.csv
2018-07-11T13:01:39.950803,-2.691,-3.559,-0.26,-187.5,-46.22,-6.098,13_10_1.csv
2018-07-11T13:01:40.004447,-0.383,-2.009,0.252,1.585,117.805,57.317,13_10_1.csv
2018-07-11T13:01:40.062101,0.603,0.322,0.633,59.024,131.22,25.488,13_10_1.csv
2018-07-11T13:01:40.142315,0.281,0.259,0.357,61.585,22.561,-12.5,13_10_1.csv
2018-07-11T13:01:40.191446,0.281,0.259,0.357,57.439,9.878,-20.915,13_10_1.csv
2018-07-11T13:01:40.240076,-0.005,-0.206,0.187,158.963,6.402,17.622,13_10_1.csv
2018-07-11T13:01:40.286701,-0.095,-0.306,0.063,113.842,-45.549,-14.329,13_10_1.csv
2018-07-11T13:01:40.352376,-0.095,-0.306,0.063,122.683,-37.927,-60.61,13_10_1.csv
2018-07-11T13:01:40.407524,-1.926,-2.702,0.599,-88.476,35.976,57.5,13_10_1.csv
2018-07-11T13:01:40.461668,-1.336,-2.887,0.403,-327.683,-99.634,52.988,13_10_1.csv
2018-07-11T13:01:40.508293,-1.336,-2.887,0.403,-176.342,-41.524,73.598,13_10_1.csv
2018-07-11T13:01:40.567952,0.247,-0.045,0.623,95.305,87.073,17.866,13_10_1.csv
2018-07-11T13:01:40.616582,0.279,0.386,0.223,-19.939,5.122,-20.122,13_10_1.csv
2018-07-11T13:01:40.661201,0.279,0.386,0.223,-35.244,-57.317,-19.024,13_10_1.csv
2018-07-11T13:01:40.713842,0.092,-0.395,0.116,77.5,-30.366,4.573,13_10_1.csv
2018-07-11T13:01:40.777513,-0.046,-0.159,0.003,86.037,-55.61,-33.049,13_10_1.csv
2018-07-11T13:01:40.831156,-0.046,-0.159,0.003,19.146,-89.573,-83.232,13_10_1.csv
2018-07-11T13:01:40.881791,-0.437,-1.979,-0.026,-34.573,-94.512,-121.768,13_10_1.csv
2018-07-11T13:01:40.936436,-1.801,-4.463,0.508,-22.927,247.195,110.427,13_10_1.csv
2018-07-11T13:01:40.991085,-1.801,-4.463,0.508,5.549,137.134,44.207,13_10_1.csv
2018-07-11T13:01:41.054257,-0.376,-0.057,0.631,-47.378,1.524,-88.354,13_10_1.csv
2018-07-11T13:01:41.118431,0.317,0.767,0.204,-49.878,-24.39,-82.378,13_10_1.csv
2018-07-11T13:01:41.168568,0.144,-0.159,0.064,58.902,-8.902,10.732,13_10_1.csv
2018-07-11T13:01:41.224720,0.144,-0.159,0.064,109.39,31.098,9.878,13_10_1.csv
2018-07-11T13:01:41.272854,-0.061,-0.133,0.118,112.927,16.341,-15.915,13_10_1.csv
2018-07-11T13:01:41.317974,-0.061,-0.133,0.118,83.232,-7.317,-30.0,13_10_1.csv
2018-07-11T13:01:41.375133,-0.178,-0.76,0.424,34.695,-44.146,-53.049,13_10_1.csv
2018-07-11T13:01:41.425266,-0.883,-4.356,0.663,-108.902,3.415,17.805,13_10_1.csv
2018-07-11T13:01:41.512012,-0.177,-1.84,0.551,-128.659,-18.537,6.89,13_10_1.csv
2018-07-11T13:01:41.551116,-0.177,-1.84,0.551,75.061,88.659,21.707,13_10_1.csv
2018-07-11T13:01:41.601252,0.204,0.94,0.275,71.524,60.305,22.988,13_10_1.csv
2018-07-11T13:01:41.664922,0.18,0.059,-0.037,84.39,-36.402,43.841,13_10_1.csv
2018-07-11T13:01:41.716058,0.18,0.059,-0.037,78.293,-8.659,41.037,13_10_1.csv
2018-07-11T13:01:41.774715,0.002,-0.229,-0.042,7.378,-47.744,-29.878,13_10_1.csv
2018-07-11T13:01:41.820841,-0.049,-0.458,0.3,28.78,-42.927,-42.622,13_10_1.csv
2018-07-11T13:01:41.864959,-0.049,-0.458,0.3,27.744,-41.768,-61.524,13_10_1.csv
2018-07-11T13:01:41.915097,-0.4,-3.724,0.673,-109.451,-30.244,-63.232,13_10_1.csv
2018-07-11T13:01:41.959215,-0.4,-3.724,0.673,-124.634,29.756,45.854,13_10_1.csv
2018-07-11T13:01:42.013364,-0.58,-2.805,0.493,-46.768,42.683,31.951,13_10_1.csv
2018-07-11T13:01:42.065503,-0.079,0.803,0.561,67.378,116.585,24.756,13_10_1.csv
2018-07-11T13:01:42.112634,-0.079,0.803,0.561,34.634,48.354,6.28,13_10_1.csv
2018-07-11T13:01:42.160763,0.17,0.229,0.054,21.524,-47.317,4.756,13_10_1.csv
2018-07-11T13:01:42.210900,0.091,-0.31,-0.093,88.78,-6.89,35.122,13_10_1.csv
2018-07-11T13:01:42.257022,0.091,-0.31,-0.093,53.476,-20.427,-10.122,13_10_1.csv
2018-07-11T13:01:42.314676,-0.06,-0.241,0.122,24.756,-50.244,-39.146,13_10_1.csv
2018-07-11T13:01:42.364810,-0.06,-0.241,0.122,13.049,-73.537,-68.293,13_10_1.csv
2018-07-11T13:01:42.415446,0.15,-2.764,0.845,-8.232,-24.146,-2.744,13_10_1.csv
2018-07-11T13:01:42.458561,-0.308,-3.667,1.325,222.012,59.146,96.646,13_10_1.csv
2018-07-11T13:01:42.508695,-0.308,-3.667,1.325,362.561,110.61,70.976,13_10_1.csv
2018-07-11T13:01:42.572755,-0.545,0.798,0.526,-175.427,-12.073,-73.476,13_10_1.csv
2018-07-11T13:01:42.618879,0.105,0.608,-0.104,-140.61,-54.634,-38.78,13_10_1.csv
2018-07-11T13:01:42.676036,0.105,0.608,-0.104,-95.549,-15.427,12.5,13_10_1.csv
2018-07-11T13:01:42.722159,0.104,-0.274,-0.023,-22.134,22.012,55.061,13_10_1.csv
2018-07-11T13:01:42.772130,-0.413,-0.887,0.67,37.256,69.39,59.146,13_10_1.csv
2018-07-11T13:01:42.878417,-0.413,-0.887,0.67,19.634,-48.293,7.866,13_10_1.csv
2018-07-11T13:01:42.931563,-0.413,-0.887,0.67,-83.415,-103.598,-47.5,13_10_1.csv
2018-07-11T13:01:43.092998,-0.438,-1.038,0.746,-24.695,50.183,-13.659,13_10_1.csv
2018-07-11T13:01:43.145639,0.209,0.786,0.076,25.854,-2.317,15.488,13_10_1.csv
2018-07-11T13:01:43.191261,0.125,-0.111,-0.024,69.695,33.049,66.524,13_10_1.csv
2018-07-11T13:01:43.238888,0.125,-0.111,-0.024,66.098,44.024,60.427,13_10_1.csv
2018-07-11T13:01:43.288521,-0.04,-0.129,0.099,25.122,19.634,7.561,13_10_1.csv
2018-07-11T13:01:43.333644,-0.04,-0.129,0.099,-8.72,-7.5,-22.378,13_10_1.csv
2018-07-11T13:01:43.409349,-0.17,-0.582,0.43,39.878,-38.537,-8.902,13_10_1.csv
2018-07-11T13:01:43.457477,-1.712,-4.273,1.298,-88.72,14.634,-0.305,13_10_1.csv
2018-07-11T13:01:43.514131,-0.654,-1.568,0.866,-85.061,-63.11,-66.098,13_10_1.csv
2018-07-11T13:01:43.568278,-0.654,-1.568,0.866,-66.707,-6.585,-82.378,13_10_1.csv
2018-07-11T13:01:43.611396,0.286,1.018,0.25,-42.012,11.524,-31.402,13_10_1.csv
2018-07-11T13:01:43.659524,0.164,-0.105,-0.093,40.305,-18.902,43.049,13_10_1.csv
2018-07-11T13:01:43.712671,0.164,-0.105,-0.093,50.366,14.024,42.805,13_10_1.csv
2018-07-11T13:01:43.753781,-0.033,-0.259,0.058,65.183,13.171,9.512,13_10_1.csv
2018-07-11T13:01:43.802918,-0.033,-0.259,0.058,54.39,-2.378,-18.11,13_10_1.csv
2018-07-11T13:01:43.849040,-0.162,-0.322,0.609,59.268,-3.415,-22.256,13_10_1.csv
2018-07-11T13:01:43.897174,-0.162,-0.322,0.609,70.854,-31.524,-36.89,13_10_1.csv
2018-07-11T13:01:43.943298,-0.352,-3.19,1.513,3.171,37.195,-33.963,13_10_1.csv
2018-07-11T13:01:44.001459,-0.695,-2.8,1.165,-6.341,-3.902,-21.89,13_10_1.csv
2018-07-11T13:01:44.082177,-0.173,0.571,0.249,48.476,55.183,6.951,13_10_1.csv
2018-07-11T13:01:44.128803,-0.173,0.571,0.249,18.841,12.378,-3.72,13_10_1.csv
2018-07-11T13:01:44.177431,0.168,0.343,-0.166,-7.012,-19.085,4.634,13_10_1.csv
2018-07-11T13:01:44.284732,0.138,-0.084,-0.111,-49.573,-16.463,-23.78,13_10_1.csv
2018-07-11T13:01:44.336372,-0.004,-0.157,0.214,-60.366,-22.561,-25.366,13_10_1.csv
2018-07-11T13:01:44.389516,-0.264,-1.631,0.877,-9.207,-17.744,-18.659,13_10_1.csv
2018-07-11T13:01:44.447678,-0.264,-1.631,0.877,-166.463,57.256,-29.817,13_10_1.csv
2018-07-11T13:01:44.489791,-0.773,-4.437,0.808,-86.524,88.78,47.317,13_10_1.csv
2018-07-11T13:01:44.540931,-0.773,-4.437,0.808,-65.244,-44.512,22.683,13_10_1.csv
2018-07-11T13:01:44.585049,-0.078,-0.666,0.342,98.963,21.89,69.939,13_10_1.csv
2018-07-11T13:01:44.632178,0.24,0.904,0.016,49.268,-2.256,20.732,13_10_1.csv
2018-07-11T13:01:44.700361,0.24,0.904,0.016,44.451,2.195,43.171,13_10_1.csv
2018-07-11T13:01:44.756517,0.159,-0.112,-0.044,-31.585,1.28,10.122,13_10_1.csv
2018-07-11T13:01:44.801638,-0.052,-0.202,0.122,-67.439,-19.634,-36.159,13_10_1.csv
2018-07-11T13:01:44.849771,-0.052,-0.202,0.122,-59.878,-30.732,-40.915,13_10_1.csv
2018-07-11T13:01:44.898902,-0.588,-1.198,0.44,-69.39,-15.915,-59.329,13_10_1.csv
2018-07-11T13:01:44.943025,-0.964,-4.464,-0.122,-125.183,90.244,-2.073,13_10_1.csv
2018-07-11T13:01:45.004188,-0.964,-4.464,-0.122,35.732,-8.963,81.341,13_10_1.csv
2018-07-11T13:01:45.067359,0.073,-1.058,0.06,4.329,-9.329,-53.049,13_10_1.csv
2018-07-11T13:01:45.114987,0.328,0.93,0.141,-81.159,34.695,-130.244,13_10_1.csv
2018-07-11T13:01:45.161611,0.328,0.93,0.141,-68.049,86.585,-89.695,13_10_1.csv
2018-07-11T13:01:45.211243,-0.007,-0.049,-0.146,-5.488,60.61,-5.244,13_10_1.csv
2018-07-11T13:01:45.254860,-0.007,-0.049,-0.146,-28.049,38.171,-23.232,13_10_1.csv
2018-07-11T13:01:45.321037,-0.241,-0.13,0.179,-9.39,10.732,-27.317,13_10_1.csv
2018-07-11T13:01:45.364653,-0.056,-0.843,0.201,35.976,-20.305,17.378,13_10_1.csv
2018-07-11T13:01:45.415289,-0.056,-0.843,0.201,17.439,-2.134,-2.561,13_10_1.csv
2018-07-11T13:01:45.464921,0.313,-3.974,-0.558,-49.634,28.78,3.841,13_10_1.csv
2018-07-11T13:01:45.744968,0.045,-0.029,0.006,115.854,13.476,60.061,13_10_1.csv
2018-07-11T13:01:45.789590,-0.039,-0.154,-0.029,95.0,-9.146,-11.768,13_10_1.csv
2018-07-11T13:01:45.885351,-0.066,0.046,0.22,-20.793,-57.927,-93.537,13_10_1.csv
2018-07-11T13:01:45.994142,-0.187,-4.557,0.477,-116.402,1.098,37.561,13_10_1.csv
2018-07-11T13:01:46.040265,-0.187,-4.557,0.477,-56.28,43.476,5.732,13_10_1.csv
2018-07-11T13:01:46.083380,-0.224,0.129,0.546,34.329,63.171,-3.72,13_10_1.csv
2018-07-11T13:01:46.131009,-0.224,0.129,0.546,24.146,-11.098,-8.72,13_10_1.csv
2018-07-11T13:01:46.177133,0.18,0.795,0.014,49.329,-36.098,-11.098,13_10_1.csv
2018-07-11T13:01:46.244315,0.116,-0.395,-0.235,62.988,4.634,50.976,13_10_1.csv
2018-07-11T13:01:46.301969,0.116,-0.395,-0.235,19.39,20.061,-15.915,13_10_1.csv
2018-07-11T13:01:46.347591,-0.006,-0.11,-0.03,-68.354,-9.024,-69.817,13_10_1.csv
2018-07-11T13:01:46.427304,0.269,-1.297,0.353,-18.293,-10.915,-58.72,13_10_1.csv
2018-07-11T13:01:46.471923,0.588,-4.812,0.368,-24.024,-16.951,14.695,13_10_1.csv
2018-07-11T13:01:46.521054,0.588,-4.812,0.368,78.476,-22.622,-20.305,13_10_1.csv
2018-07-11T13:01:46.574196,0.051,-0.851,0.592,-9.695,-34.695,-74.39,13_10_1.csv
2018-07-11T13:01:46.629344,0.051,-0.851,0.592,27.622,41.707,-15.183,13_10_1.csv
2018-07-11T13:01:46.679477,-0.048,1.075,0.011,101.463,8.11,54.573,13_10_1.csv
2018-07-11T13:01:46.724097,0.128,-0.298,-0.239,177.378,29.451,89.146,13_10_1.csv
2018-07-11T13:01:46.774732,0.128,-0.298,-0.239,129.207,24.268,35.671,13_10_1.csv
2018-07-11T13:01:46.824364,-0.079,-0.236,0.063,6.22,-5.061,-38.902,13_10_1.csv
2018-07-11T13:01:46.876002,0.124,-0.306,0.665,36.098,-32.256,-41.341,13_10_1.csv
2018-07-11T13:01:46.963238,0.696,-3.568,1.637,-15.488,-24.268,53.841,13_10_1.csv
2018-07-11T13:01:47.008358,0.696,-3.568,1.637,-12.622,88.598,101.22,13_10_1.csv
2018-07-11T13:01:47.100608,-0.086,-2.153,0.893,-35.061,51.829,40.0,13_10_1.csv
2018-07-11T13:01:47.146734,-0.141,0.717,0.006,23.537,68.293,26.463,13_10_1.csv
2018-07-11T13:01:47.192857,-0.141,0.717,0.006,-7.317,-6.037,-7.927,13_10_1.csv
2018-07-11T13:01:47.253019,0.149,0.0,-0.166,94.451,-25.732,90.915,13_10_1.csv
2018-07-11T13:01:47.304155,0.016,-0.081,0.006,63.72,-6.768,52.195,13_10_1.csv
2018-07-11T13:01:47.364316,0.047,-0.162,0.297,-48.415,-15.915,-31.585,13_10_1.csv
2018-07-11T13:01:47.412444,0.047,-0.162,0.297,-12.683,-36.89,-48.902,13_10_1.csv
2018-07-11T13:01:47.458066,-0.002,-3.203,1.262,-61.646,-23.415,-64.451,13_10_1.csv
2018-07-11T13:01:47.509704,-0.002,-3.203,1.262,-100.671,49.756,14.634,13_10_1.csv
2018-07-11T13:01:47.577385,-0.079,-3.321,0.958,-122.012,-66.646,-0.244,13_10_1.csv
2018-07-11T13:01:47.628521,0.08,0.283,0.252,16.829,38.415,-2.5,13_10_1.csv
2018-07-11T13:01:47.681162,0.14,0.455,-0.067,55.061,41.037,-1.951,13_10_1.csv
2018-07-11T13:01:47.725781,0.14,0.455,-0.067,64.268,23.049,42.256,13_10_1.csv
2018-07-11T13:01:47.772406,0.094,-0.193,-0.053,92.195,23.659,50.671,13_10_1.csv
2018-07-11T13:01:47.818029,0.094,-0.193,-0.053,96.22,5.915,15.305,13_10_1.csv
2018-07-11T13:01:47.872678,-0.085,-0.305,0.331,63.841,-1.28,-15.671,13_10_1.csv
2018-07-11T13:01:47.925321,0.308,-2.453,0.665,-64.878,-29.817,-102.439,13_10_1.csv
2018-07-11T13:01:47.973452,0.308,-2.453,0.665,-219.817,-16.341,-155.244,13_10_1.csv
2018-07-11T13:01:48.020581,0.493,-3.655,0.438,-44.878,50.549,-54.878,13_10_1.csv
2018-07-11T13:01:48.064698,0.493,-3.655,0.438,42.439,25.244,24.695,13_10_1.csv
2018-07-11T13:01:48.117846,-0.366,-0.048,0.343,-4.756,90.915,23.537,13_10_1.csv
2018-07-11T13:01:48.166977,-0.116,0.725,-0.008,36.89,0.244,13.232,13_10_1.csv
2018-07-11T13:01:48.228143,-0.116,0.725,-0.008,-6.159,-53.415,5.915,13_10_1.csv
2018-07-11T13:01:48.327408,-0.044,-0.23,0.202,-105.0,-80.976,-3.659,13_10_1.csv
2018-07-11T13:01:48.381555,-0.044,-0.23,0.202,-22.866,-50.732,-1.22,13_10_1.csv
2018-07-11T13:01:48.431693,0.081,-1.073,0.19,28.415,-11.707,7.683,13_10_1.csv
2018-07-11T13:01:48.472803,0.081,-1.073,0.19,-180.61,-16.768,-7.256,13_10_1.csv
2018-07-11T13:01:48.530962,0.308,-5.278,-0.945,-100.122,-33.537,33.537,13_10_1.csv
2018-07-11T13:01:48.583102,0.121,-1.382,0.259,-14.268,70.305,14.939,13_10_1.csv
2018-07-11T13:01:48.630731,0.121,-1.382,0.259,157.5,88.232,56.707,13_10_1.csv
2018-07-11T13:01:48.678358,-0.07,1.063,0.326,171.342,-6.646,25.671,13_10_1.csv
2018-07-11T13:01:48.723481,0.021,-0.103,-0.094,49.573,-43.415,-1.585,13_10_1.csv
2018-07-11T13:01:48.818741,0.021,-0.103,-0.094,53.902,-33.841,-27.378,13_10_1.csv
2018-07-11T13:01:48.879906,0.021,-0.103,-0.094,19.146,-30.366,-52.683,13_10_1.csv
2018-07-11T13:01:48.931043,0.162,-0.764,0.287,-32.256,-13.293,-106.524,13_10_1.csv
2018-07-11T13:01:48.974158,0.624,-3.942,0.132,-93.902,-25.122,-42.439,13_10_1.csv
2018-07-11T13:01:49.083450,0.22,-1.909,0.333,-73.293,-70.488,60.366,13_10_1.csv
2018-07-11T13:01:49.130576,-0.03,0.634,0.466,70.427,33.11,40.915,13_10_1.csv
2018-07-11T13:01:49.192241,-0.03,0.634,0.466,37.317,38.78,21.037,13_10_1.csv
2018-07-11T13:01:49.240871,0.105,-0.106,-0.116,54.207,-7.5,40.976,13_10_1.csv
2018-07-11T13:01:49.303037,0.046,-0.187,-0.157,106.646,5.488,6.707,13_10_1.csv
2018-07-11T13:01:49.349661,0.046,-0.187,-0.157,10.427,0.488,-39.695,13_10_1.csv
2018-07-11T13:01:49.399294,-0.001,-0.095,0.265,-19.207,-5.915,-56.707,13_10_1.csv
2018-07-11T13:01:49.441907,-0.001,-0.095,0.265,-4.451,-1.89,-60.427,13_10_1.csv
2018-07-11T13:01:49.490036,0.249,-3.443,0.309,-160.427,-10.0,36.159,13_10_1.csv
2018-07-11T13:01:49.549698,0.405,-3.577,0.313,-186.22,-19.268,8.049,13_10_1.csv
2018-07-11T13:01:49.598330,0.405,-3.577,0.313,-126.281,31.951,-14.146,13_10_1.csv
2018-07-11T13:01:49.690077,-0.001,0.151,-0.08,-165.305,-19.39,-86.402,13_10_1.csv
2018-07-11T13:01:49.747235,-0.001,0.151,-0.08,35.061,-54.329,2.5,13_10_1.csv
2018-07-11T13:01:49.800378,0.233,-0.155,-0.291,176.585,-29.878,70.366,13_10_1.csv
2018-07-11T13:01:49.849008,0.137,0.357,0.048,58.598,43.598,-0.427,13_10_1.csv
2018-07-11T13:01:49.910673,0.137,0.357,0.048,-38.354,42.378,-40.122,13_10_1.csv
2018-07-11T13:01:49.977852,0.43,-2.026,-0.741,-260.732,73.598,-80.854,13_10_1.csv
2018-07-11T13:01:50.024979,0.63,-4.101,-1.465,-96.585,-16.341,-17.5,13_10_1.csv
2018-07-11T13:01:50.075155,0.63,-4.101,-1.465,130.915,-98.963,140.854,13_10_1.csv
2018-07-11T13:01:50.117267,-0.108,-0.09,0.278,408.537,-55.0,355.305,13_10_1.csv
2018-07-11T13:01:50.167405,-0.108,-0.09,0.278,17.683,8.78,101.463,13_10_1.csv
2018-07-11T13:01:50.223555,-0.077,0.018,0.287,36.829,-16.341,-14.817,13_10_1.csv
2018-07-11T13:01:50.274696,0.281,-0.375,-0.372,134.512,-76.585,11.037,13_10_1.csv
2018-07-11T13:01:50.335363,0.094,0.309,-0.011,358.415,-71.341,54.207,13_10_1.csv
2018-07-11T13:01:50.380985,0.094,0.309,-0.011,213.537,-45.671,25.061,13_10_1.csv
2018-07-11T13:01:50.430620,-0.054,-0.875,0.85,68.232,-11.951,-3.841,13_10_1.csv
2018-07-11T13:01:50.477247,-0.054,-0.875,0.85,-5.549,44.939,-32.988,13_10_1.csv
2018-07-11T13:01:50.537410,-0.964,-3.266,1.835,28.72,74.268,96.707,13_10_1.csv
2018-07-11T13:01:50.597573,-0.826,-0.921,1.411,-51.159,74.024,22.195,13_10_1.csv
2018-07-11T13:01:50.644701,-0.826,-0.921,1.411,-83.78,71.707,12.927,13_10_1.csv
2018-07-11T13:01:50.692832,0.174,0.271,0.17,-45.122,-28.049,-41.89,13_10_1.csv
2018-07-11T13:01:50.737955,0.174,0.271,0.17,11.341,-11.463,-37.744,13_10_1.csv
