time,accel_x_list,accel_y_list,accel_z_list,gyro_x_list,gyro_y_list,gyro_z_list,filename
2018-07-11T13:01:57.324375,-1.043,-0.465,-0.149,-1.098,-12.317,-33.415,13_10_2.csv
2018-07-11T13:01:57.363480,-1.043,-0.465,-0.149,-1.098,-12.317,-33.415,13_10_2.csv
2018-07-11T13:01:57.420172,-0.973,-0.541,-0.137,-46.646,-7.866,-52.622,13_10_2.csv
2018-07-11T13:01:57.475822,-0.973,-0.541,-0.137,-19.512,2.317,-67.866,13_10_2.csv
2018-07-11T13:01:57.524955,-0.975,-0.464,-0.036,2.073,6.402,-81.28,13_10_2.csv
2018-07-11T13:01:57.573588,-1.004,-0.387,0.021,17.744,12.134,-75.244,13_10_2.csv
2018-07-11T13:01:57.629238,-1.004,-0.387,0.021,20.732,2.927,-50.793,13_10_2.csv
2018-07-11T13:01:57.707950,-0.971,-0.402,0.027,12.073,9.146,-13.354,13_10_2.csv
2018-07-11T13:01:57.778638,-1.07,-0.498,-0.003,92.256,51.646,6.707,13_10_2.csv
2018-07-11T13:01:57.866372,-1.195,-0.264,-0.118,-18.232,-14.085,-36.463,13_10_2.csv
2018-07-11T13:01:57.909988,-0.4,-0.075,0.061,-133.659,-39.573,-62.805,13_10_2.csv
2018-07-11T13:01:57.959119,-0.4,-0.075,0.061,-187.5,-65.366,-21.341,13_10_2.csv
2018-07-11T13:01:58.004239,-0.044,-0.458,0.178,-170.0,-94.878,48.598,13_10_2.csv
2018-07-11T13:01:58.054874,-0.883,-0.763,0.196,-9.268,-44.268,116.159,13_10_2.csv
2018-07-11T13:01:58.106512,-0.883,-0.763,0.196,25.122,1.585,107.683,13_10_2.csv
2018-07-11T13:01:58.163664,-3.192,-1.089,-0.303,127.439,36.22,86.037,13_10_2.csv
2018-07-11T13:01:58.239367,-1.907,-0.81,-0.204,-137.988,-80.0,-122.012,13_10_2.csv
2018-07-11T13:01:58.287494,-1.907,-0.81,-0.204,-124.268,-50.0,-52.012,13_10_2.csv
2018-07-11T13:01:58.333118,0.401,-0.36,0.43,185.549,117.866,15.61,13_10_2.csv
2018-07-11T13:01:58.381247,0.013,0.115,-0.009,85.427,-4.146,-36.463,13_10_2.csv
2018-07-11T13:01:58.433392,0.013,0.115,-0.009,-26.341,-119.268,-89.268,13_10_2.csv
2018-07-11T13:01:58.487536,0.019,-0.083,-0.115,-76.28,-111.098,-130.671,13_10_2.csv
2018-07-11T13:01:58.540682,-0.068,-0.261,-0.041,-108.171,-73.049,-158.354,13_10_2.csv
2018-07-11T13:01:58.598839,-0.068,-0.261,-0.041,-37.866,-25.671,-148.537,13_10_2.csv
2018-07-11T13:01:58.651983,-2.335,-1.201,-0.172,128.72,66.524,-98.354,13_10_2.csv
2018-07-11T13:01:58.703122,-2.688,-2.552,-0.28,-195.488,-9.573,119.634,13_10_2.csv
2018-07-11T13:01:58.754258,-2.688,-2.552,-0.28,-166.22,25.549,184.329,13_10_2.csv
2018-07-11T13:01:58.801384,0.139,-0.815,0.9,157.866,216.22,208.963,13_10_2.csv
2018-07-11T13:01:58.849011,0.139,-0.815,0.9,163.537,164.573,80.854,13_10_2.csv
2018-07-11T13:01:58.895133,0.279,0.068,0.651,-25.183,-93.293,52.012,13_10_2.csv
2018-07-11T13:01:58.947272,0.024,-0.523,0.258,36.707,-62.134,43.537,13_10_2.csv
2018-07-11T13:01:59.016958,-0.336,-0.377,0.043,21.463,-53.963,-39.207,13_10_2.csv
2018-07-11T13:01:59.083636,-0.336,-0.377,0.043,-15.305,-112.073,-115.183,13_10_2.csv
2018-07-11T13:01:59.129260,-2.681,-0.934,-0.313,25.976,-121.829,-200.671,13_10_2.csv
2018-07-11T13:01:59.243569,-2.466,-1.19,-0.947,-583.476,-59.817,54.268,13_10_2.csv
2018-07-11T13:01:59.285682,0.392,-2.182,0.635,-74.695,33.232,341.89,13_10_2.csv
2018-07-11T13:01:59.349856,0.088,-0.315,0.637,246.89,116.768,135.305,13_10_2.csv
2018-07-11T13:01:59.409518,0.088,-0.315,0.637,47.927,13.476,67.195,13_10_2.csv
2018-07-11T13:01:59.458147,-0.198,-0.427,0.133,-48.78,-51.707,-86.159,13_10_2.csv
2018-07-11T13:01:59.503267,-0.477,-0.693,0.156,-26.341,-60.549,-178.598,13_10_2.csv
2018-07-11T13:01:59.552399,-0.477,-0.693,0.156,17.256,-35.427,-217.439,13_10_2.csv
2018-07-11T13:01:59.599524,-1.711,-0.723,0.078,133.049,-27.378,-213.476,13_10_2.csv
2018-07-11T13:01:59.647151,-1.711,-0.723,0.078,188.659,-83.049,-173.354,13_10_2.csv
2018-07-11T13:01:59.704304,-2.354,-1.292,-0.884,-211.646,-46.037,138.232,13_10_2.csv
2018-07-11T13:01:59.785520,-0.506,-1.587,-0.163,-43.171,67.256,199.207,13_10_2.csv
2018-07-11T13:01:59.832645,0.211,-0.305,0.381,274.268,155.0,131.402,13_10_2.csv
2018-07-11T13:01:59.896816,0.211,-0.305,0.381,190.183,78.659,27.317,13_10_2.csv
2018-07-11T13:01:59.944443,-0.035,-0.042,0.484,-10.122,57.256,-17.439,13_10_2.csv
2018-07-11T13:01:59.992572,-0.289,-0.48,0.645,17.5,34.268,-14.512,13_10_2.csv
2018-07-11T13:02:00.052231,-0.289,-0.48,0.645,108.354,34.939,-21.341,13_10_2.csv
2018-07-11T13:02:00.113393,-1.324,-0.236,0.34,106.89,-145.427,-40.488,13_10_2.csv
2018-07-11T13:02:00.197618,-3.07,-1.761,-0.329,-206.403,-44.573,81.646,13_10_2.csv
2018-07-11T13:02:00.243741,-1.099,-1.944,-0.041,-137.195,54.878,177.622,13_10_2.csv
2018-07-11T13:02:00.331475,0.292,0.216,0.458,148.232,117.134,54.085,13_10_2.csv
2018-07-11T13:02:00.380606,0.292,0.216,0.458,7.561,-14.39,-63.902,13_10_2.csv
2018-07-11T13:02:00.458313,0.072,0.05,0.281,-69.451,-55.122,-7.622,13_10_2.csv
2018-07-11T13:02:00.535018,-0.116,-0.323,0.386,29.756,-5.122,-17.988,13_10_2.csv
2018-07-11T13:02:00.646910,-2.742,-1.434,-0.346,80.183,-105.244,-102.622,13_10_2.csv
2018-07-11T13:02:00.698051,-2.742,-1.434,-0.346,34.146,32.744,10.244,13_10_2.csv
2018-07-11T13:02:00.741167,-2.305,-2.089,-0.09,-99.085,143.598,129.146,13_10_2.csv
2018-07-11T13:02:00.789299,-0.163,0.008,0.873,278.842,262.744,170.183,13_10_2.csv
2018-07-11T13:02:00.893579,0.164,0.364,0.561,-125.915,-51.402,-141.89,13_10_2.csv
2018-07-11T13:02:00.942710,0.164,0.364,0.561,-203.049,-90.305,-148.598,13_10_2.csv
2018-07-11T13:02:00.988833,0.066,-0.503,0.316,-0.732,-5.244,-10.488,13_10_2.csv
2018-07-11T13:02:01.036460,-0.266,-0.579,-0.134,103.354,-57.805,-0.793,13_10_2.csv
2018-07-11T13:02:01.145751,-2.077,-0.437,-0.401,113.354,-49.268,6.159,13_10_2.csv
2018-07-11T13:02:01.191874,-3.094,-1.836,-0.442,-100.0,-82.866,31.951,13_10_2.csv
2018-07-11T13:02:01.247021,-3.094,-1.836,-0.442,-154.268,-6.463,89.268,13_10_2.csv
2018-07-11T13:02:01.321720,-0.521,-0.913,0.689,103.842,137.073,-44.268,13_10_2.csv
2018-07-11T13:02:01.363832,0.31,0.366,0.586,-151.768,72.439,-148.659,13_10_2.csv
2018-07-11T13:02:01.427502,0.31,0.366,0.586,-197.561,3.354,-90.0,13_10_2.csv
2018-07-11T13:02:01.473625,-0.021,-0.41,0.218,68.049,-42.866,13.171,13_10_2.csv
2018-07-11T13:02:01.523759,-0.189,-0.217,0.18,109.024,-38.476,17.5,13_10_2.csv
2018-07-11T13:02:01.581412,-0.189,-0.217,0.18,74.146,-52.134,-15.305,13_10_2.csv
2018-07-11T13:02:01.631044,-1.233,-0.594,0.027,132.805,-34.695,-24.756,13_10_2.csv
2018-07-11T13:02:01.678671,-3.322,-1.524,-0.431,81.037,17.805,69.024,13_10_2.csv
2018-07-11T13:02:01.728807,-3.322,-1.524,-0.431,-181.463,-1.341,69.634,13_10_2.csv
2018-07-11T13:02:01.772925,-1.076,-1.668,0.437,-172.805,29.451,75.793,13_10_2.csv
2018-07-11T13:02:01.823062,-1.076,-1.668,0.437,62.256,128.537,97.683,13_10_2.csv
2018-07-11T13:02:02.020599,-0.141,-0.425,0.187,79.939,-25.305,-4.207,13_10_2.csv
2018-07-11T13:02:02.069730,-0.141,-0.425,0.187,114.451,-36.707,-14.451,13_10_2.csv
2018-07-11T13:02:02.175014,-2.451,-1.408,-0.237,56.646,-37.439,-129.146,13_10_2.csv
2018-07-11T13:02:02.225150,-2.451,-1.408,-0.237,-84.878,74.573,-30.915,13_10_2.csv
2018-07-11T13:02:02.270271,-1.942,-2.253,-0.027,-151.707,138.476,107.439,13_10_2.csv
2018-07-11T13:02:02.317399,-0.168,-0.148,0.682,148.171,79.695,62.195,13_10_2.csv
2018-07-11T13:02:02.368536,-0.168,-0.148,0.682,-10.549,-21.22,-106.402,13_10_2.csv
2018-07-11T13:02:02.448753,0.18,0.057,0.435,-20.305,-2.744,-64.085,13_10_2.csv
2018-07-11T13:02:02.490367,-0.037,-0.224,0.227,50.732,-10.915,-6.28,13_10_2.csv
2018-07-11T13:02:02.536993,-0.037,-0.224,0.227,82.195,-34.756,-11.463,13_10_2.csv
2018-07-11T13:02:02.588132,-0.138,-0.233,0.155,78.78,-59.146,-45.427,13_10_2.csv
2018-07-11T13:02:02.631250,-0.138,-0.233,0.155,86.89,-64.329,-76.585,13_10_2.csv
2018-07-11T13:02:02.687401,-1.537,-1.239,-0.082,2.012,1.768,-38.11,13_10_2.csv
2018-07-11T13:02:02.758090,-2.586,-2.509,-0.248,-203.171,35.122,134.817,13_10_2.csv
2018-07-11T13:02:02.802709,-0.631,-1.052,0.788,-47.378,101.342,171.403,13_10_2.csv
2018-07-11T13:02:02.849834,-0.631,-1.052,0.788,150.0,125.366,88.11,13_10_2.csv
2018-07-11T13:02:02.895455,0.243,0.392,0.604,63.78,35.915,-29.634,13_10_2.csv
2018-07-11T13:02:02.946090,0.243,0.392,0.604,-87.317,-45.427,-57.561,13_10_2.csv
2018-07-11T13:02:02.994721,0.172,-0.271,0.334,-73.72,-42.5,-30.61,13_10_2.csv
2018-07-11T13:02:03.086465,-0.033,-0.295,-0.059,53.841,-127.561,-39.756,13_10_2.csv
2018-07-11T13:02:03.149134,-0.765,-0.907,-0.048,-9.268,-125.549,-108.11,13_10_2.csv
2018-07-11T13:02:03.207291,-2.587,-2.862,0.21,-6.768,80.671,-28.598,13_10_2.csv
2018-07-11T13:02:03.322403,-0.51,-2.125,0.258,-322.256,95.305,-109.39,13_10_2.csv
2018-07-11T13:02:03.363512,0.245,-0.19,0.338,-94.146,202.012,-105.976,13_10_2.csv
2018-07-11T13:02:03.415654,0.245,-0.19,0.338,73.659,170.915,-47.012,13_10_2.csv
2018-07-11T13:02:03.461779,-0.05,0.364,0.217,73.049,64.085,-29.756,13_10_2.csv
2018-07-11T13:02:03.509408,-0.05,0.364,0.217,81.037,2.866,-24.634,13_10_2.csv
2018-07-11T13:02:03.631733,-0.493,-0.799,0.041,297.744,18.72,22.5,13_10_2.csv
2018-07-11T13:02:03.696908,-1.589,-1.769,0.064,119.573,-12.622,-52.988,13_10_2.csv
2018-07-11T13:02:03.744033,-1.589,-1.769,0.064,-117.561,-132.317,35.61,13_10_2.csv
2018-07-11T13:02:03.799683,-0.669,-2.679,0.109,-218.232,-150.0,188.049,13_10_2.csv
2018-07-11T13:02:03.855833,0.183,-0.627,0.638,-32.744,107.012,154.451,13_10_2.csv
2018-07-11T13:02:03.893939,0.183,-0.627,0.638,-2.866,99.024,108.11,13_10_2.csv
2018-07-11T13:02:03.948084,0.219,0.042,0.326,-8.354,32.5,59.024,13_10_2.csv
2018-07-11T13:02:03.994212,0.219,0.042,0.326,-40.183,-15.183,18.171,13_10_2.csv
2018-07-11T13:02:04.037326,0.02,-0.393,0.257,-24.39,-5.488,22.134,13_10_2.csv
2018-07-11T13:02:04.087465,-0.142,-0.58,0.104,59.817,-36.098,5.427,13_10_2.csv
2018-07-11T13:02:04.144618,-0.142,-0.58,0.104,106.89,-41.037,-33.354,13_10_2.csv
2018-07-11T13:02:04.190745,-1.854,-2.307,0.044,97.134,-25.671,-89.817,13_10_2.csv
2018-07-11T13:02:04.307062,-1.927,-3.034,0.166,-36.951,84.695,-6.341,13_10_2.csv
2018-07-11T13:02:04.348171,-0.153,0.035,0.398,76.89,159.573,-51.951,13_10_2.csv
2018-07-11T13:02:04.399312,-0.153,0.035,0.398,87.683,88.963,-75.122,13_10_2.csv
2018-07-11T13:02:04.500084,0.125,0.108,0.097,111.463,-0.915,-42.866,13_10_2.csv
2018-07-11T13:02:04.550718,0.125,0.108,0.097,64.085,43.476,-3.72,13_10_2.csv
2018-07-11T13:02:04.612764,-0.153,-0.044,0.146,-5.305,13.841,-23.415,13_10_2.csv
2018-07-11T13:02:04.684953,-1.235,-1.942,0.475,39.817,26.768,-23.78,13_10_2.csv
2018-07-11T13:02:04.743108,-1.236,-4.098,0.51,-70.366,-92.256,123.476,13_10_2.csv
2018-07-11T13:02:04.802271,-1.236,-4.098,0.51,-42.927,-49.39,125.549,13_10_2.csv
2018-07-11T13:02:04.872961,0.018,-0.452,0.451,-12.622,46.22,-33.415,13_10_2.csv
2018-07-11T13:02:04.930617,0.303,0.749,0.219,27.378,-62.317,-8.293,13_10_2.csv
2018-07-11T13:02:04.973734,0.185,0.013,0.237,3.72,-49.573,20.183,13_10_2.csv
2018-07-11T13:02:05.028883,0.185,0.013,0.237,36.707,-2.5,54.695,13_10_2.csv
2018-07-11T13:02:05.082028,-0.115,-0.043,0.208,83.354,8.78,95.488,13_10_2.csv
2018-07-11T13:02:05.129155,-1.585,-0.53,-0.006,23.232,-30.976,48.476,13_10_2.csv
2018-07-11T13:02:05.255496,-3.343,-2.572,-0.63,-386.463,-127.256,209.695,13_10_2.csv
2018-07-11T13:02:05.305635,-0.877,-1.955,0.779,-183.171,167.012,295.671,13_10_2.csv
2018-07-11T13:02:05.356771,-0.877,-1.955,0.779,-5.305,180.366,221.585,13_10_2.csv
2018-07-11T13:02:05.412926,0.588,-0.686,0.698,-88.232,-91.768,14.329,13_10_2.csv
2018-07-11T13:02:05.458046,0.32,-0.899,0.252,16.951,-6.402,32.256,13_10_2.csv
2018-07-11T13:02:05.506678,0.32,-0.899,0.252,57.012,3.293,-22.195,13_10_2.csv
2018-07-11T13:02:05.582881,-0.197,-0.461,0.152,39.146,-42.012,-126.768,13_10_2.csv
2018-07-11T13:02:05.630508,-1.319,-0.858,-0.227,83.415,-76.159,-158.842,13_10_2.csv
2018-07-11T13:02:05.681143,-1.319,-0.858,-0.227,116.463,-88.11,-191.829,13_10_2.csv
2018-07-11T13:02:05.729271,-2.754,-2.003,-0.587,-149.695,45.732,-9.085,13_10_2.csv
2018-07-11T13:02:05.785922,-1.155,-1.593,0.476,26.585,225.976,129.878,13_10_2.csv
2018-07-11T13:02:05.836059,-1.155,-1.593,0.476,222.927,252.317,75.793,13_10_2.csv
2018-07-11T13:02:05.885190,-0.016,0.701,0.563,85.854,71.28,-59.817,13_10_2.csv
2018-07-11T13:02:05.947360,0.106,-0.031,0.395,-121.281,-39.39,-134.329,13_10_2.csv
2018-07-11T13:02:06.052215,-0.083,0.083,0.239,29.756,9.146,-2.256,13_10_2.csv
2018-07-11T13:02:06.099343,-0.311,-0.261,0.083,12.866,-31.463,-38.659,13_10_2.csv
2018-07-11T13:02:06.146471,-0.311,-0.261,0.083,50.427,-32.317,-37.378,13_10_2.csv
2018-07-11T13:02:06.198111,-2.525,-3.083,-0.14,81.829,-29.878,26.524,13_10_2.csv
2018-07-11T13:02:06.287852,-1.493,-2.614,0.012,-190.915,-105.976,98.598,13_10_2.csv
2018-07-11T13:02:06.332473,0.381,0.091,0.576,42.683,94.268,-33.659,13_10_2.csv
2018-07-11T13:02:06.395140,0.381,0.091,0.576,53.659,96.89,-50.61,13_10_2.csv
2018-07-11T13:02:06.444271,0.272,0.305,0.232,65.366,24.573,-22.256,13_10_2.csv
2018-07-11T13:02:06.488389,0.272,0.305,0.232,81.768,-20.366,-6.098,13_10_2.csv
2018-07-11T13:02:06.535014,0.067,0.003,0.022,-18.232,-53.537,-51.22,13_10_2.csv
2018-07-11T13:02:06.591666,0.088,-0.183,-0.007,12.805,-53.354,-50.793,13_10_2.csv
2018-07-11T13:02:06.646314,0.088,-0.183,-0.007,36.768,-32.927,-54.634,13_10_2.csv
2018-07-11T13:02:06.695949,-1.708,-1.757,0.011,16.159,52.805,66.037,13_10_2.csv
2018-07-11T13:02:06.745583,-2.325,-3.913,0.005,-198.049,-17.805,114.512,13_10_2.csv
2018-07-11T13:02:06.790202,-2.325,-3.913,0.005,-197.744,28.476,-0.61,13_10_2.csv
2018-07-11T13:02:06.851867,-0.149,-0.231,0.745,-25.671,127.683,-29.207,13_10_2.csv
2018-07-11T13:02:06.935590,0.458,0.608,0.316,3.415,-61.402,-39.573,13_10_2.csv
2018-07-11T13:02:06.997254,0.008,-0.185,0.196,131.098,80.61,94.756,13_10_2.csv
2018-07-11T13:02:07.035857,0.008,-0.185,0.196,161.159,87.195,96.463,13_10_2.csv
2018-07-11T13:02:07.083484,-0.186,-0.117,0.211,101.829,19.878,46.22,13_10_2.csv
2018-07-11T13:02:07.130609,-0.186,-0.117,0.211,38.415,-60.61,-10.61,13_10_2.csv
2018-07-11T13:02:07.184253,-1.748,-1.665,0.426,34.146,-52.744,-36.22,13_10_2.csv
2018-07-11T13:02:07.239900,-2.69,-3.349,0.354,-32.073,-164.512,126.951,13_10_2.csv
2018-07-11T13:02:07.285522,-2.69,-3.349,0.354,-150.488,-170.122,16.951,13_10_2.csv
2018-07-11T13:02:07.332648,0.337,-0.124,0.618,51.89,110.366,-27.744,13_10_2.csv
2018-07-11T13:02:07.585949,-0.252,-0.671,0.034,137.439,-63.659,6.402,13_10_2.csv
2018-07-11T13:02:07.629065,-1.011,-0.988,0.074,135.549,-28.415,-41.463,13_10_2.csv
2018-07-11T13:02:07.697249,-1.011,-0.988,0.074,94.207,46.22,-58.902,13_10_2.csv
2018-07-11T13:02:07.749392,-2.58,-2.476,0.164,-179.756,-20.427,191.707,13_10_2.csv
2018-07-11T13:02:07.800528,-0.672,-1.705,0.664,-219.024,34.024,191.768,13_10_2.csv
2018-07-11T13:02:07.864244,0.371,-0.099,0.783,16.098,109.085,27.622,13_10_2.csv
2018-07-11T13:02:07.931425,0.371,-0.099,0.783,-23.476,1.524,16.341,13_10_2.csv
2018-07-11T13:02:07.973540,0.173,-0.41,0.306,-33.537,-53.171,17.683,13_10_2.csv
2018-07-11T13:02:08.027185,-0.137,-0.447,0.109,119.268,1.22,1.098,13_10_2.csv
2018-07-11T13:02:08.099880,-0.137,-0.447,0.109,91.037,-45.549,-60.549,13_10_2.csv
2018-07-11T13:02:08.191126,-2.596,-2.214,-0.232,22.988,19.146,-75.122,13_10_2.csv
2018-07-11T13:02:08.243766,-2.596,-2.214,-0.232,-130.427,-55.366,91.89,13_10_2.csv
2018-07-11T13:02:08.318466,-0.95,-1.85,0.063,-187.683,8.902,31.951,13_10_2.csv
2018-07-11T13:02:08.362585,0.476,-0.087,0.474,-27.012,102.134,-40.915,13_10_2.csv
2018-07-11T13:02:08.411716,0.476,-0.087,0.474,12.134,85.732,-46.098,13_10_2.csv
2018-07-11T13:02:08.461856,0.193,-0.053,0.355,23.963,53.476,5.0,13_10_2.csv
2018-07-11T13:02:08.505973,-0.086,-0.312,0.354,158.537,41.89,26.463,13_10_2.csv
2018-07-11T13:02:08.569146,-0.086,-0.312,0.354,143.72,-8.963,-17.866,13_10_2.csv
2018-07-11T13:02:08.661895,-0.638,-1.041,0.788,130.244,-49.695,-112.5,13_10_2.csv
2018-07-11T13:02:08.713031,-1.946,-3.242,0.855,264.817,-56.098,32.744,13_10_2.csv
2018-07-11T13:02:08.815807,-1.158,-1.604,0.591,-40.915,-66.585,-38.476,13_10_2.csv
2018-07-11T13:02:08.885995,0.239,0.848,-0.115,-38.537,5.0,-90.549,13_10_2.csv
2018-07-11T13:02:08.951173,0.099,0.422,-0.16,-76.707,29.573,9.573,13_10_2.csv
2018-07-11T13:02:09.007324,-0.049,-0.021,0.117,-47.073,59.207,41.463,13_10_2.csv
2018-07-11T13:02:09.051443,-0.049,-0.021,0.117,-18.902,48.902,50.976,13_10_2.csv
2018-07-11T13:02:09.179790,-0.92,-2.345,0.874,-66.463,-54.207,-19.756,13_10_2.csv
2018-07-11T13:02:09.226922,-0.92,-2.345,0.874,-2.256,-47.073,39.573,13_10_2.csv
2018-07-11T13:02:09.283072,-1.69,-4.223,1.665,-62.439,49.695,27.927,13_10_2.csv
2018-07-11T13:02:09.332209,-0.124,0.147,0.686,-38.415,9.817,-42.195,13_10_2.csv
2018-07-11T13:02:09.379335,-0.124,0.147,0.686,-73.415,-21.707,-96.768,13_10_2.csv
2018-07-11T13:02:09.444513,0.311,0.883,-0.036,20.122,-16.829,10.488,13_10_2.csv
2018-07-11T13:02:09.487628,-0.021,-0.108,-0.107,25.427,28.415,56.037,13_10_2.csv
2018-07-11T13:02:09.534758,-0.021,-0.108,-0.107,62.561,50.488,53.659,13_10_2.csv
2018-07-11T13:02:09.607454,-0.157,-0.069,0.045,19.939,-12.134,-5.976,13_10_2.csv
2018-07-11T13:02:09.664107,-0.776,-1.463,0.476,6.28,-34.085,-51.524,13_10_2.csv
2018-07-11T13:02:09.707726,-0.776,-1.463,0.476,-107.195,-24.878,-78.415,13_10_2.csv
2018-07-11T13:02:09.755355,-1.702,-4.397,0.229,-208.842,-57.988,-83.902,13_10_2.csv
2018-07-11T13:02:09.836575,-0.024,-0.931,0.469,-26.098,32.073,-77.256,13_10_2.csv
2018-07-11T13:02:09.880693,0.26,0.969,0.481,49.329,88.232,-38.476,13_10_2.csv
2018-07-11T13:02:09.932836,0.26,0.969,0.481,56.28,68.598,2.317,13_10_2.csv
2018-07-11T13:02:09.995002,-0.017,-0.245,-0.035,168.781,74.817,49.756,13_10_2.csv
2018-07-11T13:02:10.053162,-0.142,-0.205,0.014,135.549,62.256,-1.829,13_10_2.csv
2018-07-11T13:02:10.100287,-0.142,-0.205,0.014,50.183,12.012,-51.098,13_10_2.csv
2018-07-11T13:02:10.207075,-0.144,-3.663,0.233,-202.012,-31.159,-66.829,13_10_2.csv
2018-07-11T13:02:10.277262,-0.27,-2.33,0.063,-188.049,-44.878,44.451,13_10_2.csv
2018-07-11T13:02:10.334414,-0.27,-2.33,0.063,8.902,25.122,44.39,13_10_2.csv
2018-07-11T13:02:10.380537,-0.077,0.604,0.348,217.622,80.671,62.439,13_10_2.csv
2018-07-11T13:02:10.424654,-0.077,0.604,0.348,61.28,10.793,-0.061,13_10_2.csv
2018-07-11T13:02:10.474788,0.177,0.182,-0.055,59.573,-33.049,6.646,13_10_2.csv
2018-07-11T13:02:10.522917,0.043,-0.214,-0.033,92.195,-6.89,2.866,13_10_2.csv
2018-07-11T13:02:10.567536,0.043,-0.214,-0.033,46.402,-10.183,-42.195,13_10_2.csv
2018-07-11T13:02:10.623184,-0.206,-0.686,0.305,-0.549,-23.598,-86.28,13_10_2.csv
2018-07-11T13:02:10.680837,0.007,-3.163,0.05,-64.39,-87.5,-106.342,13_10_2.csv
2018-07-11T13:02:10.722449,0.007,-3.163,0.05,-83.841,-160.244,65.976,13_10_2.csv
2018-07-11T13:02:10.784113,0.603,-3.106,0.139,-73.72,-26.098,105.122,13_10_2.csv
2018-07-11T13:02:10.832743,0.603,-3.106,0.139,39.878,150.976,82.744,13_10_2.csv
2018-07-11T13:02:10.945543,0.216,0.239,0.112,-28.841,-10.854,-44.634,13_10_2.csv
2018-07-11T13:02:10.991164,0.216,0.239,0.112,57.5,32.5,17.317,13_10_2.csv
2018-07-11T13:02:11.035283,-0.019,-0.216,-0.1,101.463,51.524,23.171,13_10_2.csv
2018-07-11T13:02:11.080906,-0.22,-0.296,0.134,-23.11,4.634,-67.439,13_10_2.csv
2018-07-11T13:02:11.131039,-0.22,-0.296,0.134,-42.622,2.622,-99.817,13_10_2.csv
2018-07-11T13:02:11.176164,0.551,-3.039,-0.045,-96.22,-23.537,-123.537,13_10_2.csv
2018-07-11T13:02:11.222288,0.551,-3.039,-0.045,-99.39,-45.183,-23.902,13_10_2.csv
2018-07-11T13:02:11.278441,0.57,-3.419,-0.319,-55.488,29.024,40.244,13_10_2.csv
2018-07-11T13:02:11.347628,-0.199,0.51,0.354,9.512,76.22,45.0,13_10_2.csv
2018-07-11T13:02:11.396257,-0.199,0.51,0.354,-29.695,-8.171,-8.78,13_10_2.csv
2018-07-11T13:02:11.443383,0.076,0.388,0.169,-48.598,66.768,46.829,13_10_2.csv
2018-07-11T13:02:11.526103,-0.041,-0.261,0.142,62.988,-3.171,6.524,13_10_2.csv
2018-07-11T13:02:11.570221,-0.125,-0.146,0.042,28.841,-49.024,-28.476,13_10_2.csv
2018-07-11T13:02:11.632888,-0.125,-0.146,0.042,50.976,-72.317,-42.256,13_10_2.csv
2018-07-11T13:02:11.677006,0.201,-1.897,0.059,34.817,-75.427,-86.159,13_10_2.csv
2018-07-11T13:02:11.722126,1.13,-3.933,-0.542,21.098,-56.829,40.488,13_10_2.csv
2018-07-11T13:02:11.779780,1.13,-3.933,-0.542,59.817,-13.232,115.854,13_10_2.csv
2018-07-11T13:02:11.830918,0.245,-1.177,0.074,-12.439,85.61,62.927,13_10_2.csv
2018-07-11T13:02:11.880049,0.245,-1.177,0.074,15.488,131.768,42.988,13_10_2.csv
2018-07-11T13:02:11.942219,-0.017,0.659,0.349,58.78,42.988,17.805,13_10_2.csv
2018-07-11T13:02:11.993355,0.033,0.032,-0.118,68.902,41.768,50.0,13_10_2.csv
2018-07-11T13:02:12.034968,0.033,0.032,-0.118,41.707,11.707,11.28,13_10_2.csv
2018-07-11T13:02:12.082597,-0.014,-0.181,-0.098,17.317,5.488,-36.341,13_10_2.csv
2018-07-11T13:02:12.128720,-0.152,-0.435,0.269,46.707,14.817,-30.671,13_10_2.csv
2018-07-11T13:02:12.231999,0.575,-2.659,0.217,-41.646,-77.622,-90.122,13_10_2.csv
2018-07-11T13:02:12.316226,1.161,-3.624,-0.484,-91.707,-104.756,3.171,13_10_2.csv
2018-07-11T13:02:12.383405,-0.243,0.041,0.35,44.878,86.951,39.024,13_10_2.csv
2018-07-11T13:02:12.431536,-0.243,0.041,0.35,44.878,32.134,12.805,13_10_2.csv
2018-07-11T13:02:12.473648,-0.118,0.639,0.194,10.305,-33.902,-14.878,13_10_2.csv
2018-07-11T13:02:12.603002,0.113,-0.133,-0.139,22.256,3.11,20.244,13_10_2.csv
2018-07-11T13:02:12.734852,0.354,-1.224,0.119,-142.073,-19.451,-80.976,13_10_2.csv
2018-07-11T13:02:12.791002,1.093,-4.267,-0.503,-57.805,-3.354,-6.463,13_10_2.csv
2018-07-11T13:02:13.085290,0.042,0.112,0.024,37.622,-4.085,43.354,13_10_2.csv
2018-07-11T13:02:13.147456,0.004,-0.095,-0.039,-41.341,-34.634,-27.134,13_10_2.csv
2018-07-11T13:02:13.193584,-0.005,-0.381,0.198,-28.659,-36.159,-32.805,13_10_2.csv
2018-07-11T13:02:13.238705,-0.005,-0.381,0.198,14.512,-9.329,-36.463,13_10_2.csv
2018-07-11T13:02:13.305888,1.08,-3.007,-0.133,-68.476,3.598,-24.329,13_10_2.csv
2018-07-11T13:02:13.470830,-0.486,-0.027,0.331,161.281,-30.0,67.988,13_10_2.csv
2018-07-11T13:02:13.566585,-0.144,0.555,0.278,87.927,-41.463,16.402,13_10_2.csv
2018-07-11T13:02:13.615215,0.176,-0.134,-0.293,304.329,-19.451,159.939,13_10_2.csv
2018-07-11T13:02:13.660837,-0.09,0.25,0.115,299.939,43.232,157.012,13_10_2.csv
2018-07-11T13:02:13.708463,-0.09,0.25,0.115,97.805,38.537,105.305,13_10_2.csv
2018-07-11T13:02:13.764112,-0.705,-0.817,0.893,6.341,4.634,57.073,13_10_2.csv
2018-07-11T13:02:13.820762,-2.233,-1.883,1.042,-54.634,73.598,156.402,13_10_2.csv
2018-07-11T13:02:13.869894,-2.233,-1.883,1.042,-335.183,29.329,215.0,13_10_2.csv
2018-07-11T13:02:13.990716,-0.207,-0.257,0.64,-116.281,147.5,129.207,13_10_2.csv
2018-07-11T13:02:14.037841,-0.207,-0.257,0.64,-199.329,-50.549,37.866,13_10_2.csv
2018-07-11T13:02:14.088476,0.254,-0.632,0.307,-189.329,-113.049,37.5,13_10_2.csv
2018-07-11T13:02:14.135602,0.126,-0.644,0.219,20.549,-43.659,20.732,13_10_2.csv
2018-07-11T13:02:14.194260,0.126,-0.644,0.219,-8.293,-57.927,-48.171,13_10_2.csv
2018-07-11T13:02:14.304051,-3.579,-1.93,0.144,218.72,-22.988,-92.073,13_10_2.csv
2018-07-11T13:02:14.353183,-3.579,-1.93,0.144,132.561,-71.402,37.927,13_10_2.csv
2018-07-11T13:02:14.399305,-1.515,-1.163,0.729,-47.195,-35.366,-28.232,13_10_2.csv
2018-07-11T13:02:14.456958,0.378,0.753,0.289,31.524,54.695,-171.342,13_10_2.csv
2018-07-11T13:02:14.524639,0.378,0.753,0.289,35.183,-8.293,-133.659,13_10_2.csv
2018-07-11T13:02:14.570764,0.052,0.367,0.275,40.488,29.878,-76.22,13_10_2.csv
2018-07-11T13:02:14.629924,-0.202,0.123,0.154,32.683,46.768,14.939,13_10_2.csv
2018-07-11T13:02:14.682065,-0.202,0.123,0.154,-5.061,-7.988,1.463,13_10_2.csv
2018-07-11T13:02:14.739221,-0.354,0.098,0.048,-14.085,-69.39,-13.476,13_10_2.csv
2018-07-11T13:02:14.786349,-2.725,-1.606,0.362,-11.585,-48.415,10.122,13_10_2.csv
2018-07-11T13:02:14.849521,-2.725,-1.606,0.362,-93.537,-34.085,101.646,13_10_2.csv
2018-07-11T13:02:14.915698,-2.382,-2.774,0.579,-255.0,43.354,155.183,13_10_2.csv
2018-07-11T13:02:14.962828,0.345,-0.548,0.624,-245.183,39.695,97.378,13_10_2.csv
2018-07-11T13:02:15.028005,0.328,-0.372,0.13,34.939,-18.11,79.695,13_10_2.csv
2018-07-11T13:02:15.086163,0.328,-0.372,0.13,88.598,-30.366,54.207,13_10_2.csv
2018-07-11T13:02:15.148333,-0.174,-0.532,0.046,23.415,50.183,-20.549,13_10_2.csv
2018-07-11T13:02:15.198466,-0.311,-0.42,0.093,79.939,53.293,-53.537,13_10_2.csv
2018-07-11T13:02:15.291719,-1.875,-0.62,-0.127,223.415,59.634,-72.988,13_10_2.csv
2018-07-11T13:02:15.342356,-2.411,-1.91,-0.9,-95.427,-20.976,3.841,13_10_2.csv
2018-07-11T13:02:15.438617,-0.984,-1.126,0.279,12.317,157.256,66.402,13_10_2.csv
2018-07-11T13:02:15.489252,-0.984,-1.126,0.279,166.342,105.488,-11.463,13_10_2.csv
2018-07-11T13:02:15.536378,-0.216,0.535,0.503,46.585,-45.549,-134.39,13_10_2.csv
2018-07-11T13:02:15.618095,0.073,0.111,0.181,-40.427,-127.805,-160.488,13_10_2.csv
2018-07-11T13:02:15.662714,-0.04,-0.164,0.043,-3.841,3.049,-36.646,13_10_2.csv
2018-07-11T13:02:15.712346,-0.04,-0.164,0.043,100.976,16.768,-20.122,13_10_2.csv
2018-07-11T13:02:15.772006,-0.693,-0.313,0.09,153.049,7.988,-13.659,13_10_2.csv
2018-07-11T13:02:15.864753,-2.573,-1.709,-0.965,-325.366,-27.012,88.354,13_10_2.csv
2018-07-11T13:02:15.911377,-1.8,-2.419,-0.24,-208.171,-90.61,191.524,13_10_2.csv
2018-07-11T13:02:15.960007,-1.8,-2.419,-0.24,18.598,31.463,146.89,13_10_2.csv
2018-07-11T13:02:16.006631,0.157,-0.279,0.889,45.549,38.415,12.256,13_10_2.csv
2018-07-11T13:02:16.053757,0.157,-0.279,0.889,-70.915,-30.183,-54.39,13_10_2.csv
2018-07-11T13:02:16.099879,0.305,-0.347,0.417,-120.061,-73.11,-32.195,13_10_2.csv
2018-07-11T13:02:16.201651,0.04,-0.394,0.175,87.073,-32.5,-26.159,13_10_2.csv
2018-07-11T13:02:16.304927,-1.924,-1.945,-0.248,108.171,-15.488,-89.817,13_10_2.csv
2018-07-11T13:02:16.349545,-1.924,-1.945,-0.248,58.902,5.61,-13.049,13_10_2.csv
2018-07-11T13:02:16.396169,-2.342,-2.459,-0.28,-66.951,-6.89,24.512,13_10_2.csv
2018-07-11T13:02:16.460841,-2.342,-2.459,-0.28,-141.402,16.585,-9.207,13_10_2.csv
2018-07-11T13:02:16.562613,0.075,0.55,0.274,26.646,24.451,-45.183,13_10_2.csv
2018-07-11T13:02:16.630794,0.015,-0.075,0.08,11.89,-32.378,-22.195,13_10_2.csv
2018-07-11T13:02:16.677920,0.015,-0.075,0.08,14.207,10.732,-21.037,13_10_2.csv
2018-07-11T13:02:16.730059,-0.052,-0.12,0.098,23.598,-4.573,-21.829,13_10_2.csv
2018-07-11T13:02:16.775681,-0.052,-0.12,0.098,24.939,-40.732,-30.793,13_10_2.csv
2018-07-11T13:02:16.838853,-0.549,-0.598,0.057,46.22,-31.037,-39.39,13_10_2.csv
2018-07-11T13:02:16.887984,-2.218,-3.039,0.148,-79.756,-16.28,-13.78,13_10_2.csv
2018-07-11T13:02:16.983242,-1.331,-2.011,0.447,-128.537,45.915,133.72,13_10_2.csv
2018-07-11T13:02:17.036887,0.292,-0.226,0.463,-35.671,-1.037,10.061,13_10_2.csv
2018-07-11T13:02:17.084514,0.292,-0.226,0.463,34.878,2.683,-43.171,13_10_2.csv
2018-07-11T13:02:17.130637,0.226,0.098,0.196,37.195,-7.988,-45.183,13_10_2.csv
2018-07-11T13:02:17.176760,0.226,0.098,0.196,14.573,-8.78,-27.317,13_10_2.csv
2018-07-11T13:02:17.229901,0.01,-0.092,0.052,39.207,-16.159,-27.866,13_10_2.csv
2018-07-11T13:02:17.290062,-0.243,-0.26,0.088,15.061,-34.756,-43.171,13_10_2.csv
2018-07-11T13:02:17.331672,-0.243,-0.26,0.088,45.061,-33.902,-50.427,13_10_2.csv
2018-07-11T13:02:17.397230,-1.679,-2.182,0.134,-92.927,-63.841,-13.841,13_10_2.csv
2018-07-11T13:02:17.445360,-1.92,-3.364,0.401,-41.585,70.793,109.146,13_10_2.csv
2018-07-11T13:02:17.489479,-1.92,-3.364,0.401,-8.476,85.549,73.171,13_10_2.csv
2018-07-11T13:02:17.547637,0.023,0.016,0.427,26.22,39.634,-8.293,13_10_2.csv
2018-07-11T13:02:17.598775,0.31,0.346,0.048,-31.707,-38.659,-65.976,13_10_2.csv
2018-07-11T13:02:17.644399,0.31,0.346,0.048,72.5,-52.683,-10.976,13_10_2.csv
2018-07-11T13:02:17.693028,0.023,-0.033,0.017,57.927,-16.768,2.134,13_10_2.csv
2018-07-11T13:02:17.786277,-0.128,-0.047,0.082,22.195,6.89,-30.244,13_10_2.csv
2018-07-11T13:02:17.848442,-0.918,-1.162,0.218,33.537,-24.817,-40.183,13_10_2.csv
2018-07-11T13:02:17.904592,-0.918,-1.162,0.218,-35.732,-56.707,-68.537,13_10_2.csv
2018-07-11T13:02:17.959739,-2.061,-3.919,0.231,-0.671,102.683,142.5,13_10_2.csv
2018-07-11T13:02:18.004358,-0.615,-1.372,0.585,-26.585,101.159,76.402,13_10_2.csv
2018-07-11T13:02:18.060510,-0.615,-1.372,0.585,12.927,64.634,9.268,13_10_2.csv
2018-07-11T13:02:18.099614,0.418,0.496,0.505,7.927,32.073,-34.939,13_10_2.csv
2018-07-11T13:02:18.148749,0.418,0.496,0.505,27.195,-18.963,-28.476,13_10_2.csv
2018-07-11T13:02:18.239995,-0.093,-0.264,0.021,13.049,-24.39,-30.061,13_10_2.csv
2018-07-11T13:02:18.346281,-0.547,-0.496,0.219,133.842,67.683,-6.341,13_10_2.csv
2018-07-11T13:02:18.395412,-1.813,-2.376,0.656,85.0,-6.402,-95.366,13_10_2.csv
2018-07-11T13:02:18.462596,-1.813,-2.376,0.656,27.378,-107.5,82.378,13_10_2.csv
2018-07-11T13:02:18.533286,-0.892,-2.484,0.784,-140.305,-26.098,131.524,13_10_2.csv
2018-07-11T13:02:18.604977,0.169,-0.455,0.54,5.793,135.0,27.866,13_10_2.csv
2018-07-11T13:02:18.662631,0.113,0.204,0.253,24.939,53.78,-28.049,13_10_2.csv
2018-07-11T13:02:18.709255,0.113,0.204,0.253,-9.695,-23.841,-34.085,13_10_2.csv
2018-07-11T13:02:18.761895,0.108,-0.101,0.278,16.098,-22.927,-31.402,13_10_2.csv
2018-07-11T13:02:18.850632,-0.166,-0.427,0.282,90.0,-51.341,-63.659,13_10_2.csv
2018-07-11T13:02:18.898258,-1.026,-1.438,0.648,81.585,-64.024,-95.366,13_10_2.csv
2018-07-11T13:02:18.952905,-1.026,-1.438,0.648,78.293,-29.695,-95.671,13_10_2.csv
2018-07-11T13:02:19.024595,-1.679,-2.992,0.575,-113.415,1.524,79.878,13_10_2.csv
2018-07-11T13:02:19.068212,-0.609,-1.17,0.439,-41.585,88.963,80.61,13_10_2.csv
2018-07-11T13:02:19.116340,-0.609,-1.17,0.439,2.256,102.683,42.988,13_10_2.csv
2018-07-11T13:02:19.161462,0.216,0.721,0.428,-58.659,42.073,-2.988,13_10_2.csv
2018-07-11T13:02:19.212599,0.107,-0.073,0.281,-34.817,-17.195,53.476,13_10_2.csv
2018-07-11T13:02:19.260730,0.107,-0.073,0.281,15.305,-17.805,83.415,13_10_2.csv
2018-07-11T13:02:19.322733,0.087,-0.322,0.142,-62.012,-54.329,-16.707,13_10_2.csv
2018-07-11T13:02:19.409970,-0.086,-0.514,0.16,28.78,-13.598,-44.878,13_10_2.csv
2018-07-11T13:02:19.463113,-2.052,-3.337,0.371,3.11,-21.89,-82.012,13_10_2.csv
2018-07-11T13:02:19.510242,-2.052,-3.337,0.371,-111.646,-37.378,-26.524,13_10_2.csv
2018-07-11T13:02:19.551351,-1.155,-2.986,0.229,-190.915,-90.976,-48.841,13_10_2.csv
2018-07-11T13:02:19.620035,0.138,0.55,0.592,-11.829,100.183,-43.232,13_10_2.csv
2018-07-11T13:02:19.801036,-0.007,-0.486,0.056,39.573,-1.89,-12.317,13_10_2.csv
2018-07-11T13:02:19.847162,-0.227,-0.161,-0.035,183.598,-9.146,-2.073,13_10_2.csv
2018-07-11T13:02:19.896297,-0.227,-0.161,-0.035,61.037,-26.951,-49.695,13_10_2.csv
2018-07-11T13:02:19.942921,-0.496,-1.623,-0.654,-241.22,-83.293,-204.329,13_10_2.csv
2018-07-11T13:02:19.989548,-0.496,-1.623,-0.654,-442.683,-119.512,-337.317,13_10_2.csv
2018-07-11T13:02:20.053220,0.405,-2.729,-1.262,85.244,-109.817,200.122,13_10_2.csv
2018-07-11T13:02:20.098340,0.289,-1.78,-0.202,79.024,37.5,255.244,13_10_2.csv
2018-07-11T13:02:20.146468,0.289,-1.78,-0.202,98.049,117.622,131.463,13_10_2.csv
2018-07-11T13:02:20.196102,0.229,0.055,0.42,96.037,66.463,20.183,13_10_2.csv
2018-07-11T13:02:20.240220,0.229,0.055,0.42,49.878,40.854,-7.317,13_10_2.csv
2018-07-11T13:02:20.291361,0.15,0.06,0.142,118.72,44.329,9.451,13_10_2.csv
2018-07-11T13:02:20.348513,-0.044,-0.1,-0.014,118.232,34.573,-16.524,13_10_2.csv
2018-07-11T13:02:20.399654,-0.044,-0.1,-0.014,58.902,13.72,-49.634,13_10_2.csv
2018-07-11T13:02:20.474857,-0.032,-1.249,-0.17,-180.671,67.988,-171.22,13_10_2.csv
2018-07-11T13:02:20.525492,0.259,-3.433,-0.704,-9.634,0.427,-132.439,13_10_2.csv
2018-07-11T13:02:20.570613,0.095,-1.354,-0.008,40.122,-98.415,25.183,13_10_2.csv
2018-07-11T13:02:20.644985,0.095,-1.354,-0.008,45.122,-25.488,150.549,13_10_2.csv
2018-07-11T13:02:20.711166,-0.189,-0.09,0.455,62.256,2.805,68.293,13_10_2.csv
2018-07-11T13:02:20.776339,0.174,-0.088,0.001,61.951,-11.22,56.646,13_10_2.csv
2018-07-11T13:02:20.824469,0.141,-0.082,-0.131,24.39,-6.951,9.756,13_10_2.csv
2018-07-11T13:02:20.865077,0.141,-0.082,-0.131,-56.402,-21.585,-51.341,13_10_2.csv
2018-07-11T13:02:20.910699,0.05,-0.295,0.145,-48.841,-16.707,-59.268,13_10_2.csv
2018-07-11T13:02:20.964342,0.05,-0.295,0.145,33.476,-16.28,-33.415,13_10_2.csv
2018-07-11T13:02:21.077143,0.387,-3.961,-0.51,-89.451,-21.341,37.805,13_10_2.csv
2018-07-11T13:02:21.160365,-0.069,-0.603,0.47,-71.22,62.866,0.549,13_10_2.csv
2018-07-11T13:02:21.207490,-0.069,-0.603,0.47,61.768,115.305,22.927,13_10_2.csv
2018-07-11T13:02:21.321795,0.139,-0.216,-0.17,40.549,10.915,43.963,13_10_2.csv
2018-07-11T13:02:21.378948,-0.051,-0.138,-0.055,59.756,23.598,2.439,13_10_2.csv
2018-07-11T13:02:21.428580,-0.051,-0.138,-0.055,44.329,0.793,-27.134,13_10_2.csv
2018-07-11T13:02:21.479716,-0.076,-0.244,0.057,52.134,-1.402,-52.256,13_10_2.csv
2018-07-11T13:02:21.521829,-0.076,-0.244,0.057,-88.72,21.89,-101.098,13_10_2.csv
2018-07-11T13:02:21.571962,0.364,-4.243,-0.924,-67.195,40.793,144.634,13_10_2.csv
2018-07-11T13:02:21.631621,0.208,-2.688,-0.301,43.963,21.098,140.732,13_10_2.csv
2018-07-11T13:02:21.675738,0.208,-2.688,-0.301,110.976,28.72,89.207,13_10_2.csv
2018-07-11T13:02:21.723867,-0.148,0.725,0.417,85.305,8.11,-5.183,13_10_2.csv
2018-07-11T13:02:21.783024,0.073,0.438,0.121,34.573,-18.78,15.488,13_10_2.csv
2018-07-11T13:02:21.837670,0.073,0.438,0.121,8.293,-18.841,51.951,13_10_2.csv
2018-07-11T13:02:21.880283,0.035,-0.015,0.019,28.476,-34.329,57.195,13_10_2.csv
2018-07-11T13:02:21.926908,0.035,-0.015,0.019,30.549,-66.098,32.561,13_10_2.csv
2018-07-11T13:02:21.980049,-0.175,-0.426,0.175,12.317,-55.061,-18.354,13_10_2.csv
2018-07-11T13:02:22.023666,-0.634,-2.289,0.072,47.134,-21.463,-48.841,13_10_2.csv
2018-07-11T13:02:22.080316,-0.634,-2.289,0.072,-16.829,-39.39,-22.683,13_10_2.csv
2018-07-11T13:02:22.129949,-0.333,-3.197,-0.108,-99.39,-139.695,103.842,13_10_2.csv
2018-07-11T13:02:22.176573,-0.085,-1.165,0.559,-0.732,27.561,154.268,13_10_2.csv
2018-07-11T13:02:22.224200,-0.085,-1.165,0.559,106.281,121.402,95.61,13_10_2.csv
2018-07-11T13:02:22.277846,-0.033,0.159,0.247,131.585,82.683,13.902,13_10_2.csv
2018-07-11T13:02:22.317952,-0.033,0.159,0.247,23.659,4.573,-43.354,13_10_2.csv
2018-07-11T13:02:22.372101,-0.014,-0.171,0.087,-55.061,-26.524,-75.427,13_10_2.csv
2018-07-11T13:02:22.472371,-0.081,-0.212,0.042,62.134,-40.854,-92.317,13_10_2.csv
2018-07-11T13:02:22.519998,-0.206,-0.521,0.141,94.878,-50.671,-101.159,13_10_2.csv
2018-07-11T13:02:22.567625,-0.206,-0.521,0.141,103.232,-45.061,-89.573,13_10_2.csv
2018-07-11T13:02:22.613748,-0.69,-3.13,0.118,-43.415,-65.549,22.256,13_10_2.csv
2018-07-11T13:02:22.661375,-0.408,-2.8,0.505,-168.842,-19.573,120.671,13_10_2.csv
2018-07-11T13:02:22.717023,-0.408,-2.8,0.505,-53.659,84.146,103.72,13_10_2.csv
2018-07-11T13:02:22.774677,0.123,0.136,0.581,-2.134,57.988,30.854,13_10_2.csv
2018-07-11T13:02:22.822304,0.307,0.085,0.145,-28.354,-9.878,-56.524,13_10_2.csv
2018-07-11T13:02:22.881963,0.307,0.085,0.145,37.988,29.817,-9.207,13_10_2.csv
2018-07-11T13:02:22.960672,0.08,-0.173,-0.133,98.232,8.537,-16.646,13_10_2.csv
2018-07-11T13:02:23.009302,-0.172,-0.227,-0.025,25.122,-28.841,-77.5,13_10_2.csv
2018-07-11T13:02:23.061441,-0.983,-3.625,0.565,-12.927,-28.232,-71.524,13_10_2.csv
2018-07-11T13:02:23.121601,-0.983,-3.625,0.565,186.768,-12.012,138.598,13_10_2.csv
2018-07-11T13:02:23.176247,-0.905,-2.605,1.224,391.585,13.354,278.415,13_10_2.csv
2018-07-11T13:02:23.224376,0.448,0.547,0.174,-133.354,-66.159,-68.354,13_10_2.csv
2018-07-11T13:02:23.269497,0.448,0.547,0.174,-113.476,-52.5,-86.098,13_10_2.csv
2018-07-11T13:02:23.317630,0.529,0.342,-0.167,-99.207,2.012,-53.841,13_10_2.csv
2018-07-11T13:02:23.371774,0.529,0.342,-0.167,-65.488,39.939,-0.488,13_10_2.csv
2018-07-11T13:02:23.410883,-0.066,-0.206,0.086,-17.012,28.415,15.0,13_10_2.csv
2018-07-11T13:02:23.458009,-0.066,-0.206,0.086,-4.634,9.634,-8.537,13_10_2.csv
2018-07-11T13:02:23.506141,-0.348,-0.322,0.188,60.244,-63.354,-16.28,13_10_2.csv
2018-07-11T13:02:23.550259,-0.392,-1.697,0.69,41.341,-77.5,-81.768,13_10_2.csv
2018-07-11T13:02:23.599394,-0.392,-1.697,0.69,-86.341,-10.366,-87.988,13_10_2.csv
2018-07-11T13:02:23.656546,-0.575,-3.926,1.054,-48.476,84.39,112.5,13_10_2.csv
2018-07-11T13:02:23.707688,-0.441,-0.458,0.669,204.756,168.476,167.866,13_10_2.csv
2018-07-11T13:02:23.817891,0.264,0.795,0.056,-65.976,-37.439,-29.024,13_10_2.csv
2018-07-11T13:02:23.864015,0.232,-0.256,0.059,-36.768,-24.756,22.622,13_10_2.csv
2018-07-11T13:02:23.912147,0.232,-0.256,0.059,20.488,17.134,53.354,13_10_2.csv
2018-07-11T13:02:23.963283,-0.069,-0.276,0.056,41.585,-9.268,5.427,13_10_2.csv
2018-07-11T13:02:24.013421,-0.069,-0.276,0.056,-14.146,-35.732,-49.39,13_10_2.csv
2018-07-11T13:02:24.066562,-0.314,-0.517,0.504,50.793,-28.841,-99.085,13_10_2.csv
2018-07-11T13:02:24.112690,-1.8,-2.609,1.298,-23.171,-33.537,-30.061,13_10_2.csv
2018-07-11T13:02:24.160818,-1.8,-2.609,1.298,92.805,-74.39,138.537,13_10_2.csv
2018-07-11T13:02:24.206946,-1.022,-2.254,1.747,-67.378,-94.024,121.524,13_10_2.csv
2018-07-11T13:02:24.255075,-1.022,-2.254,1.747,-160.305,62.927,108.11,13_10_2.csv
2018-07-11T13:02:24.308220,0.51,-0.108,0.484,-7.988,88.171,52.195,13_10_2.csv
2018-07-11T13:02:24.443583,0.031,-0.402,0.101,42.683,-14.146,-17.866,13_10_2.csv
2018-07-11T13:02:24.494719,0.031,-0.402,0.101,51.646,-41.28,-54.939,13_10_2.csv
2018-07-11T13:02:24.535828,-0.062,-0.716,-0.018,41.159,-30.793,-92.744,13_10_2.csv
2018-07-11T13:02:24.587466,-1.522,-1.517,0.734,183.598,124.329,-103.902,13_10_2.csv
2018-07-11T13:02:24.631082,-1.522,-1.517,0.734,-10.61,28.415,-132.439,13_10_2.csv
2018-07-11T13:02:24.683723,-1.773,-2.778,1.487,-118.72,-117.317,-56.646,13_10_2.csv
2018-07-11T13:02:24.742881,-1.773,-2.778,1.487,-43.841,38.902,34.634,13_10_2.csv
2018-07-11T13:02:24.790006,-0.245,-0.219,0.612,-37.256,-53.659,-35.244,13_10_2.csv
2018-07-11T13:02:24.838638,0.534,0.448,-0.042,-21.28,-71.829,-35.793,13_10_2.csv
2018-07-11T13:02:24.897297,0.534,0.448,-0.042,-25.549,-7.622,-40.976,13_10_2.csv
2018-07-11T13:02:24.941917,0.235,-0.195,-0.09,19.329,55.366,23.049,13_10_2.csv
2018-07-11T13:02:25.004085,-0.021,0.156,-0.061,36.585,-28.902,7.561,13_10_2.csv
2018-07-11T13:02:25.051212,-0.021,0.156,-0.061,-36.463,-71.951,-54.939,13_10_2.csv
2018-07-11T13:02:25.097839,-0.013,-1.749,0.854,-53.598,-94.634,-92.805,13_10_2.csv
2018-07-11T13:02:25.146471,-0.013,-1.749,0.854,-131.342,-105.061,-208.11,13_10_2.csv
2018-07-11T13:02:25.221676,-0.579,-3.755,1.548,-1.341,-34.085,-17.195,13_10_2.csv
2018-07-11T13:02:25.277826,-0.152,-1.312,0.284,53.049,129.451,127.439,13_10_2.csv
2018-07-11T13:02:25.325959,0.2,0.687,-0.242,-16.159,48.171,39.39,13_10_2.csv
2018-07-11T13:02:25.379101,0.2,0.687,-0.242,-85.732,-44.756,-57.744,13_10_2.csv
2018-07-11T13:02:25.426230,0.271,0.005,0.195,-44.451,-2.744,-19.573,13_10_2.csv
2018-07-11T13:02:25.475361,0.015,-0.308,0.213,-37.073,12.012,-5.061,13_10_2.csv
2018-07-11T13:02:25.537531,0.015,-0.308,0.213,1.829,-14.207,-18.72,13_10_2.csv
2018-07-11T13:02:25.581648,-0.128,-0.325,0.224,20.61,-26.585,-25.427,13_10_2.csv
2018-07-11T13:02:25.642817,0.669,-3.399,-0.126,-95.976,-83.537,-114.268,13_10_2.csv
2018-07-11T13:02:25.699470,0.669,-3.399,-0.126,-172.866,-40.122,-166.463,13_10_2.csv
2018-07-11T13:02:25.745094,0.466,-2.732,-0.132,-122.256,50.061,-186.524,13_10_2.csv
2018-07-11T13:02:25.793221,-0.234,-0.501,0.255,-72.683,106.463,134.085,13_10_2.csv
2018-07-11T13:02:25.848373,-0.234,-0.501,0.255,-31.341,19.207,6.159,13_10_2.csv
2018-07-11T13:02:25.895499,0.155,0.302,0.094,4.878,-7.805,-34.329,13_10_2.csv
2018-07-11T13:02:25.953656,-0.182,-0.023,0.132,25.976,16.707,59.512,13_10_2.csv
2018-07-11T13:02:26.074479,-0.182,-0.023,0.132,11.22,-21.829,16.098,13_10_2.csv
2018-07-11T13:02:26.129625,-0.512,-1.167,0.241,41.22,-6.768,40.061,13_10_2.csv
2018-07-11T13:02:26.215354,-0.077,-4.048,-0.839,21.951,-181.159,79.817,13_10_2.csv
2018-07-11T13:02:26.264485,-0.077,-4.048,-0.839,7.622,-161.22,99.817,13_10_2.csv
2018-07-11T13:02:26.318629,0.602,-1.631,-0.096,225.854,80.61,229.512,13_10_2.csv
2018-07-11T13:02:26.371270,0.155,0.674,0.453,99.634,100.305,141.281,13_10_2.csv
2018-07-11T13:02:26.430929,0.155,0.674,0.453,-63.72,28.841,53.293,13_10_2.csv
2018-07-11T13:02:26.479057,-0.029,-0.162,0.083,-47.439,-61.768,60.305,13_10_2.csv
2018-07-11T13:02:26.579908,-0.094,-0.585,-0.015,34.878,-6.28,23.841,13_10_2.csv
2018-07-11T13:02:26.645081,-0.708,-0.707,0.037,126.646,10.0,-54.878,13_10_2.csv
2018-07-11T13:02:26.692211,-2.164,-1.849,-0.147,-43.11,-50.488,-101.89,13_10_2.csv
2018-07-11T13:02:26.766411,-1.582,-2.694,-0.046,-148.781,-54.024,132.622,13_10_2.csv
2018-07-11T13:02:26.821560,-1.582,-2.694,-0.046,-156.463,-45.488,122.378,13_10_2.csv
2018-07-11T13:02:26.868188,0.372,-0.558,0.534,-90.976,2.561,58.963,13_10_2.csv
2018-07-11T13:02:26.913811,0.372,-0.558,0.534,8.963,57.317,-21.28,13_10_2.csv
2018-07-11T13:02:26.957929,0.454,0.281,0.385,45.244,15.427,49.878,13_10_2.csv
2018-07-11T13:02:27.008665,-0.03,-0.264,0.176,112.744,-8.415,77.5,13_10_2.csv
2018-07-11T13:02:27.085877,-0.363,-0.413,0.083,45.793,-37.744,3.72,13_10_2.csv
2018-07-11T13:02:27.129993,-0.363,-0.413,0.083,7.5,-50.671,-62.317,13_10_2.csv
2018-07-11T13:02:27.180131,-1.968,-1.727,0.017,74.146,-49.268,-123.659,13_10_2.csv
2018-07-11T13:02:27.244302,-1.912,-2.383,-0.048,-150.183,-44.695,94.939,13_10_2.csv
