time,accel_x_list,accel_y_list,accel_z_list,gyro_x_list,gyro_y_list,gyro_z_list,filename
2018-07-11T12:49:19.357908,-1.079,-0.378,-0.077,28.963,13.963,-194.634,13_6_1.csv
2018-07-11T12:49:19.402527,-0.856,-0.333,0.087,33.232,29.939,-180.732,13_6_1.csv
2018-07-11T12:49:19.453663,-0.856,-0.333,0.087,61.159,50.427,-152.073,13_6_1.csv
2018-07-11T12:49:19.497780,-0.684,-0.088,0.29,92.805,68.232,-102.561,13_6_1.csv
2018-07-11T12:49:19.544405,-0.684,-0.088,0.29,77.195,60.854,-30.183,13_6_1.csv
2018-07-11T12:49:19.600054,-0.673,0.105,0.252,-101.281,-19.39,95.244,13_6_1.csv
2018-07-11T12:49:19.661218,-1.11,-0.446,0.076,-150.305,-37.134,160.0,13_6_1.csv
2018-07-11T12:49:19.704333,-1.11,-0.446,0.076,-139.817,-23.476,235.0,13_6_1.csv
2018-07-11T12:49:19.750461,-2.142,-0.764,-0.239,-165.854,-40.305,314.573,13_6_1.csv
2018-07-11T12:49:19.809618,-1.434,-0.898,-0.252,-235.244,-88.72,287.988,13_6_1.csv
2018-07-11T12:49:19.855748,-1.434,-0.898,-0.252,-221.463,-41.159,158.842,13_6_1.csv
2018-07-11T12:49:19.904878,-0.875,-0.518,-0.258,-121.463,-4.939,-24.329,13_6_1.csv
2018-07-11T12:49:19.951006,-0.705,-0.02,-0.205,-175.305,-69.146,-91.159,13_6_1.csv
2018-07-11T12:49:19.997129,-0.705,-0.02,-0.205,-307.378,-97.5,-85.122,13_6_1.csv
2018-07-11T12:49:20.045262,-0.63,-0.396,-0.133,-300.915,-105.122,-43.659,13_6_1.csv
2018-07-11T12:49:20.090382,-0.63,-0.396,-0.133,-164.146,-90.427,12.561,13_6_1.csv
2018-07-11T12:49:20.138515,-0.695,-0.536,0.178,-53.659,-39.085,51.951,13_6_1.csv
2018-07-11T12:49:20.196671,-0.867,-0.436,0.349,39.146,107.073,87.378,13_6_1.csv
2018-07-11T12:49:20.246809,-0.867,-0.436,0.349,49.512,139.634,87.012,13_6_1.csv
2018-07-11T12:49:20.292933,-1.256,-0.373,0.255,12.317,114.451,78.293,13_6_1.csv
2018-07-11T12:49:20.342069,-1.256,-0.373,0.255,-30.366,40.854,46.707,13_6_1.csv
2018-07-11T12:49:20.388192,-1.37,-0.584,0.186,-55.976,-13.354,2.683,13_6_1.csv
2018-07-11T12:49:20.435822,-1.17,-0.779,0.087,-7.012,-33.171,-45.244,13_6_1.csv
2018-07-11T12:49:20.552639,-1.103,-0.615,-0.153,110.122,-75.915,-126.768,13_6_1.csv
2018-07-11T12:49:20.595754,-1.241,-0.501,-0.179,115.549,-87.317,-130.732,13_6_1.csv
2018-07-11T12:49:20.642381,-1.241,-0.501,-0.179,79.512,-75.427,-148.415,13_6_1.csv
2018-07-11T12:49:20.691011,-1.141,-0.434,-0.088,32.683,-45.488,-174.573,13_6_1.csv
2018-07-11T12:49:20.736632,-1.141,-0.434,-0.088,12.805,-21.524,-189.024,13_6_1.csv
2018-07-11T12:49:20.778243,-0.985,-0.372,-0.018,23.293,-17.378,-190.0,13_6_1.csv
2018-07-11T12:49:20.842915,-0.771,-0.158,0.165,70.244,16.159,-149.451,13_6_1.csv
2018-07-11T12:49:20.902574,-0.771,-0.158,0.165,72.866,30.183,-101.646,13_6_1.csv
2018-07-11T12:49:20.951705,-0.606,0.084,0.223,34.756,38.049,-31.037,13_6_1.csv
2018-07-11T12:49:20.997828,-0.993,-0.271,0.083,-108.72,13.841,129.329,13_6_1.csv
2018-07-11T12:49:21.043450,-0.993,-0.271,0.083,-113.354,8.11,216.037,13_6_1.csv
2018-07-11T12:49:21.091077,-1.708,-0.726,-0.116,-119.817,-9.512,295.61,13_6_1.csv
2018-07-11T12:49:21.149733,-1.708,-0.726,-0.116,-168.842,-31.89,322.012,13_6_1.csv
2018-07-11T12:49:21.204880,-1.618,-0.675,-0.272,-293.72,-51.22,142.378,13_6_1.csv
2018-07-11T12:49:21.248998,-1.024,-0.688,-0.281,-241.342,-66.28,66.341,13_6_1.csv
2018-07-11T12:49:21.295622,-1.024,-0.688,-0.281,-182.744,-55.0,25.0,13_6_1.csv
2018-07-11T12:49:21.344753,-0.674,-0.435,-0.1,-174.024,-42.866,-13.354,13_6_1.csv
2018-07-11T12:49:21.391878,-0.674,-0.435,-0.1,-184.329,-43.841,-34.512,13_6_1.csv
2018-07-11T12:49:21.450146,-0.572,-0.41,0.012,-168.415,-41.829,-18.415,13_6_1.csv
2018-07-11T12:49:21.497271,-0.683,-0.545,0.156,-138.049,-22.073,9.756,13_6_1.csv
2018-07-11T12:49:21.543896,-0.683,-0.545,0.156,-96.768,-6.28,38.841,13_6_1.csv
2018-07-11T12:49:21.593528,-1.092,-0.673,0.294,-41.341,32.378,64.634,13_6_1.csv
2018-07-11T12:49:21.639150,-1.408,-0.602,0.275,-2.073,92.012,53.963,13_6_1.csv
2018-07-11T12:49:21.686275,-1.408,-0.602,0.275,-16.098,62.866,7.134,13_6_1.csv
2018-07-11T12:49:21.774009,-1.25,-0.613,0.234,41.829,-26.89,-80.305,13_6_1.csv
2018-07-11T12:49:21.868260,-1.108,-0.524,0.054,54.207,-97.683,-121.829,13_6_1.csv
2018-07-11T12:49:21.919396,-1.012,-0.574,-0.036,73.902,-61.341,-113.11,13_6_1.csv
2018-07-11T12:49:21.969530,-0.954,-0.429,-0.006,71.402,-28.171,-126.951,13_6_1.csv
2018-07-11T12:49:22.095365,-0.841,-0.333,0.081,46.341,-23.232,-118.598,13_6_1.csv
2018-07-11T12:49:22.143494,-0.718,-0.209,0.146,27.683,-27.134,-89.878,13_6_1.csv
2018-07-11T12:49:22.196134,-0.718,-0.209,0.146,12.317,-11.463,-49.268,13_6_1.csv
2018-07-11T12:49:22.247772,-0.845,-0.205,0.114,-25.427,26.768,72.134,13_6_1.csv
2018-07-11T12:49:22.293894,-1.196,-0.365,0.0,-54.817,32.5,132.805,13_6_1.csv
2018-07-11T12:49:22.342524,-1.196,-0.365,0.0,-84.329,44.451,178.232,13_6_1.csv
2018-07-11T12:49:22.388146,-1.261,-0.501,0.033,-86.829,73.232,197.317,13_6_1.csv
2018-07-11T12:49:22.435271,-1.261,-0.501,0.033,-77.073,86.159,182.439,13_6_1.csv
2018-07-11T12:49:22.484402,-1.255,-0.47,-0.032,-165.61,-8.902,104.634,13_6_1.csv
2018-07-11T12:49:22.562109,-0.928,-0.576,-0.011,-187.988,-21.402,18.476,13_6_1.csv
2018-07-11T12:49:22.607731,-0.807,-0.548,0.079,-148.049,-21.098,-0.061,13_6_1.csv
2018-07-11T12:49:22.706996,-0.804,-0.515,0.199,-116.463,-23.841,-5.732,13_6_1.csv
2018-07-11T12:49:22.763145,-0.955,-0.605,0.295,-43.598,5.732,2.927,13_6_1.csv
2018-07-11T12:49:22.811775,-0.955,-0.605,0.295,12.927,26.402,20.244,13_6_1.csv
2018-07-11T12:49:22.874943,-1.237,-0.542,0.2,36.829,24.085,23.476,13_6_1.csv
2018-07-11T12:49:22.920063,-1.237,-0.542,0.2,13.171,-3.659,3.902,13_6_1.csv
2018-07-11T12:49:22.974208,-1.172,-0.74,0.058,41.341,-26.22,-24.085,13_6_1.csv
2018-07-11T12:49:23.024341,-1.133,-0.78,-0.131,119.085,-13.293,-47.195,13_6_1.csv
2018-07-11T12:49:23.080491,-1.133,-0.78,-0.131,162.683,-31.341,-79.573,13_6_1.csv
2018-07-11T12:49:23.122102,-1.277,-0.505,-0.242,147.195,-71.707,-114.878,13_6_1.csv
2018-07-11T12:49:23.233401,-1.05,-0.408,-0.116,20.122,-45.183,-196.037,13_6_1.csv
2018-07-11T12:49:23.278521,-0.88,-0.354,-0.029,23.354,-22.866,-191.037,13_6_1.csv
2018-07-11T12:49:23.389823,-0.726,-0.235,0.107,43.598,22.622,-83.659,13_6_1.csv
2018-07-11T12:49:23.456503,-0.735,-0.126,0.208,32.683,69.756,50.61,13_6_1.csv
2018-07-11T12:49:23.529199,-1.21,-0.154,-0.012,-134.878,80.061,158.842,13_6_1.csv
2018-07-11T12:49:23.583847,-1.442,-0.573,-0.149,-201.585,53.963,188.781,13_6_1.csv
2018-07-11T12:49:23.645514,-1.442,-0.573,-0.149,-167.073,23.963,210.488,13_6_1.csv
2018-07-11T12:49:23.688633,-1.37,-0.699,-0.076,-117.195,-40.915,212.744,13_6_1.csv
2018-07-11T12:49:23.734756,-1.041,-0.744,-0.003,-129.329,-15.61,191.646,13_6_1.csv
2018-07-11T12:49:23.794921,-1.041,-0.744,-0.003,-126.159,7.683,116.646,13_6_1.csv
2018-07-11T12:49:23.841043,-0.838,-0.561,-0.015,-101.585,9.329,17.744,13_6_1.csv
2018-07-11T12:49:23.905218,-0.711,-0.509,0.11,-132.988,-21.646,-64.878,13_6_1.csv
2018-07-11T12:49:23.952344,-0.711,-0.509,0.11,-118.902,-15.793,-60.244,13_6_1.csv
2018-07-11T12:49:23.998472,-0.819,-0.595,0.235,-81.037,-2.256,-51.707,13_6_1.csv
2018-07-11T12:49:24.044594,-0.819,-0.595,0.235,-17.866,16.951,-37.256,13_6_1.csv
2018-07-11T12:49:24.153888,-1.349,-0.549,0.051,32.805,10.671,-38.537,13_6_1.csv
2018-07-11T12:49:24.205525,-1.349,-0.549,0.051,25.061,-23.659,-41.585,13_6_1.csv
2018-07-11T12:49:24.247638,-1.127,-0.896,-0.069,72.378,-17.988,-20.488,13_6_1.csv
2018-07-11T12:49:24.296769,-1.374,-0.554,-0.343,209.939,-24.207,-108.293,13_6_1.csv
2018-07-11T12:49:24.346902,-1.374,-0.554,-0.343,165.61,-103.781,-179.207,13_6_1.csv
2018-07-11T12:49:24.393530,-1.081,-0.313,-0.038,52.988,-101.951,-222.622,13_6_1.csv
2018-07-11T12:49:24.452687,-0.658,-0.074,0.179,-27.012,5.305,-183.598,13_6_1.csv
2018-07-11T12:49:24.590062,-0.658,-0.074,0.179,9.085,-40.0,-36.28,13_6_1.csv
2018-07-11T12:49:24.638191,-0.635,-0.051,0.192,-37.195,-36.402,20.061,13_6_1.csv
2018-07-11T12:49:24.686326,-0.635,-0.051,0.192,-66.646,-16.463,90.061,13_6_1.csv
2018-07-11T12:49:24.731443,-1.132,-0.429,0.01,-92.195,-5.976,165.976,13_6_1.csv
2018-07-11T12:49:24.777571,-1.841,-0.935,-0.144,-77.805,-2.439,305.915,13_6_1.csv
2018-07-11T12:49:24.843747,-1.841,-0.935,-0.144,-66.646,0.976,313.659,13_6_1.csv
2018-07-11T12:49:24.889874,-1.347,-0.541,-0.207,-126.281,13.78,196.951,13_6_1.csv
2018-07-11T12:49:24.957056,-0.929,-0.449,-0.473,-301.768,-106.89,-28.902,13_6_1.csv
2018-07-11T12:49:25.003180,-0.929,-0.449,-0.473,-340.0,-168.903,-52.622,13_6_1.csv
2018-07-11T12:49:25.060333,-0.598,-0.555,-0.393,-259.329,-148.963,-21.22,13_6_1.csv
2018-07-11T12:49:25.114482,-0.532,-0.536,-0.089,-180.0,-107.195,4.207,13_6_1.csv
2018-07-11T12:49:25.169629,-0.532,-0.536,-0.089,-121.22,-42.988,36.585,13_6_1.csv
2018-07-11T12:49:25.216759,-0.68,-0.606,0.157,-13.598,60.122,76.22,13_6_1.csv
2018-07-11T12:49:25.265889,-0.932,-0.569,0.338,58.72,134.268,90.0,13_6_1.csv
2018-07-11T12:49:25.310012,-0.932,-0.569,0.338,82.5,180.305,89.329,13_6_1.csv
2018-07-11T12:49:25.377193,-1.255,-0.359,0.276,-28.171,57.683,35.671,13_6_1.csv
2018-07-11T12:49:25.427329,-1.328,-0.621,0.187,-66.098,-13.963,-15.976,13_6_1.csv
2018-07-11T12:49:25.481475,-1.328,-0.621,0.187,-49.268,-46.89,-34.695,13_6_1.csv
2018-07-11T12:49:25.556677,-1.186,-0.917,0.064,102.073,-27.561,-27.134,13_6_1.csv
2018-07-11T12:49:25.613834,-1.366,-0.564,-0.231,145.183,-56.463,-101.89,13_6_1.csv
2018-07-11T12:49:25.670987,-1.217,-0.388,-0.143,67.195,-151.22,-169.695,13_6_1.csv
2018-07-11T12:49:25.718117,-1.217,-0.388,-0.143,-9.512,-116.707,-194.146,13_6_1.csv
2018-07-11T12:49:25.799338,-0.981,-0.455,-0.066,-7.683,-35.732,-195.366,13_6_1.csv
2018-07-11T12:49:25.856491,-0.852,-0.296,0.058,19.939,-26.89,-181.951,13_6_1.csv
2018-07-11T12:49:25.955760,-0.575,-0.078,0.2,9.207,2.561,-28.841,13_6_1.csv
2018-07-11T12:49:26.005896,-0.56,-0.112,0.159,-30.915,-0.549,40.732,13_6_1.csv
2018-07-11T12:49:26.046003,-0.56,-0.112,0.159,-68.232,-1.22,122.012,13_6_1.csv
2018-07-11T12:49:26.091123,-1.188,-0.598,-0.011,-61.28,20.122,202.317,13_6_1.csv
2018-07-11T12:49:26.139753,-1.806,-0.784,-0.084,-53.476,32.439,271.159,13_6_1.csv
2018-07-11T12:49:26.187881,-1.806,-0.784,-0.084,-201.585,3.78,296.524,13_6_1.csv
2018-07-11T12:49:26.251050,-1.317,-0.764,-0.223,-253.293,14.634,203.598,13_6_1.csv
2018-07-11T12:49:26.395434,-0.635,-0.505,-0.105,-223.415,-89.817,-53.476,13_6_1.csv
2018-07-11T12:49:26.444064,-0.635,-0.505,-0.105,-169.756,-60.61,-30.305,13_6_1.csv
2018-07-11T12:49:26.497206,-0.644,-0.486,0.104,-119.451,-34.634,-2.073,13_6_1.csv
2018-07-11T12:49:26.545335,-0.75,-0.476,0.215,-101.281,8.171,0.915,13_6_1.csv
2018-07-11T12:49:26.595469,-0.75,-0.476,0.215,-84.268,21.098,1.585,13_6_1.csv
2018-07-11T12:49:26.654631,-1.007,-0.586,0.292,-36.524,28.049,14.451,13_6_1.csv
2018-07-11T12:49:26.717804,-1.186,-0.533,0.276,38.476,69.451,57.073,13_6_1.csv
2018-07-11T12:49:26.762925,-1.186,-0.533,0.276,17.5,54.512,39.39,13_6_1.csv
2018-07-11T12:49:26.810555,-1.287,-0.76,0.155,16.159,18.78,18.902,13_6_1.csv
2018-07-11T12:49:26.857179,-1.287,-0.76,0.155,51.89,-9.39,14.329,13_6_1.csv
2018-07-11T12:49:26.910321,-1.218,-0.777,-0.07,128.11,-56.402,-87.195,13_6_1.csv
2018-07-11T12:49:26.969481,-1.299,-0.481,-0.198,93.293,-108.72,-142.866,13_6_1.csv
2018-07-11T12:49:27.015604,-1.299,-0.481,-0.198,20.915,-122.378,-176.89,13_6_1.csv
2018-07-11T12:49:27.112868,-0.816,-0.431,-0.115,-31.707,-20.793,-196.707,13_6_1.csv
2018-07-11T12:49:27.159494,-0.816,-0.431,-0.115,14.329,-3.598,-178.11,13_6_1.csv
2018-07-11T12:49:27.208124,-0.657,-0.297,0.063,65.061,25.122,-136.402,13_6_1.csv
2018-07-11T12:49:27.319924,-0.588,-0.098,0.189,18.171,48.11,43.171,13_6_1.csv
2018-07-11T12:49:27.372063,-0.88,-0.245,0.169,-33.963,43.72,111.829,13_6_1.csv
2018-07-11T12:49:27.419195,-0.88,-0.245,0.169,-56.098,53.232,185.549,13_6_1.csv
2018-07-11T12:49:27.468326,-1.667,-0.62,0.011,-73.11,57.927,322.439,13_6_1.csv
2018-07-11T12:49:27.512448,-1.521,-0.781,0.082,-58.841,112.012,326.342,13_6_1.csv
2018-07-11T12:49:27.561578,-1.521,-0.781,0.082,-34.024,149.634,255.793,13_6_1.csv
2018-07-11T12:49:27.615728,-1.166,-0.439,-0.071,-31.28,86.707,123.902,13_6_1.csv
2018-07-11T12:49:27.768137,-0.56,-0.389,-0.082,-290.549,-112.317,-131.768,13_6_1.csv
2018-07-11T12:49:27.810751,-0.56,-0.389,-0.082,-228.232,-102.439,-73.659,13_6_1.csv
2018-07-11T12:49:27.921045,-0.962,-0.507,0.238,111.463,84.939,47.561,13_6_1.csv
2018-07-11T12:49:27.966666,-0.962,-0.507,0.238,125.305,97.927,30.061,13_6_1.csv
2018-07-11T12:49:28.014295,-1.061,-0.406,0.101,55.244,31.768,-10.305,13_6_1.csv
2018-07-11T12:49:28.067437,-1.061,-0.406,0.101,-15.976,-30.061,-49.085,13_6_1.csv
2018-07-11T12:49:28.124205,-1.193,-0.833,-0.03,-12.683,-7.866,-43.476,13_6_1.csv
2018-07-11T12:49:28.169325,-1.211,-0.905,-0.122,78.78,35.915,-29.329,13_6_1.csv
2018-07-11T12:49:28.216456,-1.211,-0.905,-0.122,149.085,51.951,-89.451,13_6_1.csv
2018-07-11T12:49:28.262579,-1.412,-0.511,-0.186,161.22,12.195,-154.085,13_6_1.csv
2018-07-11T12:49:28.310711,-1.412,-0.511,-0.186,120.61,-21.524,-172.866,13_6_1.csv
2018-07-11T12:49:28.358839,-1.138,-0.354,-0.052,47.317,-4.939,-172.805,13_6_1.csv
2018-07-11T12:49:28.421009,-0.783,-0.274,0.034,30.183,-9.024,-160.244,13_6_1.csv
2018-07-11T12:49:28.466129,-0.783,-0.274,0.034,25.244,-7.988,-141.585,13_6_1.csv
2018-07-11T12:49:28.517271,-0.571,-0.127,0.168,20.0,-6.707,-30.549,13_6_1.csv
2018-07-11T12:49:28.561388,-0.548,-0.153,0.147,-17.988,-27.805,45.549,13_6_1.csv
2018-07-11T12:49:28.606512,-0.548,-0.153,0.147,-49.451,-31.159,110.976,13_6_1.csv
2018-07-11T12:49:28.685726,-0.99,-0.485,0.027,-74.756,-11.524,212.561,13_6_1.csv
2018-07-11T12:49:28.731849,-1.719,-0.709,-0.139,-97.378,-8.293,237.439,13_6_1.csv
2018-07-11T12:49:28.778474,-1.719,-0.709,-0.139,-129.024,-12.683,254.878,13_6_1.csv
2018-07-11T12:49:28.828106,-1.4,-0.916,-0.122,-128.293,-20.854,258.72,13_6_1.csv
2018-07-11T12:49:28.892277,-0.981,-0.543,-0.131,-59.024,48.963,50.854,13_6_1.csv
2018-07-11T12:49:28.952437,-0.981,-0.543,-0.131,-70.305,-0.305,-54.878,13_6_1.csv
2018-07-11T12:49:29.070251,-0.652,-0.421,0.065,-161.159,-44.451,-78.415,13_6_1.csv
2018-07-11T12:49:29.127404,-0.705,-0.439,0.222,-100.915,-30.793,-33.659,13_6_1.csv
2018-07-11T12:49:29.187564,-0.705,-0.439,0.222,-53.049,0.183,-9.146,13_6_1.csv
2018-07-11T12:49:29.299362,-1.111,-0.355,0.229,24.817,51.159,25.732,13_6_1.csv
2018-07-11T12:49:29.361026,-1.177,-0.513,0.052,-38.72,-22.134,13.537,13_6_1.csv
2018-07-11T12:49:29.406650,-1.177,-0.513,0.052,-63.476,-33.11,-3.354,13_6_1.csv
2018-07-11T12:49:29.451770,-1.273,-0.973,-0.032,-27.988,-30.854,4.39,13_6_1.csv
2018-07-11T12:49:29.499903,-1.273,-0.973,-0.032,90.549,2.622,33.537,13_6_1.csv
2018-07-11T12:49:29.545023,-1.145,-0.547,-0.135,155.427,3.598,-27.317,13_6_1.csv
2018-07-11T12:49:29.606188,-1.177,-0.379,-0.093,12.744,-88.598,-205.122,13_6_1.csv
2018-07-11T12:49:29.654316,-1.177,-0.379,-0.093,-20.488,-81.098,-193.72,13_6_1.csv
2018-07-11T12:49:29.708961,-0.884,-0.408,0.034,2.622,-43.171,-157.744,13_6_1.csv
2018-07-11T12:49:29.778647,-0.748,-0.208,0.172,30.244,-20.61,-95.305,13_6_1.csv
2018-07-11T12:49:29.828781,-0.748,-0.208,0.172,21.28,-34.329,-62.378,13_6_1.csv
2018-07-11T12:49:29.871896,-0.642,-0.095,0.189,-14.939,-57.561,-15.244,13_6_1.csv
2018-07-11T12:49:29.922031,-0.759,-0.336,0.077,-87.012,-59.39,84.756,13_6_1.csv
2018-07-11T12:49:29.969157,-0.759,-0.336,0.077,-94.756,-41.951,145.854,13_6_1.csv
2018-07-11T12:49:30.051879,-1.2,-0.613,-0.09,-80.671,-26.341,227.439,13_6_1.csv
2018-07-11T12:49:30.200779,-1.04,-0.832,0.028,-73.963,68.598,67.439,13_6_1.csv
2018-07-11T12:49:30.250917,-0.852,-0.487,0.042,-45.732,61.768,-59.268,13_6_1.csv
2018-07-11T12:49:30.311581,-0.852,-0.487,0.042,-40.488,-10.61,-81.28,13_6_1.csv
2018-07-11T12:49:30.357828,-0.767,-0.368,0.088,-82.683,-78.72,-62.866,13_6_1.csv
2018-07-11T12:49:30.406959,-0.7,-0.507,0.166,-98.537,-59.268,-56.89,13_6_1.csv
2018-07-11T12:49:30.451081,-0.7,-0.507,0.166,-55.549,-30.366,-38.293,13_6_1.csv
2018-07-11T12:49:30.497204,-0.868,-0.533,0.252,8.476,3.354,-22.073,13_6_1.csv
2018-07-11T12:49:30.542328,-0.868,-0.533,0.252,59.451,29.634,-12.5,13_6_1.csv
2018-07-11T12:49:30.606498,-0.974,-0.362,0.29,68.78,24.268,-8.598,13_6_1.csv
2018-07-11T12:49:30.652626,-0.971,-0.336,0.243,41.707,4.085,-13.232,13_6_1.csv
2018-07-11T12:49:30.706771,-0.971,-0.336,0.243,23.415,-18.049,-18.049,13_6_1.csv
2018-07-11T12:49:30.768838,-0.927,-0.433,0.152,16.037,-20.61,-20.427,13_6_1.csv
2018-07-11T12:49:30.809947,-1.13,-0.566,-0.043,8.415,-20.061,-19.329,13_6_1.csv
2018-07-11T12:49:30.863093,-1.13,-0.566,-0.043,1.646,-26.89,-7.561,13_6_1.csv
2018-07-11T12:49:30.919746,-0.871,-0.77,-0.024,19.268,-7.317,17.5,13_6_1.csv
2018-07-11T12:49:30.981912,-0.948,-0.545,-0.201,143.171,58.72,-41.28,13_6_1.csv
2018-07-11T12:49:31.030542,-0.948,-0.545,-0.201,140.915,5.244,-73.598,13_6_1.csv
2018-07-11T12:49:31.074660,-0.913,-0.391,-0.143,89.024,-12.927,-77.561,13_6_1.csv
2018-07-11T12:49:31.124794,-0.913,-0.391,-0.143,20.488,13.415,-86.768,13_6_1.csv
2018-07-11T12:49:31.168914,-0.683,-0.433,-0.154,1.402,60.793,-70.122,13_6_1.csv
2018-07-11T12:49:31.215040,-0.826,-0.526,-0.144,41.707,71.646,-40.0,13_6_1.csv
2018-07-11T12:49:31.261163,-0.826,-0.526,-0.144,71.159,99.268,2.622,13_6_1.csv
2018-07-11T12:49:31.311303,-0.931,-0.704,-0.035,118.232,153.659,49.024,13_6_1.csv
2018-07-11T12:49:31.356424,-0.931,-0.704,-0.035,199.207,189.878,64.39,13_6_1.csv
2018-07-11T12:49:31.416590,-0.983,-0.581,-0.055,239.512,180.183,35.061,13_6_1.csv
2018-07-11T12:49:31.528679,-0.916,-0.594,0.014,137.439,105.976,29.878,13_6_1.csv
2018-07-11T12:49:31.575805,-0.916,-0.594,0.014,191.098,118.476,58.598,13_6_1.csv
2018-07-11T12:49:31.622936,-0.977,-0.525,0.0,216.585,115.305,76.524,13_6_1.csv
2018-07-11T12:49:31.670062,-0.977,-0.525,0.0,202.317,93.963,87.134,13_6_1.csv
2018-07-11T12:49:31.715187,-1.068,-0.439,-0.024,155.0,57.988,91.89,13_6_1.csv
2018-07-11T12:49:31.773343,-1.003,-0.565,-0.07,2.256,-39.085,53.293,13_6_1.csv
2018-07-11T12:49:31.826489,-1.003,-0.565,-0.07,-35.793,-53.354,27.073,13_6_1.csv
2018-07-11T12:49:31.872611,-0.766,-0.631,-0.092,-15.427,-40.732,9.817,13_6_1.csv
2018-07-11T12:49:31.920742,-0.766,-0.631,-0.092,35.671,-20.976,2.439,13_6_1.csv
2018-07-11T12:49:31.967366,-0.764,-0.515,-0.042,71.159,5.305,6.89,13_6_1.csv
2018-07-11T12:49:32.012988,-0.963,-0.49,0.011,80.854,38.72,30.976,13_6_1.csv
2018-07-11T12:49:32.072145,-0.963,-0.49,0.011,73.11,35.854,30.732,13_6_1.csv
2018-07-11T12:49:32.125788,-1.107,-0.558,-0.006,37.317,24.695,18.415,13_6_1.csv
2018-07-11T12:49:32.171913,-0.952,-0.627,0.021,79.085,41.22,-12.256,13_6_1.csv
2018-07-11T12:49:32.220042,-0.952,-0.627,0.021,172.256,79.695,-56.037,13_6_1.csv
2018-07-11T12:49:32.265166,-1.25,0.077,-0.038,187.805,32.561,-95.366,13_6_1.csv
2018-07-11T12:49:32.312292,-1.25,0.077,-0.038,47.5,-52.195,-107.195,13_6_1.csv
2018-07-11T12:49:32.364934,-0.99,0.051,-0.106,-113.049,-97.561,-87.439,13_6_1.csv
2018-07-11T12:49:32.419580,-0.914,-0.375,0.039,-49.512,-79.024,-54.512,13_6_1.csv
2018-07-11T12:49:32.465703,-0.914,-0.375,0.039,84.39,5.976,10.549,13_6_1.csv
2018-07-11T12:49:32.514332,-0.988,-0.215,0.144,128.476,52.439,50.915,13_6_1.csv
2018-07-11T12:49:32.560959,-0.988,-0.215,0.144,69.878,31.402,43.354,13_6_1.csv
2018-07-11T12:49:32.607082,-0.887,-0.305,0.225,48.11,31.037,47.683,13_6_1.csv
2018-07-11T12:49:32.670258,-0.822,-0.698,0.236,46.159,-14.268,92.012,13_6_1.csv
2018-07-11T12:49:32.715377,-0.822,-0.698,0.236,56.646,4.512,73.659,13_6_1.csv
2018-07-11T12:49:32.762007,-0.86,-0.794,0.138,45.915,25.305,32.622,13_6_1.csv
2018-07-11T12:49:32.855260,-1.169,-1.113,-0.096,188.354,40.854,21.829,13_6_1.csv
2018-07-11T12:49:32.903388,-1.155,-0.815,-0.222,209.329,44.512,-30.122,13_6_1.csv
2018-07-11T12:49:32.949517,-1.155,-0.815,-0.222,185.732,6.951,-110.183,13_6_1.csv
2018-07-11T12:49:33.006669,-1.114,-0.606,-0.2,179.024,-21.037,-136.159,13_6_1.csv
2018-07-11T12:49:33.059816,-1.094,-0.621,-0.197,124.451,-16.341,-131.768,13_6_1.csv
2018-07-11T12:49:33.110952,-1.094,-0.621,-0.197,108.11,-20.0,-142.561,13_6_1.csv
2018-07-11T12:49:33.171115,-1.095,-0.665,-0.235,86.707,-29.146,-156.22,13_6_1.csv
2018-07-11T12:49:33.216237,-0.913,-0.511,-0.182,36.768,-25.915,-183.903,13_6_1.csv
2018-07-11T12:49:33.263363,-0.913,-0.511,-0.182,12.927,-9.329,-185.549,13_6_1.csv
2018-07-11T12:49:33.324528,-0.628,-0.376,0.037,6.28,26.159,-147.256,13_6_1.csv
2018-07-11T12:49:33.372656,-0.628,-0.376,0.037,17.683,79.573,-86.22,13_6_1.csv
2018-07-11T12:49:33.419280,-0.726,-0.315,0.288,114.451,202.988,53.598,13_6_1.csv
2018-07-11T12:49:33.466912,-1.144,-0.099,0.357,99.024,195.61,127.5,13_6_1.csv
2018-07-11T12:49:33.513032,-1.144,-0.099,0.357,12.561,148.659,168.049,13_6_1.csv
2018-07-11T12:49:33.641878,-1.264,-0.55,0.272,-150.488,13.049,146.585,13_6_1.csv
2018-07-11T12:49:33.697526,-1.208,-0.383,0.118,-130.244,12.378,128.781,13_6_1.csv
2018-07-11T12:49:33.767212,-1.208,-0.383,0.118,-215.549,-89.695,73.171,13_6_1.csv
2018-07-11T12:49:33.826370,-0.904,-0.761,0.019,-169.268,-113.659,3.415,13_6_1.csv
2018-07-11T12:49:33.909591,-0.725,-0.781,0.052,18.841,-45.976,1.037,13_6_1.csv
2018-07-11T12:49:33.954712,-0.763,-0.599,0.039,12.866,-50.549,-26.707,13_6_1.csv
2018-07-11T12:49:34.003341,-0.763,-0.599,0.039,3.293,-42.805,-44.573,13_6_1.csv
2018-07-11T12:49:34.071523,-0.904,-0.765,0.034,33.902,-0.549,-49.329,13_6_1.csv
2018-07-11T12:49:34.123161,-1.021,-0.876,-0.089,55.915,27.805,-49.512,13_6_1.csv
2018-07-11T12:49:34.217916,-1.258,-0.998,-0.295,111.037,110.427,-77.683,13_6_1.csv
2018-07-11T12:49:34.264038,-1.434,-0.594,-0.282,225.549,109.207,-176.403,13_6_1.csv
2018-07-11T12:49:34.309161,-1.434,-0.594,-0.282,160.183,112.5,-206.22,13_6_1.csv
2018-07-11T12:49:34.356289,-1.245,-0.49,-0.211,130.366,109.634,-206.585,13_6_1.csv
2018-07-11T12:49:34.436508,-1.011,-0.397,-0.102,132.927,87.317,-181.403,13_6_1.csv
2018-07-11T12:49:34.481627,-1.011,-0.397,-0.102,125.366,78.232,-164.573,13_6_1.csv
2018-07-11T12:49:34.543295,-0.773,-0.268,0.077,88.476,64.207,-98.902,13_6_1.csv
2018-07-11T12:49:34.592426,-0.69,-0.123,0.23,82.988,75.732,-48.049,13_6_1.csv
2018-07-11T12:49:34.658602,-0.69,-0.123,0.23,58.78,73.902,9.39,13_6_1.csv
2018-07-11T12:49:34.706229,-1.027,-0.163,0.203,-36.098,78.049,137.317,13_6_1.csv
2018-07-11T12:49:34.760875,-1.379,-0.542,0.255,-66.463,81.402,201.159,13_6_1.csv
2018-07-11T12:49:34.827553,-1.385,-0.584,0.166,-82.134,93.902,219.39,13_6_1.csv
2018-07-11T12:49:34.873676,-1.385,-0.584,0.166,-139.573,22.073,184.939,13_6_1.csv
2018-07-11T12:49:34.920300,-1.143,-0.688,0.004,-192.439,-13.232,150.793,13_6_1.csv
2018-07-11T12:49:34.965921,-1.143,-0.688,0.004,-226.768,-26.098,89.756,13_6_1.csv
2018-07-11T12:49:35.013548,-0.819,-0.726,0.016,-195.061,-32.744,21.402,13_6_1.csv
2018-07-11T12:49:35.067192,-0.704,-0.562,0.184,-80.305,-38.11,-4.634,13_6_1.csv
2018-07-11T12:49:35.153421,-0.783,-0.628,0.228,-35.854,-11.646,3.476,13_6_1.csv
2018-07-11T12:49:35.202051,-0.783,-0.628,0.228,13.293,5.549,11.524,13_6_1.csv
2018-07-11T12:49:35.249176,-1.072,-0.727,0.118,48.537,23.841,9.085,13_6_1.csv
2018-07-11T12:49:35.294297,-1.072,-0.727,0.118,78.598,40.793,-2.439,13_6_1.csv
2018-07-11T12:49:35.341423,-1.279,-0.773,-0.037,97.561,41.28,-26.951,13_6_1.csv
2018-07-11T12:49:35.406094,-1.131,-0.672,-0.073,168.903,24.268,-46.646,13_6_1.csv
2018-07-11T12:49:35.455727,-1.131,-0.672,-0.073,172.073,7.439,-77.5,13_6_1.csv
2018-07-11T12:49:35.501348,-1.047,-0.509,-0.136,158.659,-8.232,-105.305,13_6_1.csv
2018-07-11T12:49:35.580559,-0.89,-0.487,-0.131,118.415,-19.634,-99.573,13_6_1.csv
2018-07-11T12:49:35.622170,-0.89,-0.487,-0.131,100.976,-18.659,-96.159,13_6_1.csv
2018-07-11T12:49:35.670299,-0.793,-0.488,-0.15,71.341,-36.463,-84.695,13_6_1.csv
2018-07-11T12:49:35.721435,-0.712,-0.454,-0.122,55.732,-27.561,-70.61,13_6_1.csv
2018-07-11T12:49:35.779590,-0.712,-0.454,-0.122,43.354,-11.402,-45.244,13_6_1.csv
2018-07-11T12:49:35.828220,-0.787,-0.454,-0.016,5.061,6.463,-28.476,13_6_1.csv
2018-07-11T12:49:35.877852,-1.024,-0.454,0.171,-14.329,86.159,9.085,13_6_1.csv
2018-07-11T12:49:35.921969,-1.024,-0.454,0.171,-0.915,94.268,37.561,13_6_1.csv
2018-07-11T12:49:35.970098,-1.094,-0.391,0.403,24.878,73.902,81.89,13_6_1.csv
2018-07-11T12:49:36.029759,-1.076,-0.467,0.423,-34.573,44.39,92.866,13_6_1.csv
2018-07-11T12:49:36.077887,-1.076,-0.467,0.423,-27.988,61.28,94.451,13_6_1.csv
2018-07-11T12:49:36.122508,-1.036,-0.47,0.292,3.049,56.037,93.415,13_6_1.csv
2018-07-11T12:49:36.171639,-1.036,-0.47,0.292,-23.537,13.78,64.329,13_6_1.csv
2018-07-11T12:49:36.217762,-0.821,-0.483,0.205,-64.573,-11.402,31.829,13_6_1.csv
2018-07-11T12:49:36.264386,-0.821,-0.483,0.205,-42.622,-15.854,21.463,13_6_1.csv
2018-07-11T12:49:36.324547,-0.779,-0.521,0.186,-18.293,-7.683,19.268,13_6_1.csv
2018-07-11T12:49:36.393731,-0.879,-0.576,0.185,33.354,5.061,13.171,13_6_1.csv
2018-07-11T12:49:36.437848,-0.993,-0.562,0.171,46.89,3.354,1.585,13_6_1.csv
2018-07-11T12:49:36.487481,-0.993,-0.562,0.171,44.268,-12.134,-16.341,13_6_1.csv
2018-07-11T12:49:36.530596,-1.033,-0.618,0.067,39.878,-19.451,-30.549,13_6_1.csv
2018-07-11T12:49:36.575215,-1.033,-0.618,0.067,46.951,-4.756,-34.451,13_6_1.csv
2018-07-11T12:49:36.635876,-1.073,-0.856,-0.021,122.988,35.0,-11.646,13_6_1.csv
2018-07-11T12:49:36.686511,-1.08,-0.841,-0.172,189.146,40.488,-28.049,13_6_1.csv
2018-07-11T12:49:36.731632,-1.08,-0.841,-0.172,197.073,21.951,-56.463,13_6_1.csv
2018-07-11T12:49:36.779258,-1.026,-0.607,-0.21,170.61,14.573,-81.768,13_6_1.csv
2018-07-11T12:49:36.825883,-1.026,-0.607,-0.21,143.171,18.963,-103.963,13_6_1.csv
2018-07-11T12:49:36.873008,-0.956,-0.473,-0.21,128.415,12.927,-113.781,13_6_1.csv
2018-07-11T12:49:36.984307,-0.868,-0.374,-0.192,28.537,-9.878,-117.134,13_6_1.csv
2018-07-11T12:49:37.031436,-0.809,-0.432,-0.112,10.061,9.695,-101.768,13_6_1.csv
2018-07-11T12:49:37.075556,-0.845,-0.364,0.046,51.341,52.378,-48.598,13_6_1.csv
2018-07-11T12:49:37.123687,-0.845,-0.364,0.046,52.988,78.537,-21.829,13_6_1.csv
2018-07-11T12:49:37.168809,-1.086,-0.271,0.221,56.585,110.0,18.598,13_6_1.csv
2018-07-11T12:49:37.216938,-1.086,-0.271,0.221,16.768,109.085,73.537,13_6_1.csv
2018-07-11T12:49:37.269082,-1.078,-0.349,0.369,-29.024,93.598,106.463,13_6_1.csv
2018-07-11T12:49:37.328743,-1.065,-0.509,0.275,-53.963,51.037,118.354,13_6_1.csv
2018-07-11T12:49:37.376871,-1.065,-0.509,0.275,-48.11,38.171,113.781,13_6_1.csv
2018-07-11T12:49:37.545320,-0.844,-0.564,0.146,-6.585,5.183,20.549,13_6_1.csv
2018-07-11T12:49:37.685694,-0.933,-0.552,0.064,33.659,19.512,-19.817,13_6_1.csv
2018-07-11T12:49:37.732820,-1.071,-0.588,-0.113,51.524,23.293,-29.817,13_6_1.csv
2018-07-11T12:49:37.799999,-1.124,-0.565,-0.121,109.451,38.537,-61.22,13_6_1.csv
2018-07-11T12:49:37.842111,-1.124,-0.565,-0.121,119.939,46.341,-54.756,13_6_1.csv
2018-07-11T12:49:37.898762,-0.864,-0.662,0.021,147.561,57.683,-18.049,13_6_1.csv
2018-07-11T12:49:37.952405,-0.864,-0.662,0.021,192.134,49.878,-4.939,13_6_1.csv
2018-07-11T12:49:37.998027,-0.872,-0.686,0.009,179.878,29.878,-7.317,13_6_1.csv
2018-07-11T12:49:38.123862,-0.917,-0.604,-0.075,76.037,-49.756,-55.854,13_6_1.csv
2018-07-11T12:49:38.174998,-0.917,-0.604,-0.075,38.72,-62.012,-68.78,13_6_1.csv
2018-07-11T12:49:38.226636,-0.824,-0.561,-0.108,20.671,-66.829,-77.927,13_6_1.csv
2018-07-11T12:49:38.305848,-0.801,-0.437,-0.061,4.329,-41.098,-77.073,13_6_1.csv
2018-07-11T12:49:38.373033,-0.894,-0.33,0.047,-22.683,0.671,-34.939,13_6_1.csv
2018-07-11T12:49:38.425172,-0.894,-0.33,0.047,-35.915,28.537,-4.39,13_6_1.csv
2018-07-11T12:49:38.472801,-0.999,-0.396,0.163,-50.915,36.829,46.159,13_6_1.csv
2018-07-11T12:49:38.529452,-0.996,-0.466,0.302,12.317,89.634,125.976,13_6_1.csv
2018-07-11T12:49:38.575074,-0.996,-0.466,0.302,29.451,78.11,125.305,13_6_1.csv
2018-07-11T12:49:38.624706,-1.033,-0.431,0.229,-11.402,45.061,108.11,13_6_1.csv
2018-07-11T12:49:38.669828,-1.033,-0.431,0.229,-61.829,24.329,83.232,13_6_1.csv
2018-07-11T12:49:38.728986,-0.922,-0.557,0.136,-52.012,2.805,39.512,13_6_1.csv
2018-07-11T12:49:38.799179,-0.845,-0.509,0.212,-34.268,7.988,22.683,13_6_1.csv
2018-07-11T12:49:38.858338,-0.856,-0.49,0.273,-21.768,-10.244,-1.22,13_6_1.csv
2018-07-11T12:49:38.920504,-0.856,-0.49,0.273,2.256,-9.024,1.28,13_6_1.csv
2018-07-11T12:49:38.983672,-0.968,-0.555,0.24,45.854,-0.732,14.512,13_6_1.csv
2018-07-11T12:49:39.061881,-1.158,-0.683,0.141,62.439,3.537,1.646,13_6_1.csv
2018-07-11T12:49:39.112516,-1.094,-0.788,0.07,94.207,21.89,-1.098,13_6_1.csv
2018-07-11T12:49:39.164655,-1.094,-0.788,0.07,143.902,19.451,-7.256,13_6_1.csv
2018-07-11T12:49:39.232335,-1.054,-0.651,-0.102,113.049,-38.841,-51.341,13_6_1.csv
2018-07-11T12:49:39.278458,-1.008,-0.568,-0.184,77.744,-49.878,-75.549,13_6_1.csv
2018-07-11T12:49:39.327088,-0.937,-0.499,-0.191,18.902,-44.512,-135.549,13_6_1.csv
2018-07-11T12:49:39.374717,-0.937,-0.499,-0.191,13.841,-32.439,-145.366,13_6_1.csv
2018-07-11T12:49:39.419837,-0.892,-0.441,-0.122,18.049,-17.439,-144.512,13_6_1.csv
2018-07-11T12:49:39.560716,-0.905,-0.396,0.092,99.024,67.073,-85.915,13_6_1.csv
2018-07-11T12:49:39.674520,-1.08,-0.092,0.235,-42.5,60.671,61.707,13_6_1.csv
2018-07-11T12:49:39.726659,-1.08,-0.092,0.235,-121.707,41.829,117.134,13_6_1.csv
2018-07-11T12:49:39.793843,-1.182,-0.46,0.229,-58.72,79.878,194.817,13_6_1.csv
2018-07-11T12:49:39.861023,-1.322,-0.515,0.115,-133.781,4.329,162.927,13_6_1.csv
2018-07-11T12:49:39.982347,-0.816,-0.641,0.203,-55.488,-7.378,42.988,13_6_1.csv
2018-07-11T12:49:40.030475,-0.816,-0.641,0.203,-48.598,-17.927,15.366,13_6_1.csv
2018-07-11T12:49:40.074593,-0.837,-0.613,0.216,-32.744,-20.427,-8.354,13_6_1.csv
2018-07-11T12:49:40.132751,-1.078,-0.617,0.002,41.646,-9.695,-39.756,13_6_1.csv
2018-07-11T12:49:40.183887,-1.078,-0.617,0.002,68.11,-9.512,-63.72,13_6_1.csv
2018-07-11T12:49:40.236032,-1.406,-0.601,-0.357,89.634,16.463,-93.415,13_6_1.csv
2018-07-11T12:49:40.282154,-1.406,-0.601,-0.357,112.988,108.11,-117.988,13_6_1.csv
2018-07-11T12:49:40.327279,-1.383,-0.096,-0.539,132.805,192.317,-99.024,13_6_1.csv
2018-07-11T12:49:40.373402,-0.853,0.379,-0.362,-32.439,123.598,-69.512,13_6_1.csv
2018-07-11T12:49:40.433567,-0.853,0.379,-0.362,-160.61,96.402,-60.183,13_6_1.csv
2018-07-11T12:49:40.481695,-0.621,-0.335,-0.5,-257.805,115.0,-50.671,13_6_1.csv
2018-07-11T12:49:40.526822,-0.621,-0.335,-0.5,-262.805,128.049,-38.171,13_6_1.csv
2018-07-11T12:49:40.576956,-0.479,-0.726,-0.413,14.146,71.402,49.268,13_6_1.csv
2018-07-11T12:49:40.623083,-0.494,-0.44,-0.679,38.537,52.561,56.402,13_6_1.csv
2018-07-11T12:49:40.669205,-0.494,-0.44,-0.679,108.598,20.0,79.268,13_6_1.csv
2018-07-11T12:49:40.721905,-0.601,-0.316,-0.812,57.012,26.585,37.5,13_6_1.csv
2018-07-11T12:49:40.778055,-0.571,-0.707,-0.813,89.39,-14.634,77.927,13_6_1.csv
2018-07-11T12:49:40.825186,-0.571,-0.707,-0.813,116.281,-19.939,100.549,13_6_1.csv
2018-07-11T12:49:40.873315,-0.726,-0.733,-0.594,139.085,12.5,86.768,13_6_1.csv
2018-07-11T12:49:40.919442,-0.726,-0.733,-0.594,124.146,-7.866,46.28,13_6_1.csv
2018-07-11T12:49:40.965565,-0.678,-0.333,-0.641,196.768,-22.256,74.268,13_6_1.csv
2018-07-11T12:49:41.082883,-0.792,-0.143,-0.667,-59.268,121.524,-109.085,13_6_1.csv
2018-07-11T12:49:41.122490,-0.472,-0.307,-0.211,-50.915,96.585,-72.988,13_6_1.csv
2018-07-11T12:49:41.177137,-0.164,-0.493,-0.379,59.268,20.854,87.256,13_6_1.csv
2018-07-11T12:49:41.294950,-0.703,-0.601,-0.665,58.841,27.012,55.732,13_6_1.csv
2018-07-11T12:49:41.358620,-0.855,-0.656,-0.657,50.0,55.183,11.707,13_6_1.csv
2018-07-11T12:49:41.409756,-0.855,-0.656,-0.657,39.207,31.159,-13.11,13_6_1.csv
2018-07-11T12:49:41.452370,-0.641,-0.593,-0.709,-2.683,31.89,-30.793,13_6_1.csv
2018-07-11T12:49:41.502503,-0.541,-0.721,-0.85,-12.561,47.195,-6.829,13_6_1.csv
2018-07-11T12:49:41.560161,-0.541,-0.721,-0.85,43.171,17.683,35.427,13_6_1.csv
2018-07-11T12:49:41.622830,-0.254,-0.403,-0.796,12.439,44.085,44.085,13_6_1.csv
2018-07-11T12:49:41.746164,-0.418,-0.437,-0.648,-51.829,21.646,46.402,13_6_1.csv
2018-07-11T12:49:41.809834,-0.418,-0.437,-0.648,-57.988,10.0,44.207,13_6_1.csv
2018-07-11T12:49:41.857962,-0.484,-0.664,-0.69,-25.671,-9.512,52.5,13_6_1.csv
2018-07-11T12:49:41.904085,-0.529,-0.481,-0.793,16.951,-10.671,47.317,13_6_1.csv
2018-07-11T12:49:41.949706,-0.529,-0.481,-0.793,2.988,-6.585,43.659,13_6_1.csv
2018-07-11T12:49:41.999339,-0.707,-0.236,-0.878,-23.476,-20.0,38.11,13_6_1.csv
2018-07-11T12:49:42.077547,-0.687,-0.434,-0.978,-98.293,-63.598,-36.768,13_6_1.csv
2018-07-11T12:49:42.123169,-0.687,-0.434,-0.978,-85.244,-43.598,-39.878,13_6_1.csv
2018-07-11T12:49:42.169793,-0.415,-0.466,-0.805,40.0,11.951,30.366,13_6_1.csv
2018-07-11T12:49:42.216919,-0.415,-0.466,-0.805,152.317,86.707,124.085,13_6_1.csv
2018-07-11T12:49:42.262540,-0.473,-0.273,-0.526,139.085,86.89,101.768,13_6_1.csv
2018-07-11T12:49:42.309666,-0.573,-0.347,-0.38,188.963,64.634,163.293,13_6_1.csv
2018-07-11T12:49:42.395898,-0.921,-0.088,-0.292,195.793,-34.939,219.756,13_6_1.csv
2018-07-11T12:49:42.450042,-0.921,-0.088,-0.292,135.427,-92.622,169.451,13_6_1.csv
2018-07-11T12:49:42.498175,-1.041,-0.627,-0.393,27.256,-74.878,29.817,13_6_1.csv
2018-07-11T12:49:42.592930,-0.872,-0.717,-0.296,95.244,-107.378,-0.915,13_6_1.csv
2018-07-11T12:49:42.639053,-0.751,-0.998,-0.143,135.0,-105.854,24.512,13_6_1.csv
2018-07-11T12:49:42.687181,-0.751,-0.998,-0.143,215.183,-83.902,71.341,13_6_1.csv
2018-07-11T12:49:42.737314,-1.053,-1.156,-0.044,292.866,-46.341,113.049,13_6_1.csv
2018-07-11T12:49:42.778424,-1.053,-1.156,-0.044,321.768,-27.256,122.927,13_6_1.csv
2018-07-11T12:49:42.841091,-1.338,-0.69,0.024,54.573,-120.305,-121.585,13_6_1.csv
2018-07-11T12:49:42.888718,-1.074,-0.878,-0.085,31.341,-134.207,-176.463,13_6_1.csv
2018-07-11T12:49:42.934841,-1.074,-0.878,-0.085,67.378,-126.646,-161.037,13_6_1.csv
2018-07-11T12:49:42.981468,-0.82,-0.593,-0.1,79.512,-116.281,-146.585,13_6_1.csv
2018-07-11T12:49:43.033607,-0.591,-0.388,0.038,-8.902,-76.707,-170.915,13_6_1.csv
2018-07-11T12:49:43.076726,-0.591,-0.388,0.038,-41.707,-34.756,-154.207,13_6_1.csv
2018-07-11T12:49:43.121846,-0.426,-0.312,0.173,-48.963,1.159,-119.817,13_6_1.csv
2018-07-11T12:49:43.170982,-0.426,-0.312,0.173,-40.61,36.707,-71.951,13_6_1.csv
2018-07-11T12:49:43.217105,-0.62,-0.398,0.235,-20.244,65.732,-1.768,13_6_1.csv
2018-07-11T12:49:43.279272,-1.038,-0.36,0.212,36.524,122.439,127.744,13_6_1.csv
2018-07-11T12:49:43.344947,-1.038,-0.36,0.212,11.341,135.061,162.256,13_6_1.csv
2018-07-11T12:49:43.389065,-1.305,-0.182,0.204,-198.354,109.756,142.378,13_6_1.csv
2018-07-11T12:49:43.435689,-1.459,-0.543,-0.047,-247.5,59.085,147.5,13_6_1.csv
2018-07-11T12:49:43.498357,-1.459,-0.543,-0.047,-229.756,-3.963,160.915,13_6_1.csv
2018-07-11T12:49:43.575562,-1.293,-0.96,-0.015,-80.122,16.646,167.439,13_6_1.csv
2018-07-11T12:49:43.623189,-0.917,-0.641,0.126,5.549,55.976,99.512,13_6_1.csv
2018-07-11T12:49:43.678336,-0.903,-0.461,0.129,-48.598,5.732,-46.707,13_6_1.csv
2018-07-11T12:49:43.759051,-0.872,-0.55,0.152,-20.244,-28.72,-55.488,13_6_1.csv
2018-07-11T12:49:43.809686,-0.872,-0.55,0.152,15.915,-13.476,-58.841,13_6_1.csv
2018-07-11T12:49:43.857814,-1.007,-0.438,0.078,37.256,-6.829,-68.476,13_6_1.csv
2018-07-11T12:49:43.902934,-1.007,-0.438,0.078,39.085,-19.939,-77.5,13_6_1.csv
2018-07-11T12:49:43.988164,-1.036,-0.426,-0.039,12.5,-24.573,-80.915,13_6_1.csv
2018-07-11T12:49:44.040303,-1.118,-0.711,-0.076,92.5,21.646,-17.256,13_6_1.csv
2018-07-11T12:49:44.090940,-1.009,-0.679,-0.067,157.683,61.707,-6.098,13_6_1.csv
2018-07-11T12:49:44.139068,-1.009,-0.679,-0.067,195.549,67.134,-28.963,13_6_1.csv
2018-07-11T12:49:44.186698,-1.104,-0.361,-0.106,176.342,23.232,-56.707,13_6_1.csv
2018-07-11T12:49:44.229813,-1.104,-0.361,-0.106,119.085,-18.841,-65.671,13_6_1.csv
2018-07-11T12:49:44.277946,-0.939,-0.334,-0.055,5.671,-25.915,-66.463,13_6_1.csv
2018-07-11T12:49:44.330086,-0.818,-0.341,-0.091,-25.976,-41.951,-75.549,13_6_1.csv
2018-07-11T12:49:44.387242,-0.818,-0.341,-0.091,-47.073,-51.707,-73.232,13_6_1.csv
2018-07-11T12:49:44.434368,-0.776,-0.316,-0.083,-74.268,-38.049,-23.659,13_6_1.csv
2018-07-11T12:49:44.503554,-0.779,-0.358,-0.034,-73.841,-25.0,19.207,13_6_1.csv
2018-07-11T12:49:44.624376,-0.955,-0.387,-0.025,-82.561,-13.72,130.0,13_6_1.csv
2018-07-11T12:49:44.669497,-1.567,-0.603,-0.19,-123.963,-34.817,161.524,13_6_1.csv
2018-07-11T12:49:44.735673,-1.209,-0.708,-0.305,-270.061,-104.085,148.171,13_6_1.csv
2018-07-11T12:49:44.786308,-1.209,-0.708,-0.305,-295.915,-108.232,8.963,13_6_1.csv
2018-07-11T12:49:44.827419,-0.916,-0.506,-0.264,-223.476,-67.378,-124.146,13_6_1.csv
2018-07-11T12:49:44.874041,-0.885,-0.324,-0.391,-149.756,-75.854,-157.866,13_6_1.csv
2018-07-11T12:49:44.924175,-0.885,-0.324,-0.391,-326.768,-170.366,-99.329,13_6_1.csv
2018-07-11T12:49:44.971301,-0.568,-0.624,-0.255,-337.256,-167.378,-108.781,13_6_1.csv
2018-07-11T12:49:45.021435,-0.568,-0.624,-0.255,-211.463,-116.342,-99.817,13_6_1.csv
2018-07-11T12:49:45.117190,-0.615,-0.578,-0.088,-123.659,-217.683,3.963,13_6_1.csv
2018-07-11T12:49:45.169329,-0.615,-0.578,-0.088,-137.5,-232.317,45.854,13_6_1.csv
2018-07-11T12:49:45.217457,-0.577,-0.703,-0.121,-169.756,-222.195,67.622,13_6_1.csv
2018-07-11T12:49:45.263079,-0.577,-0.703,-0.121,-157.439,-184.085,83.537,13_6_1.csv
2018-07-11T12:49:45.420999,-1.185,-0.878,-0.056,-23.841,20.549,135.976,13_6_1.csv
2018-07-11T12:49:45.514750,-1.007,-0.915,-0.033,62.195,68.232,40.854,13_6_1.csv
2018-07-11T12:49:45.560872,-0.985,-0.646,0.006,94.207,51.159,-61.951,13_6_1.csv
2018-07-11T12:49:45.606494,-0.9,-0.463,0.012,51.463,2.866,-66.829,13_6_1.csv
2018-07-11T12:49:45.655123,-0.9,-0.463,0.012,15.671,-15.427,-65.183,13_6_1.csv
2018-07-11T12:49:45.701748,-0.854,-0.55,-0.017,9.512,-15.549,-58.049,13_6_1.csv
2018-07-11T12:49:45.747871,-0.854,-0.55,-0.017,12.927,-19.146,-51.829,13_6_1.csv
2018-07-11T12:49:45.802516,-0.902,-0.524,-0.026,-4.695,-21.829,-59.268,13_6_1.csv
2018-07-11T12:49:45.862175,-0.858,-0.454,-0.012,-22.744,-33.659,-67.622,13_6_1.csv
2018-07-11T12:49:45.910304,-0.858,-0.454,-0.012,-22.073,-35.366,-67.012,13_6_1.csv
2018-07-11T12:49:45.981493,-0.848,-0.412,0.025,-17.927,-25.854,-31.951,13_6_1.csv
2018-07-11T12:49:46.029621,-0.93,-0.4,0.001,-48.293,-11.951,-0.793,13_6_1.csv
2018-07-11T12:49:46.075243,-0.93,-0.4,0.001,-52.561,8.171,31.829,13_6_1.csv
2018-07-11T12:49:46.131894,-1.147,-0.425,-0.096,-36.646,-16.037,79.817,13_6_1.csv
2018-07-11T12:49:46.190049,-1.206,-0.419,-0.131,-71.22,-33.476,89.451,13_6_1.csv
2018-07-11T12:49:46.236676,-1.206,-0.419,-0.131,-109.268,-41.28,90.366,13_6_1.csv
2018-07-11T12:49:46.284804,-0.923,-0.408,-0.222,-243.598,-40.61,-21.646,13_6_1.csv
2018-07-11T12:49:46.324915,-0.823,-0.554,-0.347,-226.585,-71.951,-44.939,13_6_1.csv
2018-07-11T12:49:46.376052,-0.823,-0.554,-0.347,-171.89,-89.268,-48.72,13_6_1.csv
2018-07-11T12:49:46.480834,-0.634,-0.508,-0.163,-87.683,-42.744,-21.829,13_6_1.csv
2018-07-11T12:49:46.528460,-0.667,-0.467,0.056,8.78,7.012,32.988,13_6_1.csv
2018-07-11T12:49:46.576589,-0.798,-0.426,0.175,21.524,15.732,57.622,13_6_1.csv
2018-07-11T12:49:46.623213,-0.798,-0.426,0.175,17.073,25.244,73.415,13_6_1.csv
2018-07-11T12:49:46.670338,-1.075,-0.545,0.289,70.366,12.988,67.256,13_6_1.csv
2018-07-11T12:49:46.716963,-1.075,-0.545,0.289,93.537,-17.683,41.159,13_6_1.csv
2018-07-11T12:49:46.777760,-1.172,-0.584,0.344,-79.756,-10.793,-5.61,13_6_1.csv
2018-07-11T12:49:46.856470,-1.045,-0.814,0.194,12.378,0.915,-23.963,13_6_1.csv
2018-07-11T12:49:46.919639,-1.132,-0.74,-0.016,87.988,14.939,-35.732,13_6_1.csv
2018-07-11T12:49:46.971277,-1.403,-0.471,-0.159,100.488,-50.061,-78.11,13_6_1.csv
2018-07-11T12:49:47.013388,-1.403,-0.471,-0.159,3.72,-64.939,-111.402,13_6_1.csv
2018-07-11T12:49:47.060013,-1.111,-0.431,-0.154,-64.146,-57.744,-169.146,13_6_1.csv
2018-07-11T12:49:47.112653,-1.111,-0.431,-0.154,-53.476,-56.951,-213.781,13_6_1.csv
2018-07-11T12:49:47.153763,-0.864,-0.39,0.021,-2.622,-62.378,-213.598,13_6_1.csv
2018-07-11T12:49:47.200387,-0.864,-0.39,0.021,52.805,-50.122,-179.085,13_6_1.csv
2018-07-11T12:49:47.249518,-0.626,-0.119,0.238,69.329,-17.866,-51.037,13_6_1.csv
2018-07-11T12:49:47.294139,-0.577,-0.146,0.173,8.049,-25.427,16.098,13_6_1.csv
2018-07-11T12:49:47.340262,-0.577,-0.146,0.173,-19.695,-22.988,89.268,13_6_1.csv
2018-07-11T12:49:47.397416,-1.054,-0.46,-0.086,-37.5,-16.829,157.073,13_6_1.csv
2018-07-11T12:49:47.455070,-1.448,-0.672,-0.199,-138.232,-45.183,237.622,13_6_1.csv
2018-07-11T12:49:47.502195,-1.448,-0.672,-0.199,-170.366,-38.293,245.854,13_6_1.csv
2018-07-11T12:49:47.561383,-1.256,-0.683,-0.181,-156.22,-5.183,210.183,13_6_1.csv
2018-07-11T12:49:47.606005,-1.256,-0.683,-0.181,-129.268,-3.72,140.366,13_6_1.csv
2018-07-11T12:49:47.652130,-1.042,-0.572,-0.141,-159.146,-19.634,49.634,13_6_1.csv
2018-07-11T12:49:47.707278,-0.81,-0.465,-0.052,-150.488,-10.305,34.024,13_6_1.csv
2018-07-11T12:49:47.762428,-0.81,-0.465,-0.052,-143.598,0.427,23.598,13_6_1.csv
2018-07-11T12:49:47.866711,-0.778,-0.567,0.237,-117.073,23.232,7.988,13_6_1.csv
2018-07-11T12:49:47.921862,-0.778,-0.567,0.237,-85.915,36.402,5.366,13_6_1.csv
2018-07-11T12:49:47.968988,-1.091,-0.659,0.225,-44.634,37.866,11.28,13_6_1.csv
2018-07-11T12:49:48.015113,-1.414,-0.726,0.159,8.049,28.72,-10.122,13_6_1.csv
2018-07-11T12:49:48.071265,-1.414,-0.726,0.159,45.732,13.232,-29.939,13_6_1.csv
2018-07-11T12:49:48.123410,-1.207,-0.593,0.061,86.098,-2.073,-47.744,13_6_1.csv
2018-07-11T12:49:48.168530,-1.207,-0.593,0.061,71.463,-49.329,-107.622,13_6_1.csv
2018-07-11T12:49:48.217664,-1.274,-0.552,-0.092,75.915,-106.951,-145.915,13_6_1.csv
2018-07-11T12:49:48.263789,-1.165,-0.431,-0.044,58.171,-98.476,-147.927,13_6_1.csv
2018-07-11T12:49:48.513456,-0.626,-0.07,0.137,9.756,-41.524,-36.524,13_6_1.csv
2018-07-11T12:49:48.596678,-0.836,-0.32,-0.036,-64.39,-23.841,99.695,13_6_1.csv
2018-07-11T12:49:48.701958,-1.446,-0.619,-0.184,-129.024,-26.402,278.476,13_6_1.csv
2018-07-11T12:49:48.803729,-1.497,-0.697,-0.177,-145.0,9.39,217.195,13_6_1.csv
2018-07-11T12:49:48.936584,-0.812,-0.519,-0.018,-202.866,-10.0,-19.817,13_6_1.csv
2018-07-11T12:49:48.982707,-0.661,-0.502,0.062,-192.317,-23.598,-28.415,13_6_1.csv
2018-07-11T12:49:49.213321,-0.944,-0.648,0.265,21.524,46.707,30.183,13_6_1.csv
2018-07-11T12:49:49.269973,-1.185,-0.622,0.159,12.256,28.963,3.598,13_6_1.csv
2018-07-11T12:49:49.328127,-1.218,-0.945,-0.01,20.732,4.634,-16.646,13_6_1.csv
2018-07-11T12:49:49.378762,-1.402,-0.678,-0.179,192.866,5.488,-87.988,13_6_1.csv
2018-07-11T12:49:49.424384,-1.402,-0.678,-0.179,189.207,-41.463,-157.927,13_6_1.csv
2018-07-11T12:49:49.473515,-1.402,-0.358,-0.108,133.476,-82.073,-180.793,13_6_1.csv
2018-07-11T12:49:49.518134,-1.402,-0.358,-0.108,57.622,-77.5,-191.403,13_6_1.csv
2018-07-11T12:49:49.571777,-1.037,-0.369,0.003,7.744,-50.549,-200.183,13_6_1.csv
2018-07-11T12:49:49.659009,-0.807,-0.291,0.11,39.512,-33.476,-178.232,13_6_1.csv
2018-07-11T12:49:49.702124,-0.468,-0.101,0.366,79.451,-8.354,-82.5,13_6_1.csv
2018-07-11T12:49:49.747746,-0.468,-0.101,0.366,68.415,40.61,-17.317,13_6_1.csv
2018-07-11T12:49:49.795373,-0.631,-0.25,0.354,51.89,77.5,70.0,13_6_1.csv
2018-07-11T12:49:49.889122,-1.154,-0.46,-0.024,20.976,17.622,206.585,13_6_1.csv
2018-07-11T12:49:49.943768,-1.278,-0.676,-0.084,-104.756,-75.793,199.878,13_6_1.csv
2018-07-11T12:49:49.998916,-1.278,-0.676,-0.084,-122.866,-31.037,214.756,13_6_1.csv
2018-07-11T12:49:50.045038,-1.178,-0.558,0.01,-164.573,58.354,184.39,13_6_1.csv
2018-07-11T12:49:50.094671,-1.178,-0.558,0.01,-220.671,86.707,116.281,13_6_1.csv
2018-07-11T12:49:50.138788,-1.027,-0.628,-0.066,-211.281,80.793,74.451,13_6_1.csv
2018-07-11T12:49:50.198951,-0.834,-0.549,0.023,-107.805,19.756,31.951,13_6_1.csv
2018-07-11T12:49:50.257108,-0.834,-0.549,0.023,-93.232,12.317,24.024,13_6_1.csv
2018-07-11T12:49:50.310751,-0.866,-0.464,0.244,-94.512,56.585,28.354,13_6_1.csv
2018-07-11T12:49:50.360382,-0.981,-0.601,0.33,-112.561,52.5,17.195,13_6_1.csv
2018-07-11T12:49:50.410516,-0.981,-0.601,0.33,-59.817,52.256,12.134,13_6_1.csv
2018-07-11T12:49:50.467167,-1.336,-0.658,0.315,85.244,30.122,13.72,13_6_1.csv
2018-07-11T12:49:50.568941,-1.458,-0.517,0.176,33.659,-76.463,-46.463,13_6_1.csv
2018-07-11T12:49:50.612056,-1.109,-0.614,-0.053,57.439,-106.281,-63.841,13_6_1.csv
2018-07-11T12:49:50.655173,-1.109,-0.614,-0.053,90.0,-123.72,-76.22,13_6_1.csv
2018-07-11T12:49:50.702302,-1.139,-0.593,-0.154,100.793,-129.39,-80.183,13_6_1.csv
2018-07-11T12:49:50.749430,-1.03,-0.475,-0.102,55.305,-114.207,-107.805,13_6_1.csv
2018-07-11T12:49:50.809590,-1.03,-0.475,-0.102,18.171,-113.781,-142.927,13_6_1.csv
2018-07-11T12:49:50.856716,-0.885,-0.398,0.052,-15.61,-90.183,-160.793,13_6_1.csv
2018-07-11T12:49:50.933421,-0.813,-0.4,0.197,-12.927,-26.524,-157.134,13_6_1.csv
2018-07-11T12:49:50.982552,-0.813,-0.4,0.197,44.939,2.378,-122.5,13_6_1.csv
2018-07-11T12:49:51.031683,-0.779,-0.175,0.284,65.366,25.061,-26.402,13_6_1.csv
2018-07-11T12:49:51.075800,-0.916,-0.085,0.08,-30.244,38.415,14.146,13_6_1.csv
2018-07-11T12:49:51.140974,-0.916,-0.085,0.08,-113.963,40.488,81.159,13_6_1.csv
2018-07-11T12:49:51.200633,-1.086,-0.606,0.018,-63.293,93.476,211.768,13_6_1.csv
2018-07-11T12:49:51.252270,-1.28,-0.632,0.128,12.256,111.342,211.89,13_6_1.csv
2018-07-11T12:49:51.298394,-1.28,-0.632,0.128,-67.866,73.476,185.671,13_6_1.csv
2018-07-11T12:49:51.357050,-1.127,-0.704,0.15,-194.085,40.671,113.415,13_6_1.csv
2018-07-11T12:49:51.405178,-0.873,-0.742,0.213,-102.439,31.585,79.268,13_6_1.csv
2018-07-11T12:49:51.458320,-0.873,-0.742,0.213,-82.134,25.61,43.963,13_6_1.csv
2018-07-11T12:49:51.498928,-0.846,-0.61,0.291,-90.732,10.122,18.171,13_6_1.csv
2018-07-11T12:49:51.593680,-0.908,-0.572,0.322,-39.024,5.732,-50.732,13_6_1.csv
2018-07-11T12:49:51.675400,-1.162,-0.533,0.204,-13.598,-11.951,-49.146,13_6_1.csv
2018-07-11T12:49:51.732049,-1.174,-0.653,0.122,1.463,-12.927,-44.634,13_6_1.csv
2018-07-11T12:49:51.785191,-1.174,-0.653,0.122,51.159,-8.963,-32.866,13_6_1.csv
2018-07-11T12:49:51.842844,-1.222,-0.693,0.014,115.854,-36.89,-71.524,13_6_1.csv
2018-07-11T12:49:51.934088,-1.352,-0.555,-0.116,70.305,-66.89,-118.354,13_6_1.csv
2018-07-11T12:49:51.981213,-1.026,-0.465,0.069,60.305,-68.415,-123.598,13_6_1.csv
2018-07-11T12:49:52.028339,-1.026,-0.465,0.069,97.195,-56.037,-118.11,13_6_1.csv
2018-07-11T12:49:52.077470,-0.887,-0.212,0.185,99.207,-74.817,-84.024,13_6_1.csv
2018-07-11T12:49:52.138633,-0.706,-0.092,0.095,40.793,-61.951,-65.854,13_6_1.csv
2018-07-11T12:49:52.190271,-0.706,-0.092,0.095,8.415,-54.878,-32.622,13_6_1.csv
2018-07-11T12:49:52.236393,-0.629,-0.103,0.018,-100.122,-68.659,27.134,13_6_1.csv
2018-07-11T12:49:52.286527,-0.781,-0.449,-0.081,-132.256,-44.146,81.585,13_6_1.csv
2018-07-11T12:49:52.326634,-0.781,-0.449,-0.081,-108.842,-16.646,140.122,13_6_1.csv
2018-07-11T12:49:52.376767,-1.232,-0.713,-0.114,-97.195,17.927,199.146,13_6_1.csv
2018-07-11T12:49:52.421386,-1.232,-0.713,-0.114,-126.402,38.415,227.073,13_6_1.csv
2018-07-11T12:49:52.466005,-1.416,-0.823,-0.134,-181.159,42.256,225.427,13_6_1.csv
2018-07-11T12:49:52.515637,-1.141,-0.836,-0.007,-178.171,16.22,139.817,13_6_1.csv
2018-07-11T12:49:52.562262,-1.141,-0.836,-0.007,-163.476,21.402,69.085,13_6_1.csv
2018-07-11T12:49:52.611894,-0.849,-0.561,0.129,-176.463,-15.183,-1.585,13_6_1.csv
2018-07-11T12:49:52.659020,-0.849,-0.561,0.129,-196.89,-39.329,-32.744,13_6_1.csv
2018-07-11T12:49:52.716172,-0.703,-0.45,0.209,-172.5,-50.122,-30.793,13_6_1.csv
2018-07-11T12:49:52.764803,-0.768,-0.523,0.267,-160.61,-39.451,-22.256,13_6_1.csv
2018-07-11T12:49:52.809922,-0.768,-0.523,0.267,-111.768,-20.793,-1.098,13_6_1.csv
2018-07-11T12:49:52.860557,-1.015,-0.623,0.335,-46.341,6.89,26.037,13_6_1.csv
2018-07-11T12:49:52.903672,-1.015,-0.623,0.335,7.378,32.439,39.085,13_6_1.csv
2018-07-11T12:49:52.953304,-1.184,-0.611,0.336,12.012,20.183,28.476,13_6_1.csv
2018-07-11T12:49:53.106212,-1.18,-0.676,0.039,60.183,-52.012,-89.451,13_6_1.csv
2018-07-11T12:49:53.154340,-1.18,-0.676,0.039,45.549,-66.585,-135.61,13_6_1.csv
2018-07-11T12:49:53.201465,-1.179,-0.518,-0.079,48.659,-66.22,-146.22,13_6_1.csv
2018-07-11T12:49:53.298725,-0.961,-0.398,-0.004,14.634,-49.085,-149.817,13_6_1.csv
2018-07-11T12:49:53.341338,-0.862,-0.315,0.048,40.244,-50.0,-140.671,13_6_1.csv
2018-07-11T12:49:53.388464,-0.862,-0.315,0.048,70.0,-66.341,-131.22,13_6_1.csv
2018-07-11T12:49:53.444615,-0.648,-0.195,0.192,8.598,-30.244,-44.39,13_6_1.csv
2018-07-11T12:49:53.502272,-0.656,-0.223,0.165,-4.695,14.756,23.902,13_6_1.csv
2018-07-11T12:49:53.559928,-1.316,-0.253,0.249,-23.598,76.951,159.085,13_6_1.csv
2018-07-11T12:49:53.607056,-1.316,-0.253,0.249,-117.5,38.78,219.024,13_6_1.csv
2018-07-11T12:49:53.653182,-1.527,-0.631,-0.077,-326.524,-70.366,236.342,13_6_1.csv
2018-07-11T12:49:53.701814,-1.527,-0.631,-0.077,-373.902,-141.463,221.768,13_6_1.csv
2018-07-11T12:49:53.754457,-1.193,-1.012,-0.11,-240.732,-134.756,195.366,13_6_1.csv
2018-07-11T12:49:53.829662,-0.885,-0.688,-0.039,-109.939,-75.244,109.207,13_6_1.csv
2018-07-11T12:49:53.888820,-0.683,-0.533,0.039,-167.744,-47.378,-29.146,13_6_1.csv
2018-07-11T12:49:53.935950,-0.683,-0.533,0.039,-154.451,-40.061,-59.573,13_6_1.csv
2018-07-11T12:49:53.981071,-0.624,-0.494,0.18,-108.842,-21.829,-57.866,13_6_1.csv
2018-07-11T12:49:54.028202,-0.624,-0.494,0.18,-62.927,-9.024,-27.561,13_6_1.csv
2018-07-11T12:49:54.185625,-1.051,-0.652,0.34,-16.098,56.22,59.756,13_6_1.csv
2018-07-11T12:49:54.279879,-1.047,-0.741,0.288,-4.756,25.366,41.951,13_6_1.csv
2018-07-11T12:49:54.326503,-0.995,-1.004,0.186,74.756,15.793,-17.073,13_6_1.csv
2018-07-11T12:49:54.375132,-1.168,-0.877,0.032,127.927,26.707,-68.78,13_6_1.csv
2018-07-11T12:49:54.420253,-1.168,-0.877,0.032,150.732,26.585,-123.537,13_6_1.csv
2018-07-11T12:49:54.466877,-1.162,-0.496,0.013,150.549,9.939,-148.293,13_6_1.csv
2018-07-11T12:49:54.522525,-1.162,-0.496,0.013,103.11,-20.0,-161.646,13_6_1.csv
2018-07-11T12:49:54.576168,-1.019,-0.349,0.014,59.329,-59.39,-148.781,13_6_1.csv
2018-07-11T12:49:54.659893,-0.825,-0.294,0.058,31.463,-46.402,-91.829,13_6_1.csv
2018-07-11T12:49:54.721062,-0.77,-0.234,0.085,46.22,-41.098,-31.098,13_6_1.csv
2018-07-11T12:49:54.769191,-0.966,-0.147,0.028,14.085,-1.89,69.329,13_6_1.csv
2018-07-11T12:49:54.830358,-0.966,-0.147,0.028,-68.841,19.756,115.976,13_6_1.csv
2018-07-11T12:49:54.885505,-1.102,-0.403,-0.003,-91.402,55.488,150.915,13_6_1.csv
2018-07-11T12:49:54.936646,-1.306,-0.462,0.051,-60.366,79.817,165.183,13_6_1.csv
2018-07-11T12:49:54.983771,-1.306,-0.462,0.051,-127.561,35.671,169.573,13_6_1.csv
2018-07-11T12:49:55.027894,-1.127,-0.685,0.126,-186.829,14.939,158.476,13_6_1.csv
2018-07-11T12:49:55.138691,-0.871,-0.704,0.206,-122.195,7.317,17.073,13_6_1.csv
2018-07-11T12:49:55.201859,-0.838,-0.587,0.254,-118.902,-8.537,-14.756,13_6_1.csv
2018-07-11T12:49:55.246478,-0.838,-0.587,0.254,-103.415,-16.159,-23.354,13_6_1.csv
2018-07-11T12:49:55.309197,-0.843,-0.604,0.329,-3.78,-19.634,-10.122,13_6_1.csv
2018-07-11T12:49:55.357325,-1.062,-0.616,0.259,4.146,-12.439,-10.427,13_6_1.csv
2018-07-11T12:49:55.418494,-1.249,-0.921,0.02,0.0,-8.902,-22.439,13_6_1.csv
2018-07-11T12:49:55.470134,-1.249,-0.921,0.02,51.037,3.598,-32.927,13_6_1.csv
2018-07-11T12:49:55.516761,-1.186,-0.848,-0.094,144.878,22.5,-69.451,13_6_1.csv
2018-07-11T12:49:55.579933,-1.324,-0.462,-0.159,193.963,-3.476,-146.585,13_6_1.csv
2018-07-11T12:49:55.632074,-1.324,-0.462,-0.159,176.951,-25.488,-135.671,13_6_1.csv
2018-07-11T12:49:55.686223,-1.056,-0.273,-0.046,122.683,-50.488,-129.573,13_6_1.csv
2018-07-11T12:49:55.730340,-0.843,-0.26,0.054,-7.195,-70.549,-144.39,13_6_1.csv
2018-07-11T12:49:55.778471,-0.843,-0.26,0.054,-31.037,-76.585,-139.573,13_6_1.csv
2018-07-11T12:49:55.826601,-0.661,-0.249,0.148,-24.39,-68.232,-119.024,13_6_1.csv
2018-07-11T12:49:55.872726,-0.661,-0.249,0.148,-0.366,-37.988,-73.476,13_6_1.csv
2018-07-11T12:49:55.931886,-0.606,-0.173,0.161,-17.927,18.72,52.073,13_6_1.csv
2018-07-11T12:49:56.027146,-0.969,-0.395,0.039,-37.744,34.512,178.72,13_6_1.csv
2018-07-11T12:49:56.075276,-1.434,-0.651,0.004,-69.451,44.939,209.024,13_6_1.csv
2018-07-11T12:49:56.123407,-1.434,-0.651,0.004,-108.72,56.768,233.781,13_6_1.csv
2018-07-11T12:49:56.172537,-1.372,-0.792,0.069,-94.024,64.085,198.781,13_6_1.csv
2018-07-11T12:49:56.220670,-1.114,-0.717,0.079,-109.817,47.988,136.159,13_6_1.csv
2018-07-11T12:49:56.285844,-1.114,-0.717,0.079,-157.073,12.073,68.476,13_6_1.csv
2018-07-11T12:49:56.341996,-0.723,-0.631,0.035,-182.988,4.512,-37.073,13_6_1.csv
2018-07-11T12:49:56.388121,-0.695,-0.57,0.037,-104.573,3.354,-40.671,13_6_1.csv
2018-07-11T12:49:56.438255,-0.695,-0.57,0.037,-61.037,-11.951,-34.39,13_6_1.csv
2018-07-11T12:49:56.480373,-0.845,-0.483,0.156,-34.024,-10.122,-35.183,13_6_1.csv
2018-07-11T12:49:56.529503,-0.845,-0.483,0.156,-11.463,-9.329,-41.951,13_6_1.csv
2018-07-11T12:49:56.584655,-1.091,-0.484,0.188,1.22,-22.073,-35.061,13_6_1.csv
2018-07-11T12:49:56.644816,-1.12,-0.597,0.15,-21.341,-0.244,-42.195,13_6_1.csv
2018-07-11T12:49:56.707989,-1.195,-0.858,0.081,91.768,31.159,4.451,13_6_1.csv
2018-07-11T12:49:56.758125,-1.195,-0.858,0.081,173.415,20.61,-13.11,13_6_1.csv
2018-07-11T12:49:56.810264,-1.399,-0.565,-0.029,149.939,-43.293,-90.122,13_6_1.csv
2018-07-11T12:49:56.857389,-1.18,-0.455,0.03,11.159,-91.89,-172.073,13_6_1.csv
2018-07-11T12:49:56.939108,-0.917,-0.368,0.115,28.293,-55.183,-153.72,13_6_1.csv
2018-07-11T12:49:56.984876,-0.917,-0.368,0.115,37.561,-67.744,-136.22,13_6_1.csv
2018-07-11T12:49:57.027991,-0.704,-0.191,0.181,39.756,-53.72,-113.598,13_6_1.csv
2018-07-11T12:49:57.077128,-0.704,-0.191,0.181,25.366,-44.207,-76.28,13_6_1.csv
2018-07-11T12:49:57.154838,-0.601,-0.075,0.125,-40.061,-23.963,22.134,13_6_1.csv
2018-07-11T12:49:57.205473,-0.873,-0.251,-0.026,-75.793,-26.22,92.317,13_6_1.csv
2018-07-11T12:49:57.260622,-1.542,-0.875,-0.26,-140.122,-48.293,186.159,13_6_1.csv
2018-07-11T12:49:57.325798,-1.542,-0.875,-0.26,-193.11,-127.988,187.256,13_6_1.csv
2018-07-11T12:49:57.439107,-0.853,-0.618,-0.023,-108.476,-1.829,122.927,13_6_1.csv
2018-07-11T12:49:57.489241,-0.853,-0.618,-0.023,-142.256,-15.183,107.012,13_6_1.csv
2018-07-11T12:49:57.532361,-0.738,-0.493,-0.128,-169.817,-40.061,89.939,13_6_1.csv
2018-07-11T12:49:57.575475,-0.738,-0.493,-0.128,-187.317,-59.573,63.963,13_6_1.csv
2018-07-11T12:49:57.630627,-0.711,-0.604,-0.084,-188.293,-66.402,14.268,13_6_1.csv
2018-07-11T12:49:57.673742,-0.724,-0.657,0.101,-177.561,-40.305,-8.171,13_6_1.csv
2018-07-11T12:49:57.716859,-0.724,-0.657,0.101,-136.342,-8.537,-26.098,13_6_1.csv
2018-07-11T12:49:57.769000,-0.871,-0.616,0.239,-57.256,23.963,-24.939,13_6_1.csv
2018-07-11T12:49:57.810109,-0.871,-0.616,0.239,-3.841,39.939,-8.476,13_6_1.csv
2018-07-11T12:49:57.856237,-0.936,-0.557,0.286,5.183,52.073,9.268,13_6_1.csv
2018-07-11T12:49:57.923418,-1.158,-0.767,0.255,29.268,56.768,4.146,13_6_1.csv
2018-07-11T12:49:57.965533,-1.158,-0.767,0.255,85.122,59.634,17.317,13_6_1.csv
2018-07-11T12:49:58.016169,-1.325,-0.765,0.183,167.134,62.073,27.988,13_6_1.csv
2018-07-11T12:49:58.062292,-1.396,-0.497,0.149,59.024,-149.573,-140.0,13_6_1.csv
2018-07-11T12:49:58.109417,-1.396,-0.497,0.149,-73.11,-194.634,-184.634,13_6_1.csv
2018-07-11T12:49:58.158548,-1.042,-0.59,0.13,-96.524,-162.561,-189.268,13_6_1.csv
2018-07-11T12:49:58.207178,-1.042,-0.59,0.13,-60.122,-116.22,-191.037,13_6_1.csv
2018-07-11T12:49:58.253802,-0.841,-0.438,0.138,-22.256,-85.732,-178.903,13_6_1.csv
2018-07-11T12:49:58.293909,-0.841,-0.438,0.138,-0.488,-64.756,-152.439,13_6_1.csv
2018-07-11T12:49:58.344544,-0.633,-0.238,0.121,-0.671,-22.195,-61.524,13_6_1.csv
2018-07-11T12:49:58.393675,-0.519,-0.109,0.041,-8.841,-4.39,3.293,13_6_1.csv
2018-07-11T12:49:58.441806,-0.519,-0.109,0.041,-32.805,1.524,73.293,13_6_1.csv
2018-07-11T12:49:58.494947,-0.853,-0.272,-0.008,-65.305,0.793,146.951,13_6_1.csv
2018-07-11T12:49:58.544083,-1.819,-0.799,-0.046,-67.988,30.061,308.963,13_6_1.csv
2018-07-11T12:49:58.591209,-1.819,-0.799,-0.046,-44.756,52.988,373.415,13_6_1.csv
2018-07-11T12:49:58.637336,-1.557,-0.947,0.013,7.866,96.28,354.329,13_6_1.csv
2018-07-11T12:49:58.684461,-1.557,-0.947,0.013,42.988,117.683,187.195,13_6_1.csv
2018-07-11T12:49:58.794759,-0.798,-0.314,-0.121,-243.659,-95.549,-74.146,13_6_1.csv
2018-07-11T12:49:58.844900,-0.798,-0.314,-0.121,-277.195,-148.11,-101.098,13_6_1.csv
2018-07-11T12:49:58.888015,-0.549,-0.38,-0.153,-303.598,-168.781,-127.256,13_6_1.csv
2018-07-11T12:49:58.939655,-0.549,-0.38,-0.153,-288.11,-150.305,-119.939,13_6_1.csv
2018-07-11T12:49:58.987783,-0.468,-0.554,0.095,-95.183,-42.744,-7.256,13_6_1.csv
2018-07-11T12:49:59.032903,-0.72,-0.549,0.326,9.939,29.634,44.085,13_6_1.csv
2018-07-11T12:49:59.097074,-0.72,-0.549,0.326,86.951,93.902,80.61,13_6_1.csv
2018-07-11T12:49:59.153725,-1.21,-0.526,0.326,17.073,64.695,67.561,13_6_1.csv
2018-07-11T12:49:59.220403,-1.126,-0.739,0.191,-73.049,1.524,8.049,13_6_1.csv
2018-07-11T12:49:59.262515,-1.126,-0.739,0.191,-94.878,-26.037,-14.634,13_6_1.csv
2018-07-11T12:49:59.311146,-0.98,-1.124,0.062,130.732,32.134,14.207,13_6_1.csv
2018-07-11T12:49:59.357270,-1.25,-0.802,-0.114,229.207,37.134,-45.671,13_6_1.csv
2018-07-11T12:49:59.408408,-1.25,-0.802,-0.114,217.012,-6.341,-99.207,13_6_1.csv
2018-07-11T12:49:59.461048,-1.23,-0.475,-0.032,137.744,-38.171,-134.207,13_6_1.csv
2018-07-11T12:49:59.517699,-0.97,-0.425,-0.005,34.329,-57.805,-176.829,13_6_1.csv
2018-07-11T12:49:59.579865,-0.97,-0.425,-0.005,26.89,-79.207,-169.878,13_6_1.csv
2018-07-11T12:49:59.644035,-0.802,-0.322,0.05,13.537,-59.085,-117.378,13_6_1.csv
2018-07-11T12:49:59.687150,-0.659,-0.254,0.111,7.012,-48.293,-72.378,13_6_1.csv
2018-07-11T12:49:59.737786,-0.659,-0.254,0.111,1.402,-15.488,-25.488,13_6_1.csv
2018-07-11T12:49:59.789423,-0.748,-0.276,-0.053,-20.671,51.098,20.854,13_6_1.csv
2018-07-11T12:49:59.857605,-1.061,-0.478,-0.242,-68.78,47.195,147.073,13_6_1.csv
2018-07-11T12:49:59.903728,-1.061,-0.478,-0.242,-71.646,31.22,202.927,13_6_1.csv
2018-07-11T12:49:59.951856,-1.234,-0.594,-0.159,-82.439,14.146,234.268,13_6_1.csv
2018-07-11T12:50:00.001489,-1.256,-0.637,0.049,-63.171,27.744,201.585,13_6_1.csv
2018-07-11T12:50:00.076689,-0.981,-0.583,0.069,-107.012,72.012,74.451,13_6_1.csv
2018-07-11T12:50:00.230599,-0.882,-0.568,0.052,-112.195,2.805,-28.537,13_6_1.csv
2018-07-11T12:50:00.279730,-0.793,-0.572,0.191,-95.549,-22.195,-24.024,13_6_1.csv
2018-07-11T12:50:00.325853,-0.971,-0.769,0.267,-23.537,-1.646,7.561,13_6_1.csv
2018-07-11T12:50:00.372981,-0.971,-0.769,0.267,79.329,22.5,46.646,13_6_1.csv
2018-07-11T12:50:00.428129,-1.45,-0.662,0.082,120.305,5.671,54.817,13_6_1.csv
2018-07-11T12:50:00.486288,-1.295,-0.71,-0.063,73.293,-68.72,-30.122,13_6_1.csv
2018-07-11T12:50:00.529402,-1.295,-0.71,-0.063,110.366,-76.159,-85.366,13_6_1.csv
2018-07-11T12:50:00.577535,-1.281,-0.524,-0.172,128.415,-83.476,-135.305,13_6_1.csv
2018-07-11T12:50:00.622655,-1.281,-0.524,-0.172,113.232,-94.024,-170.61,13_6_1.csv
2018-07-11T12:50:00.674800,-1.059,-0.483,-0.177,55.854,-90.671,-164.634,13_6_1.csv
2018-07-11T12:50:00.731952,-0.802,-0.44,-0.146,6.22,-59.451,-169.39,13_6_1.csv
2018-07-11T12:50:00.778080,-0.802,-0.44,-0.146,11.159,-56.768,-164.207,13_6_1.csv
2018-07-11T12:50:00.827211,-0.679,-0.312,-0.004,26.28,-46.829,-133.598,13_6_1.csv
2018-07-11T12:50:00.889380,-0.573,-0.192,0.139,36.951,5.854,-45.732,13_6_1.csv
2018-07-11T12:50:00.936506,-0.573,-0.192,0.139,26.585,21.341,9.695,13_6_1.csv
2018-07-11T12:50:00.981631,-0.827,-0.171,0.08,-2.927,29.939,64.512,13_6_1.csv
2018-07-11T12:50:01.044802,-1.416,-0.518,-0.145,-107.622,22.256,177.866,13_6_1.csv
2018-07-11T12:50:01.091930,-1.416,-0.518,-0.145,-129.085,11.463,242.988,13_6_1.csv
2018-07-11T12:50:01.142567,-1.365,-0.763,0.08,-40.732,66.951,304.329,13_6_1.csv
2018-07-11T12:50:01.193086,-1.365,-0.763,0.08,65.305,175.854,267.073,13_6_1.csv
2018-07-11T12:50:01.239209,-1.31,-0.32,0.063,-102.317,91.829,59.268,13_6_1.csv
2018-07-11T12:50:01.295364,-0.993,-0.417,-0.008,-219.39,13.841,-23.963,13_6_1.csv
2018-07-11T12:50:01.367561,-0.75,-0.66,0.063,-197.561,-52.256,-62.805,13_6_1.csv
2018-07-11T12:50:01.422708,-0.75,-0.66,0.063,-129.268,-42.683,-37.866,13_6_1.csv
2018-07-11T12:50:01.536012,-0.979,-0.479,0.206,-35.122,10.183,-51.463,13_6_1.csv
2018-07-11T12:50:01.594169,-0.979,-0.479,0.206,-12.378,1.89,-44.512,13_6_1.csv
2018-07-11T12:50:01.640294,-1.258,-0.547,0.125,4.756,-0.915,-31.585,13_6_1.csv
2018-07-11T12:50:01.686420,-1.171,-0.749,0.018,10.244,-28.841,-41.341,13_6_1.csv
2018-07-11T12:50:01.741067,-1.171,-0.749,0.018,80.183,-14.085,-39.085,13_6_1.csv
2018-07-11T12:50:01.797217,-1.27,-0.571,-0.07,193.232,20.854,-39.329,13_6_1.csv
2018-07-11T12:50:01.846348,-1.241,-0.274,-0.031,73.354,-89.085,-114.085,13_6_1.csv
2018-07-11T12:50:01.893975,-1.241,-0.274,-0.031,-3.598,-96.646,-128.963,13_6_1.csv
2018-07-11T12:50:01.939095,-0.856,-0.34,0.018,-43.78,-83.293,-124.878,13_6_1.csv
2018-07-11T12:50:01.988728,-0.856,-0.34,0.018,-38.72,-79.146,-118.049,13_6_1.csv
2018-07-11T12:50:02.043376,-0.741,-0.26,0.049,-11.402,-72.622,-75.854,13_6_1.csv
2018-07-11T12:50:02.092507,-0.677,-0.192,0.087,-27.073,-63.11,-37.805,13_6_1.csv
2018-07-11T12:50:02.153506,-0.677,-0.192,0.087,-42.927,-53.537,12.378,13_6_1.csv
2018-07-11T12:50:02.206148,-0.767,-0.305,0.053,-76.89,-27.439,118.72,13_6_1.csv
2018-07-11T12:50:02.327476,-1.619,-0.738,-0.094,-125.61,-23.902,249.512,13_6_1.csv
2018-07-11T12:50:02.377109,-1.619,-0.738,-0.094,-145.976,-20.305,250.732,13_6_1.csv
2018-07-11T12:50:02.419722,-1.156,-0.645,-0.154,-171.098,-16.524,179.268,13_6_1.csv
2018-07-11T12:50:02.474869,-1.156,-0.645,-0.154,-177.622,-34.939,58.72,13_6_1.csv
2018-07-11T12:50:02.529014,-0.847,-0.502,-0.212,-202.988,-89.878,-54.146,13_6_1.csv
2018-07-11T12:50:02.590678,-0.582,-0.467,-0.119,-202.683,-79.756,-61.463,13_6_1.csv
2018-07-11T12:50:02.640814,-0.582,-0.467,-0.119,-172.927,-47.5,-50.305,13_6_1.csv
2018-07-11T12:50:02.689944,-0.622,-0.455,0.017,-137.805,-5.366,-17.927,13_6_1.csv
2018-07-11T12:50:02.752116,-0.806,-0.536,0.216,-96.341,22.134,-5.854,13_6_1.csv
2018-07-11T12:50:02.800245,-0.806,-0.536,0.216,-42.073,58.963,14.024,13_6_1.csv
2018-07-11T12:50:02.896505,-1.272,-0.42,0.254,-16.341,75.61,55.915,13_6_1.csv
2018-07-11T12:50:02.946644,-1.272,-0.42,0.254,-55.915,23.293,34.085,13_6_1.csv
2018-07-11T12:50:03.019340,-1.225,-0.79,0.188,36.402,-14.024,35.0,13_6_1.csv
2018-07-11T12:50:03.061452,-1.23,-0.627,0.026,73.78,-27.134,-10.366,13_6_1.csv
2018-07-11T12:50:03.109580,-1.23,-0.627,0.026,51.463,-82.927,-87.317,13_6_1.csv
2018-07-11T12:50:03.159714,-1.188,-0.483,-0.058,2.683,-123.902,-119.268,13_6_1.csv
2018-07-11T12:50:03.206839,-1.188,-0.483,-0.058,-47.134,-126.646,-152.378,13_6_1.csv
2018-07-11T12:50:03.375288,-0.633,-0.188,0.082,9.939,-39.939,-85.61,13_6_1.csv
2018-07-11T12:50:03.418904,-0.633,-0.188,0.082,-6.707,-23.049,-33.78,13_6_1.csv
2018-07-11T12:50:03.467032,-0.635,-0.285,0.104,-15.915,-7.5,30.427,13_6_1.csv
2018-07-11T12:50:03.515161,-0.635,-0.285,0.104,-26.646,10.549,90.244,13_6_1.csv
2018-07-11T12:50:03.575823,-1.103,-0.517,-0.02,-40.183,-11.159,163.293,13_6_1.csv
2018-07-11T12:50:03.626460,-1.303,-0.798,0.136,-62.5,-24.39,184.756,13_6_1.csv
2018-07-11T12:50:03.676593,-1.303,-0.798,0.136,-78.415,26.22,204.573,13_6_1.csv
2018-07-11T12:50:03.721718,-1.062,-0.673,0.155,-71.585,64.939,174.512,13_6_1.csv
2018-07-11T12:50:03.767841,-1.062,-0.673,0.155,-90.061,65.61,123.842,13_6_1.csv
2018-07-11T12:50:03.890170,-0.787,-0.463,0.055,-151.951,-45.305,-17.073,13_6_1.csv
2018-07-11T12:50:03.935791,-0.729,-0.471,0.172,-141.22,-38.293,-33.354,13_6_1.csv
2018-07-11T12:50:03.981413,-0.729,-0.471,0.172,-123.842,-26.89,-30.488,13_6_1.csv
2018-07-11T12:50:04.036561,-0.832,-0.514,0.26,-91.341,-13.902,-26.951,13_6_1.csv
2018-07-11T12:50:04.091209,-0.832,-0.514,0.26,-45.305,2.866,-18.598,13_6_1.csv
2018-07-11T12:50:04.141847,-1.096,-0.524,0.27,22.5,16.22,21.037,13_6_1.csv
2018-07-11T12:50:04.189478,-1.172,-0.537,0.171,6.402,-5.0,16.098,13_6_1.csv
2018-07-11T12:50:04.295264,-1.077,-0.828,0.069,59.878,-7.5,2.5,13_6_1.csv
2018-07-11T12:50:04.342392,-1.053,-0.753,-0.077,120.915,19.207,-5.488,13_6_1.csv
2018-07-11T12:50:04.405564,-1.053,-0.753,-0.077,142.622,15.061,-51.768,13_6_1.csv
2018-07-11T12:50:04.450685,-1.134,-0.468,-0.17,136.037,-21.28,-90.793,13_6_1.csv
2018-07-11T12:50:04.499316,-0.919,-0.373,-0.119,53.476,-47.256,-136.22,13_6_1.csv
2018-07-11T12:50:04.543937,-0.919,-0.373,-0.119,27.927,-48.476,-148.963,13_6_1.csv
2018-07-11T12:50:04.594576,-0.776,-0.336,-0.033,11.951,-50.915,-146.89,13_6_1.csv
2018-07-11T12:50:04.637191,-0.776,-0.336,-0.033,2.622,-32.439,-125.915,13_6_1.csv
2018-07-11T12:50:04.692340,-0.684,-0.293,0.105,13.476,1.098,-89.512,13_6_1.csv
2018-07-11T12:50:04.749495,-0.84,-0.224,0.125,33.78,30.671,7.012,13_6_1.csv
2018-07-11T12:50:04.799632,-0.84,-0.224,0.125,7.683,37.439,70.0,13_6_1.csv
2018-07-11T12:50:04.841745,-1.232,-0.391,0.025,-23.537,48.049,132.866,13_6_1.csv
2018-07-11T12:50:04.960561,-1.247,-0.589,0.102,-18.78,119.207,195.366,13_6_1.csv
2018-07-11T12:50:05.012198,-1.214,-0.414,0.004,-36.768,98.11,149.634,13_6_1.csv
2018-07-11T12:50:05.060329,-0.951,-0.511,-0.029,-180.061,-34.756,34.024,13_6_1.csv
2018-07-11T12:50:05.256354,-0.758,-0.489,0.132,-77.561,-19.878,-29.146,13_6_1.csv
2018-07-11T12:50:05.327042,-0.9,-0.551,0.186,-47.073,-0.244,-25.61,13_6_1.csv
2018-07-11T12:50:05.371661,-0.9,-0.551,0.186,-2.439,13.354,-15.244,13_6_1.csv
2018-07-11T12:50:05.425805,-1.103,-0.54,0.149,36.098,11.341,-12.012,13_6_1.csv
2018-07-11T12:50:05.466916,-1.191,-0.648,0.013,17.561,2.622,-18.963,13_6_1.csv
2018-07-11T12:50:05.520057,-1.191,-0.648,0.013,30.183,-4.024,-11.646,13_6_1.csv
2018-07-11T12:50:05.617316,-1.142,-0.832,-0.049,168.232,26.037,-29.268,13_6_1.csv
2018-07-11T12:50:05.670457,-1.249,-0.494,-0.085,109.268,-55.427,-141.342,13_6_1.csv
2018-07-11T12:50:05.715580,-1.023,-0.314,0.019,60.854,-61.402,-147.5,13_6_1.csv
2018-07-11T12:50:05.763709,-1.023,-0.314,0.019,12.073,-49.39,-150.061,13_6_1.csv
2018-07-11T12:50:05.809835,-0.785,-0.312,0.074,-17.073,-57.927,-144.512,13_6_1.csv
2018-07-11T12:50:05.857461,-0.785,-0.312,0.074,-7.317,-64.817,-117.439,13_6_1.csv
2018-07-11T12:50:05.917622,-0.651,-0.229,0.14,16.585,-44.512,-32.5,13_6_1.csv
2018-07-11T12:50:05.971265,-0.695,-0.191,0.105,-14.146,-39.573,15.122,13_6_1.csv
2018-07-11T12:50:06.012374,-0.695,-0.191,0.105,-38.72,-29.878,71.098,13_6_1.csv
2018-07-11T12:50:06.081562,-1.135,-0.364,-0.084,-86.707,-24.39,180.183,13_6_1.csv
2018-07-11T12:50:06.125679,-1.46,-0.652,-0.2,-136.585,-47.988,214.573,13_6_1.csv
2018-07-11T12:50:06.169541,-1.46,-0.652,-0.2,-149.878,-39.39,223.171,13_6_1.csv
2018-07-11T12:50:06.231708,-1.162,-0.808,-0.072,16.89,82.744,151.159,13_6_1.csv
2018-07-11T12:50:06.279840,-1.013,-0.533,0.068,27.866,84.756,97.744,13_6_1.csv
2018-07-11T12:50:06.343010,-1.013,-0.533,0.068,-36.768,82.561,41.524,13_6_1.csv
2018-07-11T12:50:06.395152,-0.818,-0.39,0.098,-142.256,8.537,-52.866,13_6_1.csv
2018-07-11T12:50:06.439271,-0.728,-0.492,0.168,-140.122,-18.72,-54.939,13_6_1.csv
2018-07-11T12:50:06.488936,-0.728,-0.492,0.168,-124.024,-26.037,-39.085,13_6_1.csv
2018-07-11T12:50:06.556620,-0.827,-0.586,0.281,-21.646,27.744,-24.817,13_6_1.csv
2018-07-11T12:50:06.606754,-1.244,-0.427,0.207,26.28,24.634,-21.646,13_6_1.csv
2018-07-11T12:50:06.652882,-1.244,-0.427,0.207,5.915,-18.293,-32.744,13_6_1.csv
2018-07-11T12:50:06.702012,-1.101,-0.402,0.087,-58.354,-46.585,-57.256,13_6_1.csv
2018-07-11T12:50:06.747135,-1.143,-0.79,0.008,-41.402,-42.805,-43.841,13_6_1.csv
2018-07-11T12:50:06.796269,-1.143,-0.79,0.008,40.305,-22.622,2.012,13_6_1.csv
2018-07-11T12:50:06.852421,-1.236,-0.736,-0.071,147.256,15.732,14.817,13_6_1.csv
2018-07-11T12:50:06.909072,-1.26,-0.347,-0.053,83.171,-68.902,-143.415,13_6_1.csv
2018-07-11T12:50:06.989286,-0.902,-0.364,0.082,-25.0,-80.549,-172.683,13_6_1.csv
2018-07-11T12:50:07.029894,-0.902,-0.364,0.082,3.049,-54.39,-157.5,13_6_1.csv
2018-07-11T12:50:07.075516,-0.754,-0.211,0.125,26.707,-58.598,-126.524,13_6_1.csv
2018-07-11T12:50:07.124646,-0.754,-0.211,0.125,17.317,-68.293,-86.159,13_6_1.csv
2018-07-11T12:50:07.177287,-0.631,0.001,0.121,-59.939,-67.378,-49.146,13_6_1.csv
2018-07-11T12:50:07.233436,-0.837,-0.408,-0.117,-215.244,-82.378,21.22,13_6_1.csv
2018-07-11T12:50:07.283570,-0.837,-0.408,-0.117,-157.683,-112.134,97.805,13_6_1.csv
2018-07-11T12:50:07.343229,-1.344,-0.705,-0.357,-113.476,-148.72,169.756,13_6_1.csv
2018-07-11T12:50:07.392360,-1.299,-0.838,-0.148,-11.341,-138.963,266.342,13_6_1.csv
2018-07-11T12:50:07.439486,-1.299,-0.838,-0.148,54.024,-27.134,265.305,13_6_1.csv
2018-07-11T12:50:07.499646,-1.175,-0.557,-0.09,14.39,17.012,188.963,13_6_1.csv
2018-07-11T12:50:07.543763,-1.175,-0.557,-0.09,-85.061,11.829,89.695,13_6_1.csv
2018-07-11T12:50:07.612447,-0.889,-0.522,-0.085,-163.72,-19.451,-22.561,13_6_1.csv
2018-07-11T12:50:07.707199,-0.632,-0.479,0.025,-130.488,-24.451,-30.183,13_6_1.csv
2018-07-11T12:50:07.752319,-0.615,-0.455,0.116,-121.768,-12.561,-5.366,13_6_1.csv
2018-07-11T12:50:07.797941,-0.85,-0.613,0.191,-78.659,10.976,11.402,13_6_1.csv
2018-07-11T12:50:07.851083,-0.85,-0.613,0.191,-21.22,39.207,35.366,13_6_1.csv
2018-07-11T12:50:07.912750,-1.142,-0.638,0.262,40.549,101.098,50.488,13_6_1.csv
2018-07-11T12:50:07.966894,-1.355,-0.639,0.138,0.427,77.195,2.683,13_6_1.csv
2018-07-11T12:50:08.014024,-1.355,-0.639,0.138,-5.305,13.598,-29.451,13_6_1.csv
2018-07-11T12:50:08.121313,-1.457,-0.476,-0.194,178.598,-82.317,-116.829,13_6_1.csv
2018-07-11T12:50:08.251159,-1.212,-0.325,-0.062,-59.695,-87.256,-209.268,13_6_1.csv
2018-07-11T12:50:08.355437,-0.472,0.038,0.179,46.159,-40.793,-142.378,13_6_1.csv
2018-07-11T12:50:08.483779,-0.472,0.038,0.179,-83.841,-18.659,45.793,13_6_1.csv
2018-07-11T12:50:08.576025,-0.752,-0.452,-0.024,-207.622,-32.622,162.134,13_6_1.csv
2018-07-11T12:50:08.623150,-1.499,-0.957,-0.285,-155.488,-46.829,214.451,13_6_1.csv
2018-07-11T12:50:08.669774,-1.499,-0.957,-0.285,-88.232,-92.195,266.707,13_6_1.csv
2018-07-11T12:50:08.719908,-1.364,-0.903,-0.14,30.549,-39.329,281.524,13_6_1.csv
2018-07-11T12:50:08.770042,-1.082,-0.559,0.013,-44.329,-6.098,162.134,13_6_1.csv
2018-07-11T12:50:08.842234,-0.85,-0.647,-0.01,-184.634,-23.598,-12.622,13_6_1.csv
2018-07-11T12:50:08.888858,-0.85,-0.647,-0.01,-139.024,-34.146,-51.28,13_6_1.csv
2018-07-11T12:50:08.941499,-0.677,-0.621,0.139,-76.89,-27.683,-57.988,13_6_1.csv
2018-07-11T12:50:08.985115,-0.677,-0.621,0.139,-26.707,-10.0,-46.707,13_6_1.csv
2018-07-11T12:50:09.037755,-0.805,-0.599,0.245,20.244,11.89,-29.085,13_6_1.csv
2018-07-11T12:50:09.101425,-1.012,-0.562,0.268,141.098,63.659,-8.354,13_6_1.csv
2018-07-11T12:50:09.158076,-1.17,-0.352,0.141,181.403,52.683,-14.817,13_6_1.csv
2018-07-11T12:50:09.208212,-1.17,-0.352,0.141,141.768,1.098,-16.28,13_6_1.csv
2018-07-11T12:50:09.254335,-1.027,-0.507,0.049,114.512,-32.134,0.61,13_6_1.csv
2018-07-11T12:50:09.298458,-1.027,-0.507,0.049,106.463,-22.622,20.366,13_6_1.csv
2018-07-11T12:50:09.362628,-0.799,-0.614,-0.123,170.183,-8.415,-8.171,13_6_1.csv
2018-07-11T12:50:09.421791,-1.067,-0.586,-0.258,167.073,-37.012,-7.561,13_6_1.csv
2018-07-11T12:50:09.487469,-1.042,-0.678,-0.304,69.451,-51.463,-13.171,13_6_1.csv
2018-07-11T12:50:09.532089,-1.042,-0.678,-0.304,32.073,-47.012,-55.61,13_6_1.csv
2018-07-11T12:50:09.577713,-0.992,-0.607,-0.384,-5.305,-46.524,-110.793,13_6_1.csv
2018-07-11T12:50:09.623336,-0.992,-0.607,-0.384,-35.732,-29.451,-153.72,13_6_1.csv
2018-07-11T12:50:09.708570,-1.033,-0.591,-0.362,-36.341,60.671,-139.512,13_6_1.csv
2018-07-11T12:50:09.754693,-1.029,-0.636,-0.337,18.476,114.329,-104.634,13_6_1.csv
2018-07-11T12:50:09.808841,-1.035,-0.532,-0.275,168.537,178.171,-56.89,13_6_1.csv
2018-07-11T12:50:09.858975,-1.035,-0.532,-0.275,211.707,197.012,-52.195,13_6_1.csv
2018-07-11T12:50:09.909114,-0.961,-0.401,-0.036,210.488,208.11,-51.463,13_6_1.csv
2018-07-11T12:50:09.955236,-0.961,-0.401,-0.036,192.134,218.963,-43.659,13_6_1.csv
2018-07-11T12:50:10.002366,-1.024,-0.229,0.127,-24.756,157.622,-15.061,13_6_1.csv
2018-07-11T12:50:10.058516,-1.133,-0.637,0.129,-61.22,119.573,15.244,13_6_1.csv
2018-07-11T12:50:10.139737,-1.034,-0.686,0.162,113.72,65.366,82.012,13_6_1.csv
2018-07-11T12:50:10.190875,-1.034,-0.686,0.162,190.915,76.22,73.78,13_6_1.csv
2018-07-11T12:50:10.242012,-0.937,-0.301,0.22,201.342,80.61,43.659,13_6_1.csv
2018-07-11T12:50:10.299666,-0.984,-0.182,0.234,114.085,44.207,34.817,13_6_1.csv
2018-07-11T12:50:10.349299,-0.984,-0.182,0.234,68.537,29.939,47.805,13_6_1.csv
2018-07-11T12:50:10.401939,-0.961,-0.267,0.211,28.354,24.146,61.585,13_6_1.csv
2018-07-11T12:50:10.451069,-0.961,-0.445,0.213,40.549,18.354,114.451,13_6_1.csv
2018-07-11T12:50:10.498696,-0.961,-0.445,0.213,55.854,22.988,128.476,13_6_1.csv
2018-07-11T12:50:10.551337,-1.051,-0.601,0.28,61.951,26.402,129.573,13_6_1.csv
2018-07-11T12:50:10.590942,-1.051,-0.601,0.28,63.963,20.122,119.695,13_6_1.csv
2018-07-11T12:50:10.639071,-1.055,-0.755,0.267,58.537,14.268,96.89,13_6_1.csv
2018-07-11T12:50:10.722292,-1.216,-0.939,0.002,67.073,-43.963,11.22,13_6_1.csv
2018-07-11T12:50:10.799498,-1.172,-0.862,-0.236,155.183,-45.549,-56.098,13_6_1.csv
2018-07-11T12:50:10.863168,-1.315,-0.625,-0.348,205.732,-87.927,-147.317,13_6_1.csv
2018-07-11T12:50:10.908288,-1.315,-0.625,-0.348,130.183,-82.988,-177.195,13_6_1.csv
2018-07-11T12:50:10.967446,-1.226,-0.709,-0.423,56.28,-33.293,-193.659,13_6_1.csv
2018-07-11T12:50:11.161463,-0.98,-0.506,-0.374,11.646,46.707,-189.573,13_6_1.csv
2018-07-11T12:50:11.234658,-0.91,-0.467,-0.198,68.11,119.207,-128.354,13_6_1.csv
2018-07-11T12:50:11.284792,-0.977,-0.372,0.2,101.159,173.72,-94.817,13_6_1.csv
2018-07-11T12:50:11.326403,-0.977,-0.372,0.2,180.488,240.061,-43.78,13_6_1.csv
2018-07-11T12:50:11.376536,-1.133,0.141,0.41,6.646,218.232,85.427,13_6_1.csv
2018-07-11T12:50:11.434190,-1.4,-0.074,0.478,-77.012,162.683,130.854,13_6_1.csv
2018-07-11T12:50:11.481816,-1.4,-0.074,0.478,-77.317,118.963,152.012,13_6_1.csv
2018-07-11T12:50:11.533956,-1.54,-0.189,0.284,-190.366,-15.915,135.366,13_6_1.csv
2018-07-11T12:50:11.588100,-1.221,-0.555,0.017,-279.085,-114.024,101.402,13_6_1.csv
2018-07-11T12:50:11.640239,-1.221,-0.555,0.017,-259.512,-124.756,70.0,13_6_1.csv
2018-07-11T12:50:11.692379,-0.95,-0.869,0.062,-39.268,-55.061,108.476,13_6_1.csv
2018-07-11T12:50:11.736497,-0.85,-0.7,0.136,26.28,-20.305,108.963,13_6_1.csv
2018-07-11T12:50:11.787638,-0.85,-0.7,0.136,26.951,-7.927,79.512,13_6_1.csv
2018-07-11T12:50:11.848801,-0.847,-0.716,0.137,19.146,-12.317,43.659,13_6_1.csv
2018-07-11T12:50:11.903952,-0.903,-0.704,0.084,48.78,-21.829,-34.207,13_6_1.csv
2018-07-11T12:50:11.949073,-0.903,-0.704,0.084,61.341,-13.415,-66.28,13_6_1.csv
2018-07-11T12:50:12.002220,-1.083,-0.694,0.009,74.878,-3.72,-79.512,13_6_1.csv
2018-07-11T12:50:12.044332,-1.083,-0.694,0.009,103.659,12.927,-68.11,13_6_1.csv
2018-07-11T12:50:12.091459,-1.128,-0.748,-0.194,130.671,34.39,-52.805,13_6_1.csv
2018-07-11T12:50:12.145606,-1.337,-0.804,-0.426,145.183,-7.744,-95.244,13_6_1.csv
2018-07-11T12:50:12.204766,-1.337,-0.804,-0.426,181.342,-12.5,-132.744,13_6_1.csv
2018-07-11T12:50:12.251894,-1.354,-0.541,-0.324,158.842,-5.915,-190.122,13_6_1.csv
2018-07-11T12:50:12.300023,-1.225,-0.494,-0.253,78.476,26.768,-208.049,13_6_1.csv
2018-07-11T12:50:12.344644,-1.225,-0.494,-0.253,72.561,40.122,-182.073,13_6_1.csv
2018-07-11T12:50:12.438397,-0.999,-0.41,-0.219,46.768,56.037,-153.232,13_6_1.csv
2018-07-11T12:50:12.492388,-0.895,-0.435,-0.088,69.146,69.512,-132.927,13_6_1.csv
2018-07-11T12:50:12.544028,-0.876,-0.253,0.167,118.293,121.829,-76.341,13_6_1.csv
2018-07-11T12:50:12.593159,-0.876,-0.253,0.167,79.146,160.427,-39.756,13_6_1.csv
2018-07-11T12:50:12.639783,-0.952,-0.184,0.256,4.268,154.573,6.341,13_6_1.csv
2018-07-11T12:50:12.691421,-0.952,-0.184,0.256,-52.439,146.159,66.646,13_6_1.csv
2018-07-11T12:50:12.740054,-1.19,-0.352,0.587,135.488,190.915,177.866,13_6_1.csv
2018-07-11T12:50:12.794198,-1.455,-0.004,0.38,-3.963,98.11,180.122,13_6_1.csv
2018-07-11T12:50:12.842331,-1.455,-0.004,0.38,-241.037,-4.39,124.146,13_6_1.csv
2018-07-11T12:50:12.888454,-1.127,-0.707,0.012,-312.195,-54.207,84.268,13_6_1.csv
2018-07-11T12:50:12.935583,-1.127,-0.707,0.012,-202.866,-60.488,73.354,13_6_1.csv
2018-07-11T12:50:12.981706,-0.851,-0.68,0.106,-11.463,-5.61,59.268,13_6_1.csv
2018-07-11T12:50:13.028836,-0.875,-0.454,0.214,-46.646,5.549,48.11,13_6_1.csv
2018-07-11T12:50:13.093007,-0.875,-0.454,0.214,-61.098,-6.402,38.049,13_6_1.csv
2018-07-11T12:50:13.143145,-0.947,-0.59,0.214,5.183,-11.768,40.427,13_6_1.csv
2018-07-11T12:50:13.190270,-1.062,-0.637,0.08,2.622,-18.78,22.927,13_6_1.csv
2018-07-11T12:50:13.238403,-1.062,-0.637,0.08,-9.207,-24.024,-7.744,13_6_1.csv
2018-07-11T12:50:13.282521,-1.072,-0.798,-0.089,-0.122,-17.317,-29.573,13_6_1.csv
2018-07-11T12:50:13.326643,-1.072,-0.798,-0.089,23.232,-10.183,-41.707,13_6_1.csv
2018-07-11T12:50:13.393822,-1.05,-0.835,-0.204,147.744,22.134,-100.0,13_6_1.csv
2018-07-11T12:50:13.450978,-1.198,-0.579,-0.233,167.378,6.89,-126.585,13_6_1.csv
2018-07-11T12:50:13.497101,-1.198,-0.579,-0.233,151.829,-3.171,-142.256,13_6_1.csv
2018-07-11T12:50:13.545733,-1.116,-0.47,-0.146,98.902,12.5,-169.085,13_6_1.csv
2018-07-11T12:50:13.590352,-0.977,-0.362,-0.086,84.878,2.073,-168.963,13_6_1.csv
2018-07-11T12:50:13.639483,-0.977,-0.362,-0.086,63.841,2.622,-159.085,13_6_1.csv
2018-07-11T12:50:13.692624,-0.793,-0.271,0.042,33.293,12.622,-137.5,13_6_1.csv
2018-07-11T12:50:13.806428,-0.819,-0.218,0.122,23.537,37.866,3.11,13_6_1.csv
2018-07-11T12:50:13.858065,-1.222,-0.229,0.056,-13.841,36.707,66.098,13_6_1.csv
2018-07-11T12:50:13.904188,-1.166,-0.353,0.239,-55.427,75.854,168.537,13_6_1.csv
2018-07-11T12:50:13.966856,-1.166,-0.353,0.239,-26.098,115.976,204.451,13_6_1.csv
2018-07-11T12:50:14.089183,-1.229,-0.881,0.016,-181.646,-17.988,212.988,13_6_1.csv
2018-07-11T12:50:14.237076,-0.755,-0.615,0.265,-79.39,-39.024,-55.732,13_6_1.csv
2018-07-11T12:50:14.294729,-0.755,-0.615,0.265,-54.451,-27.927,-61.098,13_6_1.csv
2018-07-11T12:50:14.340353,-0.869,-0.626,0.266,3.171,-9.512,-52.622,13_6_1.csv
2018-07-11T12:50:14.390487,-1.082,-0.602,0.153,81.341,-2.988,-45.61,13_6_1.csv
2018-07-11T12:50:14.434608,-1.082,-0.602,0.153,77.744,-10.244,-56.585,13_6_1.csv
2018-07-11T12:50:14.481734,-1.078,-0.682,-0.016,49.268,-48.293,-87.744,13_6_1.csv
2018-07-11T12:50:14.536885,-1.078,-0.682,-0.016,15.183,-55.366,-95.793,13_6_1.csv
2018-07-11T12:50:14.611587,-0.974,-0.903,-0.069,150.854,53.293,-68.537,13_6_1.csv
2018-07-11T12:50:14.658213,-1.184,-0.738,-0.18,200.244,56.524,-80.976,13_6_1.csv
2018-07-11T12:50:14.701328,-1.184,-0.738,-0.18,170.305,56.829,-81.037,13_6_1.csv
2018-07-11T12:50:14.752469,-1.104,-0.508,-0.254,101.463,55.854,-137.622,13_6_1.csv
2018-07-11T12:50:14.842714,-0.986,-0.417,-0.272,90.488,-7.988,-146.463,13_6_1.csv
2018-07-11T12:50:14.900869,-0.76,-0.392,-0.141,15.549,-7.988,-149.085,13_6_1.csv
2018-07-11T12:50:14.951005,-0.599,-0.719,0.021,-142.744,38.293,-159.146,13_6_1.csv
2018-07-11T12:50:14.998130,-0.599,-0.719,0.021,-68.659,80.793,-95.732,13_6_1.csv
2018-07-11T12:50:15.046258,-0.618,-0.591,0.211,5.183,96.646,-20.976,13_6_1.csv
2018-07-11T12:50:15.090877,-0.618,-0.591,0.211,17.256,111.281,34.573,13_6_1.csv
2018-07-11T12:50:15.160563,-0.842,-0.624,0.297,165.183,91.89,145.488,13_6_1.csv
2018-07-11T12:50:15.225739,-0.964,-0.297,0.425,232.317,124.573,176.159,13_6_1.csv
2018-07-11T12:50:15.299437,-1.279,-0.133,0.313,11.28,86.28,152.744,13_6_1.csv
2018-07-11T12:50:15.343056,-1.279,-0.133,0.313,-165.122,3.049,158.171,13_6_1.csv
2018-07-11T12:50:15.393191,-1.139,-0.694,0.093,-202.378,-39.817,129.695,13_6_1.csv
2018-07-11T12:50:15.456362,-0.9,-0.835,0.121,-64.085,-6.829,117.927,13_6_1.csv
2018-07-11T12:50:15.501484,-0.9,-0.835,0.121,21.098,24.878,100.183,13_6_1.csv
2018-07-11T12:50:15.543600,-0.903,-0.628,0.18,17.683,25.366,68.72,13_6_1.csv
2018-07-11T12:50:15.633844,-0.893,-0.696,0.183,57.5,4.146,-4.329,13_6_1.csv
2018-07-11T12:50:15.718072,-1.062,-0.696,0.068,130.976,18.902,-25.488,13_6_1.csv
2018-07-11T12:50:15.764195,-1.211,-0.712,-0.04,129.207,10.244,-27.866,13_6_1.csv
2018-07-11T12:50:15.832376,-1.173,-0.649,-0.186,161.646,1.768,-56.524,13_6_1.csv
2018-07-11T12:50:15.875993,-1.173,-0.649,-0.186,170.305,-38.415,-90.366,13_6_1.csv
2018-07-11T12:50:15.921113,-1.162,-0.441,-0.204,137.012,-78.902,-110.671,13_6_1.csv
2018-07-11T12:50:15.984281,-1.162,-0.441,-0.204,69.878,-80.488,-125.366,13_6_1.csv
2018-07-11T12:50:16.029401,-0.905,-0.422,-0.148,8.902,-57.988,-139.451,13_6_1.csv
2018-07-11T12:50:16.087557,-0.801,-0.412,-0.226,1.463,0.427,-116.22,13_6_1.csv
2018-07-11T12:50:16.143205,-0.801,-0.412,-0.226,36.22,22.866,-91.402,13_6_1.csv
2018-07-11T12:50:16.187322,-0.815,-0.365,-0.156,54.756,28.598,-64.634,13_6_1.csv
2018-07-11T12:50:16.234949,-0.815,-0.365,-0.156,67.378,44.695,-39.39,13_6_1.csv
2018-07-11T12:50:16.280572,-0.923,-0.351,0.061,85.488,90.732,21.22,13_6_1.csv
2018-07-11T12:50:16.327195,-1.076,-0.288,0.241,48.841,98.232,56.28,13_6_1.csv
2018-07-11T12:50:16.377831,-1.076,-0.288,0.241,0.915,112.012,91.646,13_6_1.csv
2018-07-11T12:50:16.435484,-1.017,-0.442,0.326,-22.866,128.537,117.744,13_6_1.csv
2018-07-11T12:50:16.526226,-1.129,-0.501,0.251,42.561,71.707,100.244,13_6_1.csv
2018-07-11T12:50:16.592402,-0.988,-0.468,0.161,0.061,37.622,65.732,13_6_1.csv
2018-07-11T12:50:16.639027,-0.835,-0.512,0.139,-18.537,2.866,-11.098,13_6_1.csv
2018-07-11T12:50:16.687656,-0.835,-0.512,0.139,-4.573,3.963,-18.78,13_6_1.csv
2018-07-11T12:50:16.750824,-0.874,-0.48,0.14,9.573,8.902,-16.159,13_6_1.csv
2018-07-11T12:50:16.806473,-0.941,-0.534,0.073,29.512,4.512,-15.671,13_6_1.csv
2018-07-11T12:50:16.860116,-0.941,-0.534,0.073,64.756,11.768,-19.268,13_6_1.csv
2018-07-11T12:50:16.919775,-1.098,-0.492,-0.048,62.5,-0.366,-19.939,13_6_1.csv
2018-07-11T12:50:16.969407,-1.131,-0.636,-0.063,55.549,-7.805,-20.671,13_6_1.csv
2018-07-11T12:50:17.015029,-1.131,-0.636,-0.063,97.927,21.037,-2.622,13_6_1.csv
2018-07-11T12:50:17.104768,-1.009,-0.673,-0.041,222.866,64.695,11.707,13_6_1.csv
2018-07-11T12:50:17.161923,-1.081,-0.409,-0.087,138.902,-33.963,-22.683,13_6_1.csv
2018-07-11T12:50:17.219579,-0.859,-0.392,-0.063,58.902,-45.488,-36.402,13_6_1.csv
2018-07-11T12:50:17.269213,-0.859,-0.392,-0.063,8.659,-47.073,-56.768,13_6_1.csv
2018-07-11T12:50:17.310323,-0.813,-0.44,-0.166,-7.134,-58.11,-69.085,13_6_1.csv
2018-07-11T12:50:17.358456,-0.813,-0.44,-0.166,-9.024,-68.598,-65.305,13_6_1.csv
2018-07-11T12:50:17.421126,-0.775,-0.431,-0.173,-16.037,-28.963,-39.024,13_6_1.csv
2018-07-11T12:50:17.477779,-0.859,-0.539,-0.12,-2.195,-6.341,-26.768,13_6_1.csv
2018-07-11T12:50:17.528417,-1.09,-0.366,0.118,138.049,116.524,9.512,13_6_1.csv
2018-07-11T12:50:17.577048,-1.09,-0.366,0.118,92.744,124.146,19.024,13_6_1.csv
2018-07-11T12:50:17.626182,-1.101,-0.229,0.328,7.5,105.976,32.073,13_6_1.csv
2018-07-11T12:50:17.671304,-1.101,-0.229,0.328,-57.317,65.122,45.732,13_6_1.csv
2018-07-11T12:50:17.870340,-0.871,-0.357,0.196,-48.659,-17.073,5.0,13_6_1.csv
2018-07-11T12:50:17.943536,-0.816,-0.414,0.203,-53.659,-43.537,-20.671,13_6_1.csv
2018-07-11T12:50:18.014224,-0.854,-0.408,0.216,-13.841,-28.049,3.841,13_6_1.csv
2018-07-11T12:50:18.075888,-0.854,-0.408,0.216,-9.268,-26.341,12.561,13_6_1.csv
2018-07-11T12:50:18.128529,-0.935,-0.49,0.169,3.902,-10.305,37.744,13_6_1.csv
2018-07-11T12:50:18.171142,-1.074,-0.679,0.003,-0.305,-8.171,34.207,13_6_1.csv
2018-07-11T12:50:18.224785,-1.074,-0.679,0.003,1.159,-7.134,30.061,13_6_1.csv
2018-07-11T12:50:18.283945,-0.975,-0.946,-0.042,44.573,20.976,38.902,13_6_1.csv
2018-07-11T12:50:18.350625,-1.04,-0.687,-0.117,195.854,48.902,-30.061,13_6_1.csv
2018-07-11T12:50:18.405272,-1.04,-0.687,-0.117,165.549,7.439,-77.744,13_6_1.csv
2018-07-11T12:50:18.456414,-0.962,-0.51,-0.065,61.28,-1.829,-123.171,13_6_1.csv
2018-07-11T12:50:18.509555,-0.905,-0.501,-0.086,47.927,-1.341,-140.305,13_6_1.csv
2018-07-11T12:50:18.561698,-0.905,-0.501,-0.086,40.732,-9.451,-142.744,13_6_1.csv
2018-07-11T12:50:18.610830,-0.852,-0.438,-0.069,18.232,0.488,-105.305,13_6_1.csv
2018-07-11T12:50:18.675005,-0.844,-0.441,0.032,22.073,22.683,-69.329,13_6_1.csv
2018-07-11T12:50:18.737171,-1.034,-0.411,0.138,52.744,53.11,-2.744,13_6_1.csv
2018-07-11T12:50:18.788957,-1.034,-0.411,0.138,63.78,69.634,29.573,13_6_1.csv
2018-07-11T12:50:18.842603,-1.108,-0.375,0.239,46.829,68.476,68.415,13_6_1.csv
2018-07-11T12:50:18.897252,-0.991,-0.301,0.25,37.561,102.622,104.268,13_6_1.csv
2018-07-11T12:50:18.956413,-0.991,-0.301,0.25,-1.89,64.207,87.683,13_6_1.csv
2018-07-11T12:50:18.997523,-1.031,-0.312,0.129,-78.598,-17.988,71.28,13_6_1.csv
2018-07-11T12:50:19.049164,-0.858,-0.512,0.123,-138.781,-38.293,73.598,13_6_1.csv
2018-07-11T12:50:19.108825,-0.858,-0.512,0.123,-112.622,-29.329,70.61,13_6_1.csv
2018-07-11T12:50:19.154950,-0.866,-0.566,0.187,-65.549,-19.451,77.256,13_6_1.csv
2018-07-11T12:50:19.208094,-0.866,-0.566,0.187,-44.878,-13.78,80.915,13_6_1.csv
