time,accel_x_list,accel_y_list,accel_z_list,gyro_x_list,gyro_y_list,gyro_z_list,filename
2018-07-11T12:50:22.763676,-1.405,-0.557,0.184,-127.744,75.0,209.329,13_6_2.csv
2018-07-11T12:50:22.824844,-1.405,-0.557,0.184,-127.744,75.0,209.329,13_6_2.csv
2018-07-11T12:50:22.892023,-1.252,-0.744,0.147,-181.768,24.39,105.976,13_6_2.csv
2018-07-11T12:50:22.939652,-0.92,-0.66,0.288,-117.439,30.183,-0.732,13_6_2.csv
2018-07-11T12:50:22.985274,-0.92,-0.66,0.288,-84.817,18.78,-88.171,13_6_2.csv
2018-07-11T12:50:23.032399,-0.915,-0.497,0.322,-25.427,-66.159,-95.915,13_6_2.csv
2018-07-11T12:50:23.076518,-0.902,-0.46,0.293,36.159,-75.61,-72.317,13_6_2.csv
2018-07-11T12:50:23.127654,-0.902,-0.46,0.293,58.72,-50.976,-52.927,13_6_2.csv
2018-07-11T12:50:23.173776,-1.112,-0.55,0.038,59.634,-28.598,-32.561,13_6_2.csv
2018-07-11T12:50:23.220904,-1.112,-0.55,0.038,49.817,-27.622,-16.098,13_6_2.csv
2018-07-11T12:50:23.267027,-1.297,-0.797,-0.2,42.683,-36.89,-15.671,13_6_2.csv
2018-07-11T12:50:23.311151,-1.071,-0.436,-0.116,70.305,-2.256,-137.256,13_6_2.csv
2018-07-11T12:50:23.395879,-1.071,-0.436,-0.116,103.049,32.317,-188.11,13_6_2.csv
2018-07-11T12:50:23.465568,-1.071,-0.436,-0.116,114.146,32.073,-171.707,13_6_2.csv
2018-07-11T12:50:23.522221,-0.795,-0.3,0.028,58.171,65.915,-89.268,13_6_2.csv
2018-07-11T12:50:23.558818,-0.718,-0.288,0.066,50.366,77.256,-57.866,13_6_2.csv
2018-07-11T12:50:23.609956,-0.718,-0.288,0.066,43.841,55.061,-34.39,13_6_2.csv
2018-07-11T12:50:23.781916,-0.891,-0.312,0.149,-27.378,32.256,90.061,13_6_2.csv
2018-07-11T12:50:23.826535,-1.383,-0.47,0.046,-40.244,27.073,128.354,13_6_2.csv
2018-07-11T12:50:23.891208,-1.362,-0.743,0.216,-45.061,66.098,221.768,13_6_2.csv
2018-07-11T12:50:23.943346,-1.362,-0.743,0.216,3.537,129.573,217.5,13_6_2.csv
2018-07-11T12:50:23.990974,-1.043,-0.396,0.107,25.61,111.037,141.524,13_6_2.csv
2018-07-11T12:50:24.046123,-0.985,-0.334,-0.025,-158.11,-82.927,-36.098,13_6_2.csv
2018-07-11T12:50:24.091243,-0.985,-0.334,-0.025,-224.329,-126.342,-75.793,13_6_2.csv
2018-07-11T12:50:24.138372,-0.694,-0.551,0.029,-216.22,-109.268,-87.256,13_6_2.csv
2018-07-11T12:50:24.191514,-0.694,-0.551,0.029,-166.829,-73.841,-89.634,13_6_2.csv
2018-07-11T12:50:24.253242,-0.68,-0.53,0.116,-53.354,-18.049,-76.22,13_6_2.csv
2018-07-11T12:50:24.298363,-0.76,-0.502,0.183,-9.512,8.902,-56.646,13_6_2.csv
2018-07-11T12:50:24.361535,-0.941,-0.452,0.126,53.902,46.585,-38.415,13_6_2.csv
2018-07-11T12:50:24.409165,-0.941,-0.452,0.126,42.073,39.329,-39.512,13_6_2.csv
2018-07-11T12:50:24.459801,-1.213,-0.601,0.106,37.805,38.902,-32.988,13_6_2.csv
2018-07-11T12:50:24.585138,-1.07,-0.49,0.126,129.634,57.256,15.427,13_6_2.csv
2018-07-11T12:50:24.642290,-1.26,-0.25,0.02,-31.707,-100.061,-40.671,13_6_2.csv
2018-07-11T12:50:24.686408,-1.001,-0.302,-0.007,-104.817,-108.232,-39.268,13_6_2.csv
2018-07-11T12:50:24.758099,-1.016,-0.424,-0.187,-175.793,-150.976,-63.598,13_6_2.csv
2018-07-11T12:50:24.814753,-1.016,-0.424,-0.187,-140.366,-177.195,-40.61,13_6_2.csv
2018-07-11T12:50:24.859875,-1.092,-0.383,-0.227,-122.988,-189.329,1.22,13_6_2.csv
2018-07-11T12:50:24.911011,-1.092,-0.383,-0.227,-154.207,-189.146,28.963,13_6_2.csv
2018-07-11T12:50:24.967161,-1.041,-0.432,-0.247,-149.573,-186.768,75.854,13_6_2.csv
2018-07-11T12:50:25.018298,-1.184,-0.522,-0.325,-121.524,-183.11,116.768,13_6_2.csv
2018-07-11T12:50:25.125082,-1.256,-0.622,-0.435,-263.293,-225.61,126.89,13_6_2.csv
2018-07-11T12:50:25.170703,-0.842,-0.698,-0.325,-262.317,-194.695,117.561,13_6_2.csv
2018-07-11T12:50:25.218832,-0.842,-0.698,-0.325,-218.293,-142.073,111.646,13_6_2.csv
2018-07-11T12:50:25.270970,-0.735,-0.653,-0.178,-128.659,-86.463,115.671,13_6_2.csv
2018-07-11T12:50:25.326118,-0.862,-0.603,-0.177,-118.293,-53.902,120.854,13_6_2.csv
2018-07-11T12:50:25.377257,-0.862,-0.603,-0.177,-158.659,-70.366,119.512,13_6_2.csv
2018-07-11T12:50:25.423380,-0.833,-0.733,-0.073,-144.329,-60.0,121.037,13_6_2.csv
2018-07-11T12:50:25.471513,-0.833,-0.733,-0.073,-138.72,-29.024,124.451,13_6_2.csv
2018-07-11T12:50:25.513626,-0.844,-0.827,0.154,-137.744,6.951,124.451,13_6_2.csv
2018-07-11T12:50:25.564766,-0.971,-0.884,0.279,-86.829,71.159,85.183,13_6_2.csv
2018-07-11T12:50:25.610889,-0.971,-0.884,0.279,-84.207,65.122,52.866,13_6_2.csv
2018-07-11T12:50:25.656013,-1.055,-0.934,0.313,-60.915,58.476,14.939,13_6_2.csv
2018-07-11T12:50:25.706146,-1.055,-0.934,0.313,-1.585,60.488,-10.854,13_6_2.csv
2018-07-11T12:50:25.748762,-1.081,-0.796,0.139,31.402,44.695,-35.183,13_6_2.csv
2018-07-11T12:50:25.799399,-1.081,-0.796,0.139,30.732,4.268,-69.39,13_6_2.csv
2018-07-11T12:50:25.853546,-1.059,-0.676,-0.031,67.317,-1.524,-125.427,13_6_2.csv
2018-07-11T12:50:25.909697,-1.002,-0.589,-0.029,82.622,12.439,-121.463,13_6_2.csv
2018-07-11T12:50:25.951310,-1.002,-0.589,-0.029,97.378,28.354,-111.159,13_6_2.csv
2018-07-11T12:50:25.997938,-0.98,-0.49,0.014,107.622,32.012,-105.244,13_6_2.csv
2018-07-11T12:50:26.045566,-0.906,-0.351,0.042,55.671,-1.585,-95.488,13_6_2.csv
2018-07-11T12:50:26.120267,-0.906,-0.351,0.042,10.061,-19.878,-82.439,13_6_2.csv
2018-07-11T12:50:26.173413,-0.744,-0.368,0.068,-11.524,-9.146,-35.0,13_6_2.csv
2018-07-11T12:50:26.221542,-0.85,-0.353,0.105,5.122,6.22,2.378,13_6_2.csv
2018-07-11T12:50:26.267676,-0.85,-0.353,0.105,5.305,12.561,48.963,13_6_2.csv
2018-07-11T12:50:26.316806,-1.265,-0.418,0.055,-8.659,7.988,107.134,13_6_2.csv
2018-07-11T12:50:26.358923,-1.265,-0.418,0.055,-40.854,-3.902,167.5,13_6_2.csv
2018-07-11T12:50:26.403040,-1.164,-0.62,0.105,-54.451,11.768,196.342,13_6_2.csv
2018-07-11T12:50:26.479248,-1.044,-0.457,-0.005,-23.293,32.378,108.11,13_6_2.csv
2018-07-11T12:50:26.529382,-0.858,-0.375,-0.02,-140.671,-70.732,-30.915,13_6_2.csv
2018-07-11T12:50:26.595563,-0.858,-0.375,-0.02,-170.183,-81.646,-56.159,13_6_2.csv
2018-07-11T12:50:26.642190,-0.639,-0.462,0.072,-148.049,-71.341,-57.378,13_6_2.csv
2018-07-11T12:50:26.688814,-0.692,-0.432,0.179,-71.341,-27.683,-13.415,13_6_2.csv
2018-07-11T12:50:26.755993,-0.692,-0.432,0.179,-50.793,-12.744,8.841,13_6_2.csv
2018-07-11T12:50:26.802116,-0.821,-0.479,0.26,-21.768,9.451,26.037,13_6_2.csv
2018-07-11T12:50:26.856762,-1.028,-0.469,0.2,26.037,48.537,60.976,13_6_2.csv
2018-07-11T12:50:26.903887,-1.028,-0.469,0.2,0.549,31.098,66.707,13_6_2.csv
2018-07-11T12:50:26.952016,-1.211,-0.858,0.05,-37.439,9.451,61.402,13_6_2.csv
2018-07-11T12:50:26.997637,-1.211,-0.858,0.05,1.28,12.744,70.0,13_6_2.csv
2018-07-11T12:50:27.046267,-1.178,-1.088,-0.061,154.024,41.037,71.037,13_6_2.csv
2018-07-11T12:50:27.101414,-1.319,-0.439,-0.063,175.305,-41.28,-163.11,13_6_2.csv
2018-07-11T12:50:27.159070,-1.319,-0.439,-0.063,90.427,-73.598,-181.768,13_6_2.csv
2018-07-11T12:50:27.205193,-1.086,-0.388,-0.023,45.061,-65.671,-177.744,13_6_2.csv
2018-07-11T12:50:27.252324,-0.931,-0.362,0.014,15.061,-46.768,-169.939,13_6_2.csv
2018-07-11T12:50:27.298447,-0.931,-0.362,0.014,0.427,-49.878,-148.537,13_6_2.csv
2018-07-11T12:50:27.359613,-0.787,-0.28,0.015,-12.439,-59.695,-122.195,13_6_2.csv
2018-07-11T12:50:27.415765,-0.663,-0.241,0.017,-7.561,-39.268,-49.634,13_6_2.csv
2018-07-11T12:50:27.531578,-0.875,-0.24,0.071,4.451,-7.439,53.293,13_6_2.csv
2018-07-11T12:50:27.581712,-1.336,-0.486,0.1,-53.963,8.537,209.573,13_6_2.csv
2018-07-11T12:50:27.628838,-1.336,-0.486,0.1,-85.976,18.293,288.781,13_6_2.csv
2018-07-11T12:50:27.669446,-1.495,-0.781,0.098,-101.951,46.159,309.756,13_6_2.csv
2018-07-11T12:50:27.722588,-1.495,-0.781,0.098,-104.024,55.671,270.366,13_6_2.csv
2018-07-11T12:50:27.774225,-1.217,-0.751,-0.026,-112.195,42.683,70.671,13_6_2.csv
2018-07-11T12:50:27.825362,-0.79,-0.466,-0.007,-129.207,21.402,-50.61,13_6_2.csv
2018-07-11T12:50:27.872989,-0.79,-0.466,-0.007,-145.305,-9.756,-89.634,13_6_2.csv
2018-07-11T12:50:27.923122,-0.656,-0.402,0.095,-149.329,-35.061,-79.817,13_6_2.csv
2018-07-11T12:50:27.966738,-0.656,-0.402,0.095,-144.695,-46.341,-63.11,13_6_2.csv
2018-07-11T12:50:28.050461,-0.713,-0.475,0.207,-105.793,-18.415,-29.451,13_6_2.csv
2018-07-11T12:50:28.201363,-1.222,-0.562,0.207,9.695,18.354,14.756,13_6_2.csv
2018-07-11T12:50:28.257012,-1.197,-0.903,0.094,122.561,8.232,12.988,13_6_2.csv
2018-07-11T12:50:28.309652,-1.433,-0.618,-0.046,171.037,-10.244,-55.915,13_6_2.csv
2018-07-11T12:50:28.359284,-1.433,-0.618,-0.046,114.634,-59.634,-133.72,13_6_2.csv
2018-07-11T12:50:28.404405,-1.271,-0.362,-0.081,24.451,-93.232,-180.976,13_6_2.csv
2018-07-11T12:50:28.449525,-1.271,-0.362,-0.081,3.476,-86.341,-200.366,13_6_2.csv
2018-07-11T12:50:28.504172,-0.952,-0.341,0.009,46.707,-69.939,-173.72,13_6_2.csv
2018-07-11T12:50:28.566838,-0.725,-0.134,0.098,32.561,-72.134,-146.951,13_6_2.csv
2018-07-11T12:50:28.607947,-0.725,-0.134,0.098,6.098,-63.72,-106.646,13_6_2.csv
2018-07-11T12:50:28.659086,-0.526,-0.151,0.111,-29.878,-30.61,22.134,13_6_2.csv
2018-07-11T12:50:28.702200,-0.688,-0.406,0.092,46.28,2.988,112.5,13_6_2.csv
2018-07-11T12:50:28.749331,-0.688,-0.406,0.092,103.476,55.244,185.671,13_6_2.csv
2018-07-11T12:50:28.845592,-1.452,-0.344,-0.103,-155.732,34.207,223.171,13_6_2.csv
2018-07-11T12:50:28.891717,-1.537,-0.694,-0.142,-231.22,-1.768,255.061,13_6_2.csv
2018-07-11T12:50:28.938845,-1.537,-0.694,-0.142,-260.122,24.451,240.0,13_6_2.csv
2018-07-11T12:50:28.987976,-1.335,-0.722,-0.177,-145.549,1.463,120.0,13_6_2.csv
2018-07-11T12:50:29.032597,-0.935,-0.53,-0.162,-222.5,-36.646,58.598,13_6_2.csv
2018-07-11T12:50:29.076216,-0.935,-0.53,-0.162,-277.5,-52.134,-13.902,13_6_2.csv
2018-07-11T12:50:29.131867,-0.644,-0.555,-0.054,-253.537,-47.195,-59.207,13_6_2.csv
2018-07-11T12:50:29.171475,-0.644,-0.555,-0.054,-187.195,-34.451,-64.756,13_6_2.csv
2018-07-11T12:50:29.219605,-0.604,-0.511,0.113,-140.915,-34.268,-48.902,13_6_2.csv
2018-07-11T12:50:29.264728,-0.803,-0.575,0.289,-56.585,20.976,-12.988,13_6_2.csv
2018-07-11T12:50:29.313859,-0.803,-0.575,0.289,5.854,56.098,13.11,13_6_2.csv
2018-07-11T12:50:29.373020,-1.187,-0.52,0.297,49.878,66.707,31.341,13_6_2.csv
2018-07-11T12:50:29.445217,-1.317,-0.598,0.205,-17.073,22.073,-13.354,13_6_2.csv
2018-07-11T12:50:29.501366,-1.317,-0.598,0.205,-7.683,1.707,-21.89,13_6_2.csv
2018-07-11T12:50:29.544985,-1.067,-0.747,0.059,92.378,-18.354,-70.183,13_6_2.csv
2018-07-11T12:50:29.614258,-1.344,-0.591,-0.119,124.573,-61.098,-114.207,13_6_2.csv
2018-07-11T12:50:29.658375,-1.344,-0.591,-0.119,105.793,-88.232,-127.683,13_6_2.csv
2018-07-11T12:50:29.707512,-1.144,-0.403,-0.026,-22.866,-51.951,-176.89,13_6_2.csv
2018-07-11T12:50:29.756642,-0.947,-0.401,0.002,-22.622,-45.976,-184.939,13_6_2.csv
2018-07-11T12:50:29.808785,-0.947,-0.401,0.002,21.585,-42.256,-169.451,13_6_2.csv
2018-07-11T12:50:29.860925,-0.795,-0.196,0.094,46.22,-32.134,-138.598,13_6_2.csv
2018-07-11T12:50:29.904543,-0.624,-0.054,0.083,-11.707,-18.232,-50.732,13_6_2.csv
2018-07-11T12:50:29.954676,-0.624,-0.054,0.083,-51.951,-18.659,17.683,13_6_2.csv
2018-07-11T12:50:29.996789,-0.869,-0.277,0.012,-78.476,-12.073,100.854,13_6_2.csv
2018-07-11T12:50:30.053941,-0.869,-0.277,0.012,-85.061,-3.232,180.244,13_6_2.csv
2018-07-11T12:50:30.108086,-1.627,-0.708,-0.131,-107.378,-57.317,295.183,13_6_2.csv
2018-07-11T12:50:30.278038,-1.132,-0.577,-0.152,-216.951,-50.793,52.256,13_6_2.csv
2018-07-11T12:50:30.327169,-0.726,-0.443,-0.201,-283.902,-80.366,-11.524,13_6_2.csv
2018-07-11T12:50:30.371287,-0.726,-0.443,-0.201,-300.122,-88.171,-48.598,13_6_2.csv
2018-07-11T12:50:30.418923,-0.608,-0.522,-0.106,-256.585,-80.061,-44.756,13_6_2.csv
2018-07-11T12:50:30.474574,-0.682,-0.605,0.159,-145.061,-41.951,15.244,13_6_2.csv
2018-07-11T12:50:30.592894,-0.958,-0.678,0.43,138.415,128.049,68.11,13_6_2.csv
2018-07-11T12:50:30.640022,-1.379,-0.409,0.463,114.878,49.024,57.195,13_6_2.csv
2018-07-11T12:50:30.690156,-1.379,-0.409,0.463,-50.305,-70.732,21.037,13_6_2.csv
2018-07-11T12:50:30.730269,-0.998,-0.924,0.336,-112.256,-81.829,-16.89,13_6_2.csv
2018-07-11T12:50:30.779399,-0.998,-0.924,0.336,-11.22,-58.78,-49.024,13_6_2.csv
2018-07-11T12:50:30.854605,-1.101,-0.929,0.084,161.524,-16.524,-94.329,13_6_2.csv
2018-07-11T12:50:30.906746,-1.212,-0.593,-0.036,111.159,-30.732,-123.902,13_6_2.csv
2018-07-11T12:50:30.956880,-1.082,-0.477,-0.01,43.415,-37.195,-197.195,13_6_2.csv
2018-07-11T12:50:31.050629,-0.918,-0.357,0.053,28.841,-21.341,-196.159,13_6_2.csv
2018-07-11T12:50:31.093745,-0.918,-0.357,0.053,29.085,-9.024,-171.524,13_6_2.csv
2018-07-11T12:50:31.153404,-0.733,-0.277,0.167,55.854,30.915,-77.866,13_6_2.csv
2018-07-11T12:50:31.252167,-0.791,-0.148,0.214,43.232,75.183,40.549,13_6_2.csv
2018-07-11T12:50:31.358450,-1.321,-0.44,0.183,-96.951,94.146,197.622,13_6_2.csv
2018-07-11T12:50:31.404573,-1.321,-0.44,0.183,-83.537,91.89,212.683,13_6_2.csv
2018-07-11T12:50:31.456211,-1.477,-0.439,0.017,-148.72,36.037,205.976,13_6_2.csv
2018-07-11T12:50:31.499827,-1.477,-0.439,0.017,-293.354,-56.646,170.488,13_6_2.csv
2018-07-11T12:50:31.600095,-0.835,-0.671,0.123,-88.232,-7.195,6.098,13_6_2.csv
2018-07-11T12:50:31.659252,-0.835,-0.671,0.123,-58.476,-20.427,-11.585,13_6_2.csv
2018-07-11T12:50:31.732452,-0.762,-0.457,0.228,-66.768,-42.927,-1.829,13_6_2.csv
2018-07-11T12:50:31.820692,-0.822,-0.625,0.228,11.22,4.268,34.939,13_6_2.csv
2018-07-11T12:50:31.876843,-1.236,-0.784,0.021,-14.085,-13.963,12.5,13_6_2.csv
2018-07-11T12:50:31.919960,-1.151,-0.972,-0.131,3.415,-13.354,-28.171,13_6_2.csv
2018-07-11T12:50:31.967086,-1.151,-0.972,-0.131,91.829,9.329,-101.037,13_6_2.csv
2018-07-11T12:50:32.014217,-1.194,-0.638,-0.176,169.268,25.976,-165.976,13_6_2.csv
2018-07-11T12:50:32.060339,-1.194,-0.638,-0.176,204.451,13.963,-174.085,13_6_2.csv
2018-07-11T12:50:32.106468,-1.124,-0.366,0.013,191.463,23.72,-159.146,13_6_2.csv
2018-07-11T12:50:32.167631,-0.969,-0.344,0.177,58.171,27.378,-154.573,13_6_2.csv
2018-07-11T12:50:32.222782,-0.969,-0.344,0.177,39.573,8.963,-147.378,13_6_2.csv
2018-07-11T12:50:32.270910,-0.906,-0.268,0.084,10.854,-62.927,-125.549,13_6_2.csv
2018-07-11T12:50:32.321049,-0.697,-0.303,0.153,-26.098,-90.366,-79.024,13_6_2.csv
2018-07-11T12:50:32.377199,-0.697,-0.303,0.153,-23.354,-44.634,-27.561,13_6_2.csv
2018-07-11T12:50:32.428338,-0.813,-0.34,0.087,2.134,7.988,36.585,13_6_2.csv
2018-07-11T12:50:32.542647,-1.123,-0.442,0.006,-54.695,46.646,209.329,13_6_2.csv
2018-07-11T12:50:32.659461,-1.247,-0.636,0.016,-97.256,37.073,175.0,13_6_2.csv
2018-07-11T12:50:32.708090,-1.247,-0.636,0.016,-110.427,29.634,138.537,13_6_2.csv
2018-07-11T12:50:32.750202,-0.957,-0.667,0.099,-148.781,25.122,85.183,13_6_2.csv
2018-07-11T12:50:32.803845,-0.853,-0.588,0.15,-97.073,14.024,-14.268,13_6_2.csv
2018-07-11T12:50:32.843451,-0.853,-0.588,0.15,-80.244,-4.573,-21.768,13_6_2.csv
2018-07-11T12:50:32.962769,-1.037,-0.52,0.234,-8.293,12.988,-32.317,13_6_2.csv
2018-07-11T12:50:33.019420,-1.037,-0.52,0.234,13.354,-2.073,-33.049,13_6_2.csv
2018-07-11T12:50:33.092113,-1.229,-0.505,0.097,-16.524,-30.671,-52.134,13_6_2.csv
2018-07-11T12:50:33.138236,-1.127,-0.748,0.032,15.0,-26.707,-38.72,13_6_2.csv
2018-07-11T12:50:33.187869,-1.127,-0.748,0.032,73.476,-3.171,-24.085,13_6_2.csv
2018-07-11T12:50:33.232989,-1.138,-0.633,-0.056,126.463,10.549,-50.488,13_6_2.csv
2018-07-11T12:50:33.279112,-1.138,-0.633,-0.056,127.012,-23.354,-105.671,13_6_2.csv
2018-07-11T12:50:33.345288,-1.183,-0.454,-0.035,5.122,-75.549,-149.573,13_6_2.csv
2018-07-11T12:50:33.406952,-0.936,-0.511,0.109,10.427,-33.354,-156.098,13_6_2.csv
2018-07-11T12:50:33.463105,-0.797,-0.398,0.171,49.085,-42.256,-132.561,13_6_2.csv
2018-07-11T12:50:33.522265,-0.797,-0.398,0.171,99.939,-45.732,-88.049,13_6_2.csv
2018-07-11T12:50:33.576409,-0.666,-0.086,0.207,65.61,-39.085,16.463,13_6_2.csv
2018-07-11T12:50:33.622532,-0.672,-0.086,0.051,-20.244,-48.72,55.61,13_6_2.csv
2018-07-11T12:50:33.676175,-0.672,-0.086,0.051,-82.561,-53.293,96.646,13_6_2.csv
2018-07-11T12:50:33.723301,-1.037,-0.71,0.062,-79.634,-59.207,119.39,13_6_2.csv
2018-07-11T12:50:33.769424,-1.342,-0.876,0.161,-64.939,12.5,217.805,13_6_2.csv
2018-07-11T12:50:33.818554,-1.342,-0.876,0.161,-152.317,28.72,222.988,13_6_2.csv
2018-07-11T12:50:33.889744,-1.097,-0.742,-0.031,-230.122,-22.622,143.232,13_6_2.csv
2018-07-11T12:50:34.018588,-0.784,-0.6,-0.015,-207.195,-38.841,48.476,13_6_2.csv
2018-07-11T12:50:34.077243,-0.784,-0.6,-0.015,-182.134,-19.146,15.366,13_6_2.csv
2018-07-11T12:50:34.142418,-0.736,-0.524,0.123,-119.024,6.951,11.585,13_6_2.csv
2018-07-11T12:50:34.192050,-0.761,-0.556,0.24,-96.159,17.744,24.451,13_6_2.csv
2018-07-11T12:50:34.257224,-1.014,-0.622,0.307,-16.646,52.927,39.146,13_6_2.csv
2018-07-11T12:50:34.395592,-1.222,-0.605,0.249,-12.744,15.488,-14.878,13_6_2.csv
2018-07-11T12:50:34.436200,-1.199,-0.8,0.106,8.11,-18.293,-37.805,13_6_2.csv
2018-07-11T12:50:34.483326,-1.199,-0.8,0.106,61.463,-28.659,-47.134,13_6_2.csv
2018-07-11T12:50:34.533459,-1.215,-0.687,-0.049,125.244,-50.732,-137.561,13_6_2.csv
2018-07-11T12:50:34.594122,-1.325,-0.465,-0.081,105.915,-78.049,-154.695,13_6_2.csv
2018-07-11T12:50:34.663312,-1.037,-0.366,0.017,14.878,-60.183,-168.232,13_6_2.csv
2018-07-11T12:50:34.724475,-1.037,-0.366,0.017,-2.317,-46.463,-173.415,13_6_2.csv
2018-07-11T12:50:34.765589,-0.831,-0.278,0.098,-3.841,-51.28,-163.537,13_6_2.csv
2018-07-11T12:50:34.821739,-0.561,-0.124,0.156,31.341,-30.915,-80.305,13_6_2.csv
2018-07-11T12:50:34.873882,-0.561,-0.124,0.156,24.39,-20.671,-21.707,13_6_2.csv
2018-07-11T12:50:34.920005,-0.542,-0.174,0.09,-16.646,-17.073,37.439,13_6_2.csv
2018-07-11T12:50:34.968139,-0.542,-0.174,0.09,-29.756,22.805,111.22,13_6_2.csv
2018-07-11T12:50:35.013259,-1.234,-0.444,-0.017,-80.671,61.829,248.903,13_6_2.csv
2018-07-11T12:50:35.061392,-1.709,-0.687,-0.147,-155.183,28.659,292.622,13_6_2.csv
2018-07-11T12:50:35.113531,-1.709,-0.687,-0.147,-188.415,10.0,285.854,13_6_2.csv
2018-07-11T12:50:35.174698,-1.364,-0.844,-0.152,-160.732,-16.341,98.537,13_6_2.csv
2018-07-11T12:50:35.221823,-0.982,-0.577,-0.031,-132.378,-5.305,4.939,13_6_2.csv
2018-07-11T12:50:35.267952,-0.982,-0.577,-0.031,-145.244,-21.585,-72.195,13_6_2.csv
2018-07-11T12:50:35.314075,-0.81,-0.354,0.003,-172.439,-58.11,-120.976,13_6_2.csv
2018-07-11T12:50:35.359201,-0.81,-0.354,0.003,-158.842,-78.415,-134.512,13_6_2.csv
2018-07-11T12:50:35.415350,-0.562,-0.353,0.081,-120.305,-74.085,-53.354,13_6_2.csv
2018-07-11T12:50:35.565252,-0.977,-0.524,0.271,-6.585,40.305,63.78,13_6_2.csv
2018-07-11T12:50:35.608367,-0.977,-0.524,0.271,30.488,67.012,82.866,13_6_2.csv
2018-07-11T12:50:35.688580,-1.38,-0.381,0.224,-15.671,29.207,46.463,13_6_2.csv
2018-07-11T12:50:35.738213,-1.134,-0.535,0.169,-52.927,-30.488,24.268,13_6_2.csv
2018-07-11T12:50:35.783834,-0.726,-0.671,0.009,-11.707,-28.476,-5.915,13_6_2.csv
2018-07-11T12:50:35.839984,-0.726,-0.671,0.009,48.232,-31.951,-20.732,13_6_2.csv
2018-07-11T12:50:35.889616,-1.047,-0.684,-0.176,95.122,-24.085,-11.89,13_6_2.csv
2018-07-11T12:50:35.941253,-1.065,-0.644,-0.217,55.915,0.183,-75.488,13_6_2.csv
2018-07-11T12:50:35.983867,-1.065,-0.644,-0.217,55.0,3.476,-112.805,13_6_2.csv
2018-07-11T12:50:36.034001,-1.052,-0.538,-0.215,57.012,-13.232,-142.439,13_6_2.csv
2018-07-11T12:50:36.075110,-1.052,-0.538,-0.215,57.073,-20.488,-159.39,13_6_2.csv
2018-07-11T12:50:36.128782,-0.939,-0.421,-0.063,57.256,-14.573,-160.305,13_6_2.csv
2018-07-11T12:50:36.185937,-0.765,-0.347,0.174,28.598,48.659,-112.012,13_6_2.csv
2018-07-11T12:50:36.231561,-0.765,-0.347,0.174,22.805,67.805,-73.049,13_6_2.csv
2018-07-11T12:50:36.280194,-0.714,-0.294,0.228,32.5,65.122,-24.756,13_6_2.csv
2018-07-11T12:50:36.325815,-0.714,-0.294,0.228,36.28,47.378,26.829,13_6_2.csv
2018-07-11T12:50:36.373442,-0.971,-0.279,0.109,20.976,24.451,74.695,13_6_2.csv
2018-07-11T12:50:36.431597,-1.267,-0.495,0.003,-56.22,-4.756,164.085,13_6_2.csv
2018-07-11T12:50:36.488248,-1.267,-0.495,0.003,-83.415,0.915,189.756,13_6_2.csv
2018-07-11T12:50:36.532867,-1.189,-0.7,0.047,-55.427,45.793,182.622,13_6_2.csv
2018-07-11T12:50:36.597542,-1.115,-0.421,0.001,7.683,36.707,84.512,13_6_2.csv
2018-07-11T12:50:36.639654,-1.115,-0.421,0.001,-86.585,-23.354,3.598,13_6_2.csv
2018-07-11T12:50:36.691797,-0.934,-0.385,-0.027,-146.098,-86.89,-25.488,13_6_2.csv
2018-07-11T12:50:36.841699,-0.784,-0.391,0.139,-130.427,-18.11,-44.329,13_6_2.csv
2018-07-11T12:50:36.889827,-0.784,-0.391,0.139,-103.11,0.549,-33.049,13_6_2.csv
2018-07-11T12:50:36.936451,-0.881,-0.542,0.254,-58.598,15.244,-4.756,13_6_2.csv
2018-07-11T12:50:36.984078,-1.053,-0.404,0.246,46.89,71.463,47.439,13_6_2.csv
2018-07-11T12:50:37.090863,-1.084,-0.28,0.152,-7.683,-5.488,34.39,13_6_2.csv
2018-07-11T12:50:37.144005,-1.129,-0.619,0.061,-87.195,-71.89,-2.683,13_6_2.csv
2018-07-11T12:50:37.189626,-1.129,-0.619,0.061,-74.817,-62.317,35.244,13_6_2.csv
2018-07-11T12:50:37.372614,-1.034,-0.536,-0.17,169.512,-36.463,-121.342,13_6_2.csv
2018-07-11T12:50:37.424753,-1.048,-0.347,-0.074,54.329,-43.841,-124.39,13_6_2.csv
2018-07-11T12:50:37.472881,-0.865,-0.442,-0.104,15.915,-9.146,-99.146,13_6_2.csv
2018-07-11T12:50:37.518001,-0.865,-0.442,-0.104,3.537,0.854,-87.683,13_6_2.csv
2018-07-11T12:50:37.657874,-0.813,-0.432,0.024,10.976,26.098,-80.305,13_6_2.csv
2018-07-11T12:50:37.711016,-0.813,-0.393,0.216,37.134,77.073,-27.256,13_6_2.csv
2018-07-11T12:50:37.763155,-0.813,-0.393,0.216,27.5,93.415,11.28,13_6_2.csv
2018-07-11T12:50:37.809781,-0.911,-0.514,0.273,-1.098,88.963,37.5,13_6_2.csv
2018-07-11T12:50:37.872949,-1.102,-0.546,0.177,-4.024,15.122,61.951,13_6_2.csv
2018-07-11T12:50:37.919078,-1.102,-0.546,0.177,-41.707,-16.341,67.439,13_6_2.csv
2018-07-11T12:50:37.967206,-1.088,-0.607,0.131,-65.244,-25.915,85.488,13_6_2.csv
2018-07-11T12:50:38.021355,-1.088,-0.607,0.131,-56.098,-0.61,102.012,13_6_2.csv
2018-07-11T12:50:38.065472,-0.939,-0.515,0.104,-25.183,-3.049,70.183,13_6_2.csv
2018-07-11T12:50:38.106585,-1.025,-0.291,-0.056,-77.134,-50.61,29.207,13_6_2.csv
2018-07-11T12:50:38.155717,-1.025,-0.291,-0.056,-171.22,-109.207,-13.415,13_6_2.csv
2018-07-11T12:50:38.201845,-0.828,-0.46,-0.14,-221.463,-137.927,-37.256,13_6_2.csv
2018-07-11T12:50:38.246965,-0.828,-0.46,-0.14,-200.854,-124.573,-39.146,13_6_2.csv
2018-07-11T12:50:38.308132,-0.641,-0.562,0.004,-38.78,-20.793,7.134,13_6_2.csv
2018-07-11T12:50:38.419433,-0.761,-0.426,0.15,8.841,60.915,33.537,13_6_2.csv
2018-07-11T12:50:38.474580,-0.909,-0.402,0.18,-17.683,50.915,31.463,13_6_2.csv
2018-07-11T12:50:38.530735,-1.146,-0.464,0.175,-13.902,44.024,32.683,13_6_2.csv
2018-07-11T12:50:38.575855,-1.146,-0.464,0.175,-22.683,30.305,30.549,13_6_2.csv
2018-07-11T12:50:38.622985,-1.368,-0.599,0.128,-41.341,4.817,28.902,13_6_2.csv
2018-07-11T12:50:38.680640,-0.899,-0.625,0.104,-10.122,-14.329,10.61,13_6_2.csv
2018-07-11T12:50:38.737293,-0.899,-0.625,0.104,22.988,-17.317,-39.024,13_6_2.csv
2018-07-11T12:50:38.784421,-0.939,-0.515,-0.016,59.878,-30.427,-58.72,13_6_2.csv
2018-07-11T12:50:38.830547,-1.064,-0.495,-0.063,65.549,-60.671,-35.976,13_6_2.csv
2018-07-11T12:50:38.892714,-1.064,-0.495,-0.063,33.476,-54.512,-35.671,13_6_2.csv
2018-07-11T12:50:39.019055,-0.92,-0.458,-0.089,-39.207,-56.89,-132.744,13_6_2.csv
2018-07-11T12:50:39.164443,-0.632,-0.248,0.163,-18.659,-1.28,-19.817,13_6_2.csv
2018-07-11T12:50:39.216581,-0.632,-0.248,0.163,-35.122,-0.976,35.427,13_6_2.csv
2018-07-11T12:50:39.268219,-0.862,-0.364,0.14,-70.427,-1.402,88.841,13_6_2.csv
2018-07-11T12:50:39.317350,-1.501,-0.645,-0.016,-92.317,10.671,182.683,13_6_2.csv
2018-07-11T12:50:39.374503,-1.501,-0.645,-0.016,-76.829,-1.829,225.427,13_6_2.csv
2018-07-11T12:50:39.419623,-1.166,-0.674,0.036,-46.037,25.61,229.756,13_6_2.csv
2018-07-11T12:50:39.472764,-1.166,-0.674,0.036,-39.573,48.293,155.122,13_6_2.csv
2018-07-11T12:50:39.535933,-1.055,-0.498,-0.068,-102.073,-66.463,3.293,13_6_2.csv
2018-07-11T12:50:39.597096,-0.819,-0.443,-0.087,-219.878,-89.024,-87.439,13_6_2.csv
2018-07-11T12:50:39.642216,-0.757,-0.532,-0.015,-197.927,-66.707,-109.634,13_6_2.csv
2018-07-11T12:50:39.688840,-0.757,-0.532,-0.015,-128.354,-46.037,-99.39,13_6_2.csv
2018-07-11T12:50:39.776073,-0.795,-0.445,0.122,-63.293,-10.366,-62.866,13_6_2.csv
2018-07-11T12:50:39.832725,-0.833,-0.456,0.246,-37.927,7.195,-45.976,13_6_2.csv
2018-07-11T12:50:39.890377,-0.989,-0.308,0.438,63.841,36.159,-2.134,13_6_2.csv
2018-07-11T12:50:39.936500,-0.989,-0.308,0.438,-53.963,-41.463,-9.695,13_6_2.csv
2018-07-11T12:50:39.984628,-0.918,-0.528,0.238,-118.902,-35.244,5.793,13_6_2.csv
2018-07-11T12:50:40.049301,-1.126,-0.745,0.04,-37.561,9.695,47.439,13_6_2.csv
2018-07-11T12:50:40.110965,-1.126,-0.745,0.04,39.39,27.744,79.207,13_6_2.csv
2018-07-11T12:50:40.166112,-1.067,-0.729,0.044,140.793,50.549,83.293,13_6_2.csv
2018-07-11T12:50:40.216747,-0.973,-0.466,0.004,133.659,20.976,10.488,13_6_2.csv
2018-07-11T12:50:40.289441,-1.06,-0.408,-0.047,39.939,-85.793,-68.963,13_6_2.csv
2018-07-11T12:50:40.342582,-1.06,-0.408,-0.047,-6.037,-94.207,-70.732,13_6_2.csv
2018-07-11T12:50:40.391212,-0.905,-0.469,-0.074,-47.805,-78.841,-72.073,13_6_2.csv
2018-07-11T12:50:40.435831,-0.905,-0.469,-0.074,-66.402,-68.415,-88.963,13_6_2.csv
2018-07-11T12:50:40.490978,-0.829,-0.422,-0.063,-59.695,-53.78,-106.22,13_6_2.csv
2018-07-11T12:50:40.544621,-0.741,-0.341,0.029,-51.463,-40.854,-87.012,13_6_2.csv
2018-07-11T12:50:40.590242,-0.741,-0.341,0.029,-37.256,-19.756,-50.183,13_6_2.csv
2018-07-11T12:50:40.639875,-0.707,-0.302,0.055,-33.841,6.524,53.354,13_6_2.csv
2018-07-11T12:50:40.685496,-0.927,-0.41,0.034,-42.622,12.5,100.854,13_6_2.csv
2018-07-11T12:50:40.733624,-0.927,-0.41,0.034,-42.805,30.671,138.902,13_6_2.csv
2018-07-11T12:50:40.785262,-1.466,-0.695,-0.013,-51.707,27.012,173.598,13_6_2.csv
2018-07-11T12:50:40.841412,-1.107,-0.663,0.117,-12.256,55.549,200.0,13_6_2.csv
2018-07-11T12:50:40.889540,-1.107,-0.663,0.117,-62.195,80.488,90.061,13_6_2.csv
2018-07-11T12:50:40.942180,-1.028,-0.452,-0.009,-85.915,34.39,-31.402,13_6_2.csv
2018-07-11T12:50:40.984292,-1.028,-0.452,-0.009,-100.793,-47.927,-81.402,13_6_2.csv
2018-07-11T12:50:41.031418,-0.912,-0.401,-0.009,-141.524,-103.598,-90.732,13_6_2.csv
2018-07-11T12:50:41.155248,-0.798,-0.442,0.098,-94.024,-55.183,-89.756,13_6_2.csv
2018-07-11T12:50:41.248497,-0.876,-0.341,0.237,-49.878,5.488,-20.0,13_6_2.csv
2018-07-11T12:50:41.298630,-0.876,-0.341,0.237,-25.183,15.915,2.378,13_6_2.csv
2018-07-11T12:50:41.343750,-0.874,-0.329,0.197,-21.829,2.683,15.732,13_6_2.csv
2018-07-11T12:50:41.488137,-1.265,-0.671,0.012,-60.61,-14.451,66.707,13_6_2.csv
2018-07-11T12:50:41.548798,-1.265,-0.671,0.012,-35.244,-13.11,94.207,13_6_2.csv
2018-07-11T12:50:41.599934,-0.936,-0.837,0.068,31.89,19.573,111.402,13_6_2.csv
2018-07-11T12:50:41.641544,-0.936,-0.837,0.068,87.988,50.488,49.146,13_6_2.csv
2018-07-11T12:50:41.691177,-1.009,-0.456,-0.064,81.951,-53.171,-118.171,13_6_2.csv
2018-07-11T12:50:41.753342,-1.118,-0.41,-0.006,42.317,-100.427,-101.463,13_6_2.csv
2018-07-11T12:50:41.825535,-0.863,-0.46,-0.034,-50.549,-36.402,-70.732,13_6_2.csv
2018-07-11T12:50:41.935328,-0.838,-0.406,-0.055,-48.293,-55.366,-99.695,13_6_2.csv
2018-07-11T12:50:41.983957,-0.736,-0.351,0.115,-48.232,-32.012,-70.61,13_6_2.csv
2018-07-11T12:50:42.045120,-0.841,-0.362,0.251,-47.988,24.878,20.915,13_6_2.csv
2018-07-11T12:50:42.093249,-0.841,-0.362,0.251,-110.061,15.793,40.427,13_6_2.csv
2018-07-11T12:50:42.139371,-0.949,-0.739,0.09,-166.463,-53.598,31.341,13_6_2.csv
2018-07-11T12:50:42.188001,-0.949,-0.739,0.09,-142.195,-119.756,44.207,13_6_2.csv
2018-07-11T12:50:42.240140,-0.923,-0.847,0.045,-71.585,-108.171,73.11,13_6_2.csv
2018-07-11T12:50:42.297794,-1.085,-0.769,-0.026,-4.024,-54.573,137.439,13_6_2.csv
2018-07-11T12:50:42.361964,-1.085,-0.769,-0.026,30.061,-27.805,159.634,13_6_2.csv
2018-07-11T12:50:42.408589,-0.853,-0.578,-0.043,36.768,13.537,46.89,13_6_2.csv
2018-07-11T12:50:42.502839,-0.921,-0.364,-0.036,-67.378,-41.402,-49.024,13_6_2.csv
2018-07-11T12:50:42.553475,-0.92,-0.382,0.083,-128.598,-51.585,-80.671,13_6_2.csv
2018-07-11T12:50:42.604110,-0.92,-0.382,0.083,-129.39,-41.28,-96.707,13_6_2.csv
2018-07-11T12:50:42.653742,-0.833,-0.405,0.149,-65.488,-54.634,-86.89,13_6_2.csv
2018-07-11T12:50:42.701369,-0.771,-0.324,0.325,-15.549,-24.268,-49.268,13_6_2.csv
2018-07-11T12:50:42.749343,-0.771,-0.324,0.325,0.0,3.78,3.293,13_6_2.csv
2018-07-11T12:50:42.794463,-0.845,-0.271,0.332,-5.061,26.402,45.427,13_6_2.csv
2018-07-11T12:50:42.857637,-1.003,-0.383,0.224,-42.805,13.72,89.878,13_6_2.csv
2018-07-11T12:50:42.918804,-1.003,-0.383,0.224,-51.524,-0.488,102.256,13_6_2.csv
2018-07-11T12:50:42.966932,-1.072,-0.552,0.148,-68.293,-7.805,101.829,13_6_2.csv
2018-07-11T12:50:43.015065,-1.251,-0.847,-0.01,-66.585,-13.841,73.354,13_6_2.csv
2018-07-11T12:50:43.066703,-1.251,-0.847,-0.01,-24.024,-22.439,60.244,13_6_2.csv
2018-07-11T12:50:43.122351,-0.839,-0.874,-0.025,44.512,-12.622,32.256,13_6_2.csv
2018-07-11T12:50:43.193040,-0.931,-0.553,-0.078,159.939,10.61,-89.817,13_6_2.csv
2018-07-11T12:50:43.250192,-0.931,-0.553,-0.078,144.817,-7.134,-99.207,13_6_2.csv
2018-07-11T12:50:43.304336,-1.085,-0.497,-0.085,86.341,-1.707,-76.098,13_6_2.csv
2018-07-11T12:50:43.366502,-1.02,-0.496,-0.122,46.89,-4.451,-85.122,13_6_2.csv
2018-07-11T12:50:43.421147,-0.987,-0.446,-0.123,-2.866,-31.341,-134.207,13_6_2.csv
2018-07-11T12:50:43.466769,-0.987,-0.446,-0.123,-13.476,-15.61,-140.122,13_6_2.csv
2018-07-11T12:50:43.518908,-0.848,-0.382,0.016,-15.427,11.463,-124.939,13_6_2.csv
2018-07-11T12:50:43.578567,-0.673,-0.328,0.203,22.317,56.829,-47.256,13_6_2.csv
2018-07-11T12:50:43.640231,-0.673,-0.328,0.203,56.098,83.354,5.488,13_6_2.csv
2018-07-11T12:50:43.706909,-0.789,-0.252,0.197,-9.329,59.085,104.024,13_6_2.csv
2018-07-11T12:50:43.766067,-1.185,-0.486,0.071,-1.829,46.159,149.024,13_6_2.csv
2018-07-11T12:50:43.868047,-1.452,-0.764,0.169,53.171,121.159,223.903,13_6_2.csv
2018-07-11T12:50:43.942249,-1.096,-0.501,0.127,-10.732,36.037,14.146,13_6_2.csv
2018-07-11T12:50:44.002413,-1.006,-0.31,-0.01,-71.524,-67.805,-89.268,13_6_2.csv
2018-07-11T12:50:44.043523,-1.006,-0.31,-0.01,-140.244,-142.317,-119.512,13_6_2.csv
2018-07-11T12:50:44.187916,-0.737,-0.469,0.072,-44.329,-39.085,-73.11,13_6_2.csv
2018-07-11T12:50:44.241558,-0.801,-0.38,0.166,-2.439,-17.256,-44.39,13_6_2.csv
2018-07-11T12:50:44.296205,-0.801,-0.38,0.166,25.61,12.195,-16.585,13_6_2.csv
2018-07-11T12:50:44.361380,-0.876,-0.32,0.226,12.5,27.622,22.683,13_6_2.csv
2018-07-11T12:50:44.406500,-0.958,-0.37,0.145,-14.451,4.451,32.805,13_6_2.csv
2018-07-11T12:50:44.474684,-1.133,-0.54,0.039,-32.683,-10.427,59.451,13_6_2.csv
2018-07-11T12:50:44.513287,-1.133,-0.54,0.039,-10.488,-2.012,84.39,13_6_2.csv
2018-07-11T12:50:44.569436,-1.091,-0.696,0.09,10.366,10.61,92.805,13_6_2.csv
2018-07-11T12:50:44.624082,-0.959,-0.634,-0.056,73.659,64.573,14.695,13_6_2.csv
2018-07-11T12:50:44.670205,-0.959,-0.634,-0.056,126.281,13.72,-46.768,13_6_2.csv
2018-07-11T12:50:44.718333,-1.102,-0.365,-0.029,105.427,-55.61,-70.915,13_6_2.csv
2018-07-11T12:50:44.763453,-1.102,-0.365,-0.029,23.354,-58.902,-83.171,13_6_2.csv
2018-07-11T12:50:44.813091,-0.872,-0.392,0.045,-66.22,-24.634,-97.5,13_6_2.csv
2018-07-11T12:50:44.864226,-0.847,-0.487,0.057,-84.024,-40.549,-124.329,13_6_2.csv
2018-07-11T12:50:44.905342,-0.847,-0.487,0.057,-47.683,-37.5,-101.89,13_6_2.csv
2018-07-11T12:50:44.950463,-0.815,-0.434,0.221,-29.939,-20.976,-64.39,13_6_2.csv
2018-07-11T12:50:44.999598,-0.815,-0.434,0.221,-9.39,-10.427,-20.854,13_6_2.csv
2018-07-11T12:50:45.043716,-0.865,-0.372,0.237,25.122,-6.585,25.976,13_6_2.csv
2018-07-11T12:50:45.110898,-0.967,-0.341,0.083,-14.634,-33.537,77.256,13_6_2.csv
2018-07-11T12:50:45.160030,-0.967,-0.341,0.083,-55.915,-49.756,88.598,13_6_2.csv
2018-07-11T12:50:45.269325,-1.226,-0.585,-0.088,-84.573,-47.378,126.22,13_6_2.csv
2018-07-11T12:50:45.318461,-1.226,-0.585,-0.088,-84.024,-23.841,110.671,13_6_2.csv
2018-07-11T12:50:45.374610,-0.866,-0.474,-0.013,-62.744,17.927,67.988,13_6_2.csv
2018-07-11T12:50:45.418734,-0.866,-0.474,-0.013,-51.829,16.463,19.451,13_6_2.csv
2018-07-11T12:50:45.480399,-0.931,-0.083,-0.012,-146.89,-38.171,-16.22,13_6_2.csv
2018-07-11T12:50:45.569138,-0.873,-0.072,-0.046,-260.0,-84.146,33.476,13_6_2.csv
2018-07-11T12:50:45.622285,-0.854,-0.478,0.1,-104.085,-57.805,94.634,13_6_2.csv
2018-07-11T12:50:45.690970,-0.947,-0.188,0.203,20.305,69.39,79.39,13_6_2.csv
2018-07-11T12:50:45.732583,-0.947,-0.188,0.203,-56.829,59.268,52.378,13_6_2.csv
2018-07-11T12:50:45.779209,-0.874,-0.389,0.247,-95.183,35.488,24.268,13_6_2.csv
2018-07-11T12:50:45.831851,-1.1,-0.682,0.268,-6.22,39.207,11.402,13_6_2.csv
2018-07-11T12:50:45.893016,-1.1,-0.682,0.268,44.146,41.585,5.183,13_6_2.csv
2018-07-11T12:50:45.935131,-1.322,-0.619,0.157,9.695,17.561,-42.988,13_6_2.csv
2018-07-11T12:50:45.982760,-1.322,-0.619,0.157,2.134,-2.988,-86.463,13_6_2.csv
2018-07-11T12:50:46.038411,-1.292,-0.668,0.027,117.012,-32.927,-109.573,13_6_2.csv
2018-07-11T12:50:46.092056,-1.396,-0.447,-0.134,113.902,-51.037,-137.744,13_6_2.csv
2018-07-11T12:50:46.138682,-1.396,-0.447,-0.134,86.951,-98.72,-157.988,13_6_2.csv
2018-07-11T12:50:46.190322,-1.325,-0.38,-0.078,-30.0,-103.293,-176.037,13_6_2.csv
2018-07-11T12:50:46.342231,-0.733,-0.151,0.166,49.451,-36.037,-162.805,13_6_2.csv
2018-07-11T12:50:46.565326,-1.548,-0.707,-0.105,-109.634,-18.11,236.524,13_6_2.csv
2018-07-11T12:50:46.729262,-1.087,-0.909,-0.197,-194.817,-36.098,144.939,13_6_2.csv
2018-07-11T12:50:46.779396,-1.087,-0.909,-0.197,-46.341,3.232,5.854,13_6_2.csv
2018-07-11T12:50:46.832538,-0.783,-0.343,-0.176,-158.11,-83.78,-61.341,13_6_2.csv
2018-07-11T12:50:46.911247,-0.513,-0.349,-0.04,-175.549,-51.768,-61.28,13_6_2.csv
2018-07-11T12:50:46.966896,-0.573,-0.399,0.066,-154.085,-45.244,-44.878,13_6_2.csv
2018-07-11T12:50:47.014022,-0.573,-0.399,0.066,-147.012,-37.561,-18.049,13_6_2.csv
2018-07-11T12:50:47.077691,-0.72,-0.604,0.276,-51.037,26.646,56.707,13_6_2.csv
2018-07-11T12:50:47.130332,-1.213,-0.696,0.394,51.646,105.366,91.341,13_6_2.csv
2018-07-11T12:50:47.175953,-1.213,-0.696,0.394,98.841,120.183,115.488,13_6_2.csv
2018-07-11T12:50:47.219569,-1.438,-0.65,0.196,28.476,55.488,101.829,13_6_2.csv
2018-07-11T12:50:47.270204,-1.438,-0.65,0.196,-13.476,-1.768,58.659,13_6_2.csv
2018-07-11T12:50:47.310311,-1.144,-0.776,0.06,21.037,-17.195,-0.61,13_6_2.csv
2018-07-11T12:50:47.357437,-1.039,-0.565,-0.052,61.524,-47.134,-108.049,13_6_2.csv
2018-07-11T12:50:47.423112,-1.039,-0.565,-0.052,65.488,-59.024,-122.561,13_6_2.csv
2018-07-11T12:50:47.482269,-0.864,-0.495,0.011,52.744,-14.329,-96.341,13_6_2.csv
2018-07-11T12:50:47.528392,-0.735,-0.384,-0.019,49.878,-17.195,-96.585,13_6_2.csv
2018-07-11T12:50:47.577523,-0.735,-0.384,-0.019,42.195,-33.476,-100.549,13_6_2.csv
2018-07-11T12:50:47.623646,-0.736,-0.267,-0.047,16.22,-49.329,-95.305,13_6_2.csv
2018-07-11T12:50:47.671774,-0.736,-0.267,-0.047,-27.073,-51.768,-81.951,13_6_2.csv
2018-07-11T12:50:47.723913,-0.771,-0.378,0.018,-10.549,4.756,8.537,13_6_2.csv
2018-07-11T12:50:47.783071,-1.145,-0.382,0.03,12.927,34.329,56.829,13_6_2.csv
2018-07-11T12:50:47.831701,-1.145,-0.382,0.03,-2.378,34.817,105.122,13_6_2.csv
2018-07-11T12:50:47.875317,-1.307,-0.506,0.117,-71.341,57.073,153.72,13_6_2.csv
2018-07-11T12:50:47.922945,-1.184,-0.43,0.073,-40.793,72.805,126.281,13_6_2.csv
2018-07-11T12:50:48.007670,-0.995,-0.337,0.0,-144.024,-72.805,20.671,13_6_2.csv
2018-07-11T12:50:48.071473,-0.995,-0.337,0.0,-204.329,-102.622,-0.549,13_6_2.csv
2018-07-11T12:50:48.124113,-0.698,-0.451,0.03,-147.073,-64.878,-10.305,13_6_2.csv
2018-07-11T12:50:48.173746,-0.706,-0.359,0.181,-87.378,-38.232,10.732,13_6_2.csv
2018-07-11T12:50:48.217362,-0.706,-0.359,0.181,-57.256,-23.354,44.207,13_6_2.csv
2018-07-11T12:50:48.265992,-0.809,-0.435,0.21,-55.427,-30.366,66.585,13_6_2.csv
2018-07-11T12:50:48.316626,-0.809,-0.435,0.21,-35.854,-17.134,78.963,13_6_2.csv
2018-07-11T12:50:48.402355,-1.276,-0.887,0.014,-20.366,11.707,63.598,13_6_2.csv
2018-07-11T12:50:48.459507,-1.276,-0.887,0.014,-12.866,4.817,23.902,13_6_2.csv
2018-07-11T12:50:48.547241,-1.119,-0.942,-0.059,100.671,14.756,-116.89,13_6_2.csv
2018-07-11T12:50:48.596373,-1.267,-0.602,-0.132,119.939,-7.134,-184.39,13_6_2.csv
2018-07-11T12:50:48.640490,-1.182,-0.416,-0.075,129.207,-15.793,-167.5,13_6_2.csv
2018-07-11T12:50:48.686111,-1.182,-0.416,-0.075,100.976,3.598,-173.659,13_6_2.csv
2018-07-11T12:50:48.749280,-1.053,-0.347,-0.01,73.841,5.122,-175.305,13_6_2.csv
2018-07-11T12:50:48.804928,-0.893,-0.262,0.128,59.268,-10.854,-159.512,13_6_2.csv
2018-07-11T12:50:48.876621,-0.893,-0.262,0.128,66.646,-2.5,-131.037,13_6_2.csv
2018-07-11T12:50:48.920738,-0.712,-0.049,0.209,14.939,2.439,-21.646,13_6_2.csv
2018-07-11T12:50:48.967365,-0.791,-0.15,0.094,-45.305,11.646,49.512,13_6_2.csv
2018-07-11T12:50:49.013990,-0.791,-0.15,0.094,-68.78,23.476,131.707,13_6_2.csv
2018-07-11T12:50:49.066630,-1.312,-0.612,0.019,-66.768,23.232,212.317,13_6_2.csv
2018-07-11T12:50:49.137820,-1.499,-0.609,-0.019,-16.159,107.256,263.049,13_6_2.csv
2018-07-11T12:50:49.185446,-1.499,-0.609,-0.019,-59.817,67.073,197.866,13_6_2.csv
2018-07-11T12:50:49.235580,-1.217,-0.537,-0.071,-140.549,-13.415,127.195,13_6_2.csv
2018-07-11T12:50:49.284209,-0.77,-0.543,-0.072,-256.89,-43.232,-25.427,13_6_2.csv
2018-07-11T12:50:49.370941,-0.634,-0.492,-0.016,-177.683,-74.085,-37.744,13_6_2.csv
2018-07-11T12:50:49.422077,-0.634,-0.492,-0.016,-157.866,-73.963,-22.683,13_6_2.csv
2018-07-11T12:50:49.524851,-0.975,-0.647,0.141,-39.878,4.207,25.671,13_6_2.csv
2018-07-11T12:50:49.592030,-0.975,-0.647,0.141,-13.841,18.171,29.817,13_6_2.csv
2018-07-11T12:50:49.639156,-1.192,-0.748,0.091,-12.439,36.341,11.463,13_6_2.csv
2018-07-11T12:50:49.687785,-1.261,-0.866,0.099,77.561,37.073,-14.939,13_6_2.csv
2018-07-11T12:50:49.736916,-1.261,-0.866,0.099,143.537,41.829,-49.695,13_6_2.csv
2018-07-11T12:50:49.779530,-1.29,-0.524,0.026,121.524,-10.427,-128.781,13_6_2.csv
2018-07-11T12:50:49.855733,-1.201,-0.38,0.084,42.012,-67.744,-168.415,13_6_2.csv
2018-07-11T12:50:49.920405,-1.201,-0.38,0.084,-7.195,-59.756,-177.195,13_6_2.csv
2018-07-11T12:50:49.966026,-0.985,-0.345,0.18,19.329,-67.866,-154.146,13_6_2.csv
2018-07-11T12:50:50.015659,-0.747,-0.112,0.253,47.805,-66.463,-104.878,13_6_2.csv
2018-07-11T12:50:50.059275,-0.747,-0.112,0.253,28.72,-75.488,-48.841,13_6_2.csv
2018-07-11T12:50:50.106401,-0.533,-0.078,0.19,-25.183,-82.622,-3.049,13_6_2.csv
2018-07-11T12:50:50.163052,-0.533,-0.078,0.19,-54.817,-76.707,51.037,13_6_2.csv
2018-07-11T12:50:50.221708,-0.761,-0.48,0.035,-30.976,-32.988,189.085,13_6_2.csv
2018-07-11T12:50:50.268834,-1.317,-0.632,-0.088,-41.829,-8.841,232.805,13_6_2.csv
2018-07-11T12:50:50.422744,-1.162,-0.782,-0.135,-84.024,82.561,195.61,13_6_2.csv
2018-07-11T12:50:50.469368,-1.162,-0.782,-0.135,-57.744,49.268,64.634,13_6_2.csv
2018-07-11T12:50:50.513487,-0.896,-0.395,-0.1,-107.256,2.561,-43.659,13_6_2.csv
2018-07-11T12:50:50.573147,-0.608,-0.431,-0.054,-258.781,-89.024,-122.378,13_6_2.csv
2018-07-11T12:50:50.623281,-0.608,-0.431,-0.054,-245.793,-76.646,-108.781,13_6_2.csv
2018-07-11T12:50:50.670410,-0.544,-0.472,0.066,-191.281,-51.524,-72.012,13_6_2.csv
2018-07-11T12:50:50.784302,-0.79,-0.584,0.212,-25.0,32.5,26.829,13_6_2.csv
2018-07-11T12:50:50.830427,-1.189,-0.578,0.279,28.415,55.976,50.976,13_6_2.csv
2018-07-11T12:50:50.874043,-1.189,-0.578,0.279,14.634,61.402,53.354,13_6_2.csv
2018-07-11T12:50:50.928188,-1.42,-0.753,0.234,-28.232,48.537,31.585,13_6_2.csv
2018-07-11T12:50:50.983836,-1.222,-0.855,0.146,71.951,10.183,-3.78,13_6_2.csv
2018-07-11T12:50:51.029458,-1.222,-0.855,0.146,125.732,-19.085,-57.805,13_6_2.csv
2018-07-11T12:50:51.077084,-1.292,-0.46,-0.042,131.768,-75.061,-119.878,13_6_2.csv
2018-07-11T12:50:51.137245,-1.149,-0.325,-0.064,16.098,-128.476,-155.793,13_6_2.csv
2018-07-11T12:50:51.183869,-1.149,-0.325,-0.064,-45.488,-116.524,-162.195,13_6_2.csv
2018-07-11T12:50:51.249680,-0.87,-0.356,-0.018,-64.024,-110.732,-158.842,13_6_2.csv
2018-07-11T12:50:51.388550,-0.502,-0.132,0.16,17.256,-26.646,-7.256,13_6_2.csv
2018-07-11T12:50:51.438182,-0.502,-0.132,0.16,-0.122,-9.695,57.012,13_6_2.csv
2018-07-11T12:50:51.486311,-0.937,-0.332,-0.01,-35.732,-7.866,128.171,13_6_2.csv
2018-07-11T12:50:51.533436,-0.937,-0.332,-0.01,-59.878,-7.866,190.183,13_6_2.csv
2018-07-11T12:50:51.579562,-1.71,-0.68,-0.181,-138.11,-33.659,283.598,13_6_2.csv
2018-07-11T12:50:51.637716,-1.374,-0.833,-0.033,-121.463,7.744,289.146,13_6_2.csv
2018-07-11T12:50:51.691361,-1.374,-0.833,-0.033,-58.963,78.293,203.354,13_6_2.csv
2018-07-11T12:50:51.731969,-1.082,-0.448,-0.081,-38.963,59.817,89.695,13_6_2.csv
2018-07-11T12:50:51.789124,-0.743,-0.37,-0.095,-240.976,-72.622,-38.049,13_6_2.csv
2018-07-11T12:50:51.841263,-0.743,-0.37,-0.095,-273.293,-92.134,-61.585,13_6_2.csv
2018-07-11T12:50:51.888393,-0.582,-0.48,-0.067,-253.72,-98.78,-60.61,13_6_2.csv
2018-07-11T12:50:51.941534,-0.658,-0.572,0.056,-187.622,-74.878,-21.037,13_6_2.csv
2018-07-11T12:50:52.028771,-0.953,-0.759,0.303,-39.146,16.829,40.244,13_6_2.csv
2018-07-11T12:50:52.098459,-1.252,-0.606,0.375,74.451,66.89,50.427,13_6_2.csv
2018-07-11T12:50:52.163633,-1.252,-0.606,0.375,6.829,37.195,25.061,13_6_2.csv
2018-07-11T12:50:52.202236,-1.219,-0.79,0.266,-25.488,7.561,-1.829,13_6_2.csv
2018-07-11T12:50:52.264402,-1.109,-0.793,0.043,89.817,-0.122,-25.122,13_6_2.csv
2018-07-11T12:50:52.406279,-1.152,-0.549,-0.131,108.354,-62.012,-131.585,13_6_2.csv
2018-07-11T12:50:52.566707,-0.883,-0.323,-0.069,41.829,-18.537,-136.951,13_6_2.csv
2018-07-11T12:50:52.608318,-0.749,-0.265,0.023,19.085,-10.427,-115.427,13_6_2.csv
2018-07-11T12:50:52.658953,-0.749,-0.265,0.023,6.768,-4.817,-82.683,13_6_2.csv
2018-07-11T12:50:52.705076,-0.735,-0.297,0.136,47.927,48.902,22.195,13_6_2.csv
2018-07-11T12:50:52.752703,-1.071,-0.297,0.164,22.256,63.659,78.537,13_6_2.csv
2018-07-11T12:50:52.811860,-1.071,-0.297,0.164,-40.915,56.829,137.439,13_6_2.csv
2018-07-11T12:50:52.881045,-1.199,-0.519,0.217,-68.902,89.695,180.061,13_6_2.csv
2018-07-11T12:50:52.927168,-1.266,-0.48,0.09,-98.293,57.988,146.951,13_6_2.csv
2018-07-11T12:50:52.986827,-0.951,-0.547,0.064,-166.22,-9.756,104.695,13_6_2.csv
2018-07-11T12:50:53.032950,-0.951,-0.547,0.064,-167.561,-7.805,66.951,13_6_2.csv
2018-07-11T12:50:53.082582,-0.763,-0.55,0.104,-134.573,-13.049,28.72,13_6_2.csv
2018-07-11T12:50:53.124695,-0.763,-0.55,0.104,-105.915,-16.524,14.024,13_6_2.csv
2018-07-11T12:50:53.170817,-0.773,-0.514,0.178,-95.976,-17.012,4.634,13_6_2.csv
2018-07-11T12:50:53.232983,-0.924,-0.571,0.204,-56.951,-4.695,-12.744,13_6_2.csv
2018-07-11T12:50:53.295650,-0.924,-0.571,0.204,-25.488,3.415,-12.561,13_6_2.csv
2018-07-11T12:50:53.343778,-1.106,-0.596,0.103,-17.317,2.622,-19.939,13_6_2.csv
2018-07-11T12:50:53.391405,-1.29,-0.842,-0.01,-5.122,-5.671,-41.402,13_6_2.csv
2018-07-11T12:50:53.501700,-1.236,-0.741,-0.14,175.915,40.305,-35.244,13_6_2.csv
2018-07-11T12:50:53.549834,-1.344,-0.328,-0.124,147.988,-63.659,-154.695,13_6_2.csv
2018-07-11T12:50:53.611999,-1.344,-0.328,-0.124,61.829,-70.976,-181.22,13_6_2.csv
2018-07-11T12:50:53.670157,-1.044,-0.288,-0.003,-22.988,-53.841,-180.671,13_6_2.csv
2018-07-11T12:50:53.717784,-0.816,-0.236,0.074,-19.573,-56.829,-155.427,13_6_2.csv
2018-07-11T12:50:53.767416,-0.816,-0.236,0.074,-16.341,-57.012,-114.39,13_6_2.csv
2018-07-11T12:50:53.809528,-0.59,-0.102,0.192,-7.683,-44.939,-59.512,13_6_2.csv
2018-07-11T12:50:53.858158,-0.59,-0.102,0.192,-14.878,-34.39,4.39,13_6_2.csv
2018-07-11T12:50:53.911801,-0.636,-0.19,0.165,-63.78,-22.317,142.927,13_6_2.csv
2018-07-11T12:50:53.971961,-1.282,-0.56,-0.02,-58.11,-11.646,208.659,13_6_2.csv
2018-07-11T12:50:54.018084,-1.282,-0.56,-0.02,-81.463,-14.756,250.061,13_6_2.csv
2018-07-11T12:50:54.066714,-1.81,-0.888,-0.065,-125.976,-34.085,287.866,13_6_2.csv
2018-07-11T12:50:54.107322,-1.138,-0.741,-0.06,-155.366,1.341,206.403,13_6_2.csv
2018-07-11T12:50:54.159962,-1.138,-0.741,-0.06,-121.524,0.854,48.232,13_6_2.csv
2018-07-11T12:50:54.219621,-0.889,-0.419,-0.047,-116.707,-34.695,-40.61,13_6_2.csv
2018-07-11T12:50:54.266246,-0.889,-0.419,-0.047,-186.951,-80.183,-61.89,13_6_2.csv
2018-07-11T12:50:54.317883,-0.58,-0.45,0.026,-170.366,-87.012,-66.098,13_6_2.csv
2018-07-11T12:50:54.359494,-0.551,-0.589,0.24,-108.11,-57.805,-43.415,13_6_2.csv
2018-07-11T12:50:54.404113,-0.551,-0.589,0.24,-72.927,-9.695,-9.024,13_6_2.csv
2018-07-11T12:50:54.450737,-0.745,-0.962,0.511,-28.11,47.134,2.805,13_6_2.csv
2018-07-11T12:50:54.516914,-1.0,-0.923,0.345,94.817,23.171,-15.183,13_6_2.csv
2018-07-11T12:50:54.561533,-1.0,-0.923,0.345,66.22,-20.183,-52.439,13_6_2.csv
2018-07-11T12:50:54.606653,-0.681,-0.766,-0.135,52.988,-28.293,-76.89,13_6_2.csv
2018-07-11T12:50:54.654781,-0.681,-0.766,-0.135,107.5,3.293,-68.537,13_6_2.csv
2018-07-11T12:50:54.700403,-0.724,-0.863,-0.541,188.781,70.488,-40.915,13_6_2.csv
2018-07-11T12:50:54.750035,-1.374,-0.49,-1.033,499.634,296.524,107.134,13_6_2.csv
2018-07-11T12:50:54.831251,-1.374,-0.49,-1.033,481.951,167.012,38.476,13_6_2.csv
2018-07-11T12:50:54.889907,-1.374,-0.49,-1.033,263.902,-94.634,-163.232,13_6_2.csv
2018-07-11T12:50:54.935529,-0.857,-0.366,-0.59,72.744,-122.805,-255.366,13_6_2.csv
2018-07-11T12:50:54.983657,-0.857,-0.366,-0.59,7.683,13.841,-186.403,13_6_2.csv
2018-07-11T12:50:55.028778,-0.707,-0.522,-0.52,116.159,113.781,-70.976,13_6_2.csv
2018-07-11T12:50:55.076907,-0.797,-0.379,-0.186,192.561,149.756,-2.622,13_6_2.csv
2018-07-11T12:50:55.135061,-0.797,-0.379,-0.186,169.512,168.781,50.061,13_6_2.csv
2018-07-11T12:50:55.191712,-0.856,-0.643,-0.076,149.573,146.402,78.232,13_6_2.csv
2018-07-11T12:50:55.235829,-0.879,-0.844,0.071,183.171,121.707,69.268,13_6_2.csv
2018-07-11T12:50:55.296491,-0.879,-0.844,0.071,194.695,139.268,44.634,13_6_2.csv
2018-07-11T12:50:55.453911,-0.877,-0.615,0.073,112.5,30.305,-48.415,13_6_2.csv
2018-07-11T12:50:55.520588,-0.964,-0.516,0.027,61.341,16.707,-52.561,13_6_2.csv
2018-07-11T12:50:55.645923,-1.16,-0.422,-0.026,6.951,-21.098,-35.488,13_6_2.csv
2018-07-11T12:50:55.706083,-1.16,-0.422,-0.026,2.439,-14.512,-30.244,13_6_2.csv
2018-07-11T12:50:55.754211,-0.942,-0.174,0.076,4.329,0.183,-35.976,13_6_2.csv
2018-07-11T12:50:55.799331,-0.849,-0.019,0.098,-19.146,-53.232,44.329,13_6_2.csv
2018-07-11T12:50:55.842948,-0.849,-0.019,0.098,-67.012,-63.049,71.951,13_6_2.csv
2018-07-11T12:50:55.913135,-0.943,-0.289,0.027,-101.585,-65.793,85.183,13_6_2.csv
2018-07-11T12:50:55.977306,-0.997,-0.507,0.137,-40.183,-28.476,127.744,13_6_2.csv
2018-07-11T12:50:56.031450,-0.997,-0.507,0.137,-14.146,7.561,144.634,13_6_2.csv
2018-07-11T12:50:56.085093,-1.005,-0.605,0.233,-6.585,31.28,117.5,13_6_2.csv
2018-07-11T12:50:56.194385,-0.982,-0.698,0.263,0.183,29.573,42.439,13_6_2.csv
2018-07-11T12:50:56.298161,-1.014,-0.774,0.013,48.049,14.085,-37.683,13_6_2.csv
2018-07-11T12:50:56.358321,-1.104,-0.862,-0.164,122.439,14.329,-32.5,13_6_2.csv
2018-07-11T12:50:56.437031,-1.104,-0.862,-0.164,170.793,21.585,-40.732,13_6_2.csv
2018-07-11T12:50:56.483657,-1.205,-0.704,-0.288,183.232,-48.537,-83.72,13_6_2.csv
2018-07-11T12:50:56.530783,-1.164,-0.582,-0.217,138.781,-51.037,-118.354,13_6_2.csv
2018-07-11T12:50:56.588943,-1.164,-0.582,-0.217,101.098,-46.402,-149.207,13_6_2.csv
2018-07-11T12:50:56.647601,-1.086,-0.569,-0.226,62.988,-37.378,-168.598,13_6_2.csv
2018-07-11T12:50:56.729820,-0.955,-0.515,-0.214,52.256,-11.22,-157.5,13_6_2.csv
2018-07-11T12:50:56.784465,-0.818,-0.39,-0.092,43.963,2.378,-141.768,13_6_2.csv
2018-07-11T12:50:56.831090,-0.818,-0.39,-0.092,34.39,27.805,-112.561,13_6_2.csv
2018-07-11T12:50:56.875709,-0.737,-0.297,0.132,27.073,49.512,-69.817,13_6_2.csv
2018-07-11T12:50:56.937373,-0.909,-0.162,0.276,28.841,116.402,58.354,13_6_2.csv
2018-07-11T12:50:56.993523,-0.909,-0.162,0.276,-12.622,107.439,115.0,13_6_2.csv
2018-07-11T12:50:57.045663,-1.165,-0.32,0.317,-43.659,87.683,181.281,13_6_2.csv
2018-07-11T12:50:57.139411,-1.356,-0.43,0.327,-113.049,44.634,174.451,13_6_2.csv
2018-07-11T12:50:57.187540,-1.161,-0.617,0.261,-158.232,25.854,150.854,13_6_2.csv
2018-07-11T12:50:57.232660,-1.161,-0.617,0.261,-119.207,17.866,119.573,13_6_2.csv
2018-07-11T12:50:57.279786,-0.959,-0.629,0.282,-59.451,5.61,83.72,13_6_2.csv
2018-07-11T12:50:57.368523,-0.854,-0.63,0.304,-52.5,-48.415,0.0,13_6_2.csv
2018-07-11T12:50:57.483328,-0.936,-0.666,0.156,-3.293,-52.561,-37.012,13_6_2.csv
2018-07-11T12:50:57.596129,-1.072,-0.878,-0.122,55.366,-1.098,-72.5,13_6_2.csv
2018-07-11T12:50:57.642252,-1.072,-0.878,-0.122,149.39,47.5,-47.256,13_6_2.csv
2018-07-11T12:50:57.701911,-1.217,-0.827,-0.144,229.695,54.573,-111.89,13_6_2.csv
2018-07-11T12:50:57.748035,-1.282,-0.55,-0.16,177.195,7.439,-145.122,13_6_2.csv
2018-07-11T12:50:57.797165,-1.282,-0.55,-0.16,85.122,-4.695,-175.671,13_6_2.csv
2018-07-11T12:50:57.846296,-1.047,-0.518,-0.117,59.817,3.537,-188.049,13_6_2.csv
2018-07-11T12:50:57.889912,-0.866,-0.393,-0.118,56.829,15.183,-164.817,13_6_2.csv
2018-07-11T12:50:57.937539,-0.866,-0.393,-0.118,44.207,19.207,-148.781,13_6_2.csv
2018-07-11T12:50:57.983662,-0.781,-0.355,0.005,38.171,27.134,-129.39,13_6_2.csv
2018-07-11T12:50:58.029283,-0.781,-0.355,0.005,46.89,36.707,-88.293,13_6_2.csv
2018-07-11T12:50:58.077412,-0.781,-0.281,0.24,84.207,51.829,-22.622,13_6_2.csv
2018-07-11T12:50:58.124538,-0.781,-0.281,0.24,79.146,70.244,24.268,13_6_2.csv
2018-07-11T12:50:58.185700,-1.043,-0.256,0.357,-34.512,85.976,140.732,13_6_2.csv
2018-07-11T12:50:58.235332,-1.174,-0.536,0.377,-54.512,80.854,174.024,13_6_2.csv
2018-07-11T12:50:58.357659,-1.149,-0.679,0.313,-86.646,30.244,149.451,13_6_2.csv
2018-07-11T12:50:58.404283,-0.92,-0.672,0.243,-113.902,12.988,118.598,13_6_2.csv
2018-07-11T12:50:58.456422,-0.776,-0.705,0.238,-87.012,-15.915,55.549,13_6_2.csv
2018-07-11T12:50:58.518588,-0.776,-0.705,0.238,-50.549,-13.049,42.744,13_6_2.csv
2018-07-11T12:50:58.564209,-0.734,-0.707,0.299,-14.024,-11.585,30.122,13_6_2.csv
2018-07-11T12:50:58.606823,-0.734,-0.707,0.299,3.171,-0.305,17.744,13_6_2.csv
2018-07-11T12:50:58.658961,-0.921,-0.717,0.261,65.244,33.963,-4.268,13_6_2.csv
2018-07-11T12:50:58.706087,-1.146,-0.688,0.071,65.427,7.317,-35.061,13_6_2.csv
2018-07-11T12:50:58.764242,-1.146,-0.688,0.071,52.744,-9.695,-53.963,13_6_2.csv
2018-07-11T12:50:58.819389,-1.129,-0.876,-0.051,139.39,27.195,-39.146,13_6_2.csv
2018-07-11T12:50:58.911134,-1.19,-0.764,-0.163,207.317,-17.561,-84.695,13_6_2.csv
2018-07-11T12:50:58.956755,-1.092,-0.484,-0.124,158.232,-52.378,-100.183,13_6_2.csv
2018-07-11T12:50:59.004382,-1.092,-0.484,-0.124,74.207,-51.341,-124.146,13_6_2.csv
2018-07-11T12:50:59.047497,-0.879,-0.462,-0.124,17.378,-39.634,-138.537,13_6_2.csv
2018-07-11T12:50:59.097631,-0.763,-0.419,-0.173,23.415,-17.988,-124.756,13_6_2.csv
2018-07-11T12:50:59.146260,-0.763,-0.419,-0.173,15.854,1.463,-109.817,13_6_2.csv
2018-07-11T12:50:59.222463,-0.84,-0.469,-0.123,21.646,55.488,-46.707,13_6_2.csv
2018-07-11T12:50:59.314208,-0.857,-0.504,0.148,87.317,125.244,9.024,13_6_2.csv
2018-07-11T12:50:59.389910,-1.047,-0.23,0.375,77.744,128.11,89.573,13_6_2.csv
2018-07-11T12:50:59.435531,-1.109,-0.292,0.507,-39.695,81.037,125.732,13_6_2.csv
2018-07-11T12:50:59.485164,-1.109,-0.292,0.507,-74.573,79.817,145.244,13_6_2.csv
2018-07-11T12:50:59.532790,-1.129,-0.581,0.386,-41.89,68.598,141.463,13_6_2.csv
2018-07-11T12:50:59.578413,-1.002,-0.533,0.195,-53.232,23.963,104.756,13_6_2.csv
2018-07-11T12:50:59.625036,-1.002,-0.533,0.195,-83.841,-5.061,55.793,13_6_2.csv
2018-07-11T12:50:59.669655,-0.862,-0.572,0.178,-55.0,-15.244,30.793,13_6_2.csv
2018-07-11T12:50:59.753880,-0.809,-0.497,0.24,0.854,-55.427,-5.549,13_6_2.csv
2018-07-11T12:50:59.811032,-0.809,-0.497,0.24,7.866,-61.951,-21.402,13_6_2.csv
2018-07-11T12:50:59.861166,-0.862,-0.543,0.267,13.354,-10.305,-15.061,13_6_2.csv
2018-07-11T12:50:59.905785,-0.983,-0.619,0.146,40.793,4.695,-12.866,13_6_2.csv
2018-07-11T12:50:59.960430,-0.983,-0.619,0.146,63.598,21.341,-22.134,13_6_2.csv
2018-07-11T12:51:00.064709,-1.118,-0.822,-0.103,223.415,56.585,-0.122,13_6_2.csv
2018-07-11T12:51:00.128383,-1.118,-0.822,-0.103,202.256,19.695,-40.427,13_6_2.csv
2018-07-11T12:51:00.174501,-1.107,-0.753,-0.248,130.244,-4.878,-82.561,13_6_2.csv
2018-07-11T12:51:00.274269,-1.019,-0.607,-0.285,79.878,-16.646,-169.146,13_6_2.csv
2018-07-11T12:51:00.327408,-0.924,-0.466,-0.258,63.72,-5.0,-168.781,13_6_2.csv
2018-07-11T12:51:00.388070,-0.883,-0.395,-0.165,45.427,41.22,-140.488,13_6_2.csv
2018-07-11T12:51:00.438204,-0.883,-0.395,-0.165,43.293,57.866,-111.342,13_6_2.csv
2018-07-11T12:51:00.487335,-0.917,-0.369,0.008,62.378,74.329,-70.244,13_6_2.csv
2018-07-11T12:51:00.534460,-0.917,-0.369,0.008,78.598,99.573,-28.293,13_6_2.csv
2018-07-11T12:51:00.624700,-1.071,-0.209,0.372,-14.024,98.78,101.098,13_6_2.csv
2018-07-11T12:51:00.683357,-1.071,-0.209,0.372,-40.671,77.805,131.524,13_6_2.csv
2018-07-11T12:51:00.732488,-1.18,-0.402,0.278,-46.098,58.902,153.232,13_6_2.csv
2018-07-11T12:51:00.788137,-1.116,-0.589,0.12,-127.561,1.829,139.695,13_6_2.csv
2018-07-11T12:51:00.827240,-1.116,-0.589,0.12,-129.146,-18.11,101.463,13_6_2.csv
2018-07-11T12:51:00.888905,-0.893,-0.691,0.144,-100.122,-29.207,75.549,13_6_2.csv
2018-07-11T12:51:00.936531,-0.893,-0.691,0.144,-70.244,-37.073,52.866,13_6_2.csv
2018-07-11T12:51:00.994195,-0.819,-0.634,0.225,-58.72,-47.561,5.061,13_6_2.csv
2018-07-11T12:51:01.044832,-0.877,-0.674,0.227,-25.244,-17.012,-3.72,13_6_2.csv
2018-07-11T12:51:01.091960,-0.877,-0.674,0.227,22.012,-10.61,-9.634,13_6_2.csv
2018-07-11T12:51:01.141595,-1.01,-0.615,0.119,38.049,-18.537,-19.207,13_6_2.csv
2018-07-11T12:51:01.189226,-1.078,-0.796,-0.079,28.476,18.11,-24.512,13_6_2.csv
2018-07-11T12:51:01.231337,-1.078,-0.796,-0.079,59.878,39.878,-21.829,13_6_2.csv
2018-07-11T12:51:01.288493,-1.067,-0.956,-0.239,157.317,54.634,-29.207,13_6_2.csv
2018-07-11T12:51:01.421350,-1.131,-0.621,-0.257,130.61,15.0,-145.732,13_6_2.csv
2018-07-11T12:51:01.472486,-1.039,-0.52,-0.245,102.134,8.902,-156.768,13_6_2.csv
2018-07-11T12:51:01.535655,-0.93,-0.454,-0.254,89.756,2.134,-143.842,13_6_2.csv
2018-07-11T12:51:01.640935,-0.876,-0.437,-0.145,87.561,44.512,-78.11,13_6_2.csv
2018-07-11T12:51:01.685053,-1.0,-0.288,-0.013,91.28,44.756,-66.707,13_6_2.csv
2018-07-11T12:51:01.750728,-1.048,-0.211,0.144,10.366,66.402,-3.476,13_6_2.csv
2018-07-11T12:51:01.801363,-1.048,-0.211,0.144,-31.951,77.805,58.963,13_6_2.csv
2018-07-11T12:51:01.840971,-1.021,-0.365,0.251,-23.171,84.268,114.085,13_6_2.csv
2018-07-11T12:51:01.890101,-1.021,-0.365,0.251,-9.512,87.317,134.817,13_6_2.csv
2018-07-11T12:51:01.940740,-1.147,-0.369,0.221,-31.89,75.183,138.11,13_6_2.csv
2018-07-11T12:51:01.985859,-1.147,-0.369,0.221,-80.0,55.976,141.707,13_6_2.csv
2018-07-11T12:51:02.037497,-1.046,-0.501,0.163,-106.646,24.512,121.098,13_6_2.csv
2018-07-11T12:51:02.098159,-0.942,-0.58,0.198,-83.415,15.122,106.646,13_6_2.csv
2018-07-11T12:51:02.140772,-0.942,-0.58,0.198,-72.744,17.5,93.11,13_6_2.csv
2018-07-11T12:51:02.188399,-0.957,-0.607,0.244,-55.0,-27.256,31.951,13_6_2.csv
2018-07-11T12:51:02.249866,-0.981,-0.608,0.279,-16.037,-57.378,6.89,13_6_2.csv
2018-07-11T12:51:02.315543,-1.081,-0.637,0.131,-21.463,-30.549,-49.39,13_6_2.csv
2018-07-11T12:51:02.373199,-1.081,-0.637,0.131,-4.268,-35.915,-53.293,13_6_2.csv
2018-07-11T12:51:02.423837,-1.114,-0.811,-0.027,16.341,-31.463,-49.024,13_6_2.csv
2018-07-11T12:51:02.466452,-1.114,-0.811,-0.027,58.78,-6.159,-52.439,13_6_2.csv
2018-07-11T12:51:02.523106,-1.207,-0.855,-0.192,169.695,5.305,-116.037,13_6_2.csv
2018-07-11T12:51:02.575749,-1.219,-0.593,-0.242,142.317,-9.817,-150.366,13_6_2.csv
2018-07-11T12:51:02.624381,-1.219,-0.593,-0.242,98.659,-12.195,-180.122,13_6_2.csv
2018-07-11T12:51:02.677024,-1.021,-0.481,-0.197,71.585,4.085,-199.695,13_6_2.csv
2018-07-11T12:51:02.737189,-0.846,-0.345,-0.123,59.512,6.402,-182.317,13_6_2.csv
2018-07-11T12:51:02.783312,-0.846,-0.345,-0.123,36.707,15.61,-153.72,13_6_2.csv
2018-07-11T12:51:02.832448,-0.68,-0.306,0.036,58.659,55.366,-57.195,13_6_2.csv
2018-07-11T12:51:02.873557,-0.842,-0.198,0.183,76.585,81.524,3.476,13_6_2.csv
2018-07-11T12:51:02.920184,-0.842,-0.198,0.183,61.037,85.732,62.073,13_6_2.csv
2018-07-11T12:51:03.003910,-1.168,-0.285,0.2,-94.939,75.122,181.585,13_6_2.csv
2018-07-11T12:51:03.045024,-1.328,-0.561,0.214,-49.512,94.695,218.293,13_6_2.csv
2018-07-11T12:51:03.091147,-1.328,-0.561,0.214,-32.927,72.805,210.793,13_6_2.csv
2018-07-11T12:51:03.139779,-1.294,-0.627,0.161,-100.0,41.22,180.793,13_6_2.csv
2018-07-11T12:51:03.186403,-1.294,-0.627,0.161,-136.342,24.268,137.378,13_6_2.csv
2018-07-11T12:51:03.231526,-0.914,-0.73,0.142,-108.476,8.049,89.573,13_6_2.csv
2018-07-11T12:51:03.285670,-0.848,-0.619,0.167,-28.963,5.305,45.0,13_6_2.csv
2018-07-11T12:51:03.395470,-0.828,-0.437,0.31,-11.707,-7.317,10.488,13_6_2.csv
2018-07-11T12:51:03.436579,-0.955,-0.661,0.243,-2.683,1.098,-5.915,13_6_2.csv
2018-07-11T12:51:03.486713,-0.955,-0.661,0.243,56.463,-7.927,-3.963,13_6_2.csv
2018-07-11T12:51:03.534342,-1.172,-0.654,0.055,76.768,-10.549,-22.5,13_6_2.csv
2018-07-11T12:51:03.581468,-1.172,-0.654,0.055,68.78,-19.573,-43.049,13_6_2.csv
2018-07-11T12:51:03.650657,-1.155,-0.784,-0.085,135.427,-1.646,-42.195,13_6_2.csv
2018-07-11T12:51:03.701295,-1.268,-0.751,-0.271,185.244,-17.561,-58.72,13_6_2.csv
2018-07-11T12:51:03.747919,-1.268,-0.751,-0.271,194.634,-45.671,-71.28,13_6_2.csv
2018-07-11T12:51:03.797051,-1.164,-0.496,-0.291,97.744,-66.098,-142.195,13_6_2.csv
2018-07-11T12:51:03.872752,-0.973,-0.424,-0.262,24.512,-72.622,-167.256,13_6_2.csv
2018-07-11T12:51:03.936424,-0.831,-0.604,-0.262,15.854,-25.976,-143.842,13_6_2.csv
2018-07-11T12:51:03.984551,-0.831,-0.604,-0.262,54.878,3.415,-120.0,13_6_2.csv
2018-07-11T12:51:04.050733,-0.83,-0.532,-0.154,33.293,60.183,-110.793,13_6_2.csv
2018-07-11T12:51:04.109894,-0.778,-0.413,0.086,22.988,103.659,-80.732,13_6_2.csv
2018-07-11T12:51:04.171057,-0.861,-0.429,0.337,97.378,188.903,37.317,13_6_2.csv
2018-07-11T12:51:04.264308,-1.218,-0.149,0.518,90.915,179.085,104.451,13_6_2.csv
2018-07-11T12:51:04.364576,-1.268,-0.284,0.414,-77.561,16.341,55.976,13_6_2.csv
2018-07-11T12:51:04.486908,-0.861,-0.493,0.187,-44.878,-37.378,30.183,13_6_2.csv
2018-07-11T12:51:04.546018,-0.861,-0.493,0.187,-29.146,-32.012,31.829,13_6_2.csv
2018-07-11T12:51:04.592141,-0.792,-0.453,0.192,-23.476,-28.963,38.11,13_6_2.csv
2018-07-11T12:51:04.639770,-0.792,-0.453,0.192,-22.317,-22.439,48.841,13_6_2.csv
2018-07-11T12:51:04.685394,-0.851,-0.547,0.124,-24.207,15.671,75.915,13_6_2.csv
2018-07-11T12:51:04.754583,-1.063,-0.951,-0.167,-25.549,61.28,88.232,13_6_2.csv
2018-07-11T12:51:04.799703,-1.063,-0.951,-0.167,35.793,69.939,94.329,13_6_2.csv
2018-07-11T12:51:04.845829,-1.023,-1.112,-0.247,272.317,84.634,9.878,13_6_2.csv
2018-07-11T12:51:04.924037,-1.162,-0.529,-0.248,184.573,-12.073,-96.829,13_6_2.csv
2018-07-11T12:51:04.987206,-1.035,-0.466,-0.174,165.061,-6.28,-95.122,13_6_2.csv
2018-07-11T12:51:05.033329,-1.035,-0.466,-0.174,138.476,-12.683,-102.439,13_6_2.csv
2018-07-11T12:51:05.085468,-0.998,-0.438,-0.227,73.049,-52.622,-113.902,13_6_2.csv
2018-07-11T12:51:05.141617,-0.931,-0.445,-0.236,44.878,-54.756,-110.976,13_6_2.csv
2018-07-11T12:51:05.204285,-0.816,-0.422,-0.189,26.89,11.585,-82.805,13_6_2.csv
2018-07-11T12:51:05.253917,-0.816,-0.422,-0.189,37.927,32.439,-57.683,13_6_2.csv
2018-07-11T12:51:05.316584,-0.888,-0.29,-0.083,31.037,19.756,-39.268,13_6_2.csv
2018-07-11T12:51:05.357693,-0.888,-0.29,-0.083,9.451,19.024,-12.256,13_6_2.csv
2018-07-11T12:51:05.405822,-1.009,-0.302,0.139,-9.939,58.902,88.78,13_6_2.csv
2018-07-11T12:51:05.503582,-1.041,-0.398,0.255,3.11,89.207,149.146,13_6_2.csv
2018-07-11T12:51:05.585801,-1.167,-0.374,0.216,-22.683,34.634,116.463,13_6_2.csv
2018-07-11T12:51:05.732198,-0.858,-0.579,0.168,-43.902,-28.476,34.207,13_6_2.csv
2018-07-11T12:51:05.779324,-0.826,-0.573,0.213,-3.659,-11.951,36.341,13_6_2.csv
2018-07-11T12:51:05.826451,-0.826,-0.573,0.213,19.512,-3.232,31.22,13_6_2.csv
2018-07-11T12:51:05.873580,-0.956,-0.602,0.155,31.22,-0.61,22.256,13_6_2.csv
2018-07-11T12:51:05.925220,-0.956,-0.602,0.155,44.512,-3.049,14.146,13_6_2.csv
2018-07-11T12:51:05.992903,-1.153,-0.713,-0.049,48.902,-9.268,-12.683,13_6_2.csv
2018-07-11T12:51:06.053067,-1.102,-0.815,-0.18,150.854,44.268,-49.268,13_6_2.csv
2018-07-11T12:51:06.127769,-1.192,-0.617,-0.311,186.281,-7.683,-105.61,13_6_2.csv
2018-07-11T12:51:06.173393,-1.11,-0.458,-0.24,137.988,-19.634,-129.878,13_6_2.csv
2018-07-11T12:51:06.233558,-1.11,-0.458,-0.24,90.976,-17.073,-149.024,13_6_2.csv
2018-07-11T12:51:06.278678,-0.923,-0.471,-0.155,64.329,-14.878,-158.232,13_6_2.csv
2018-07-11T12:51:06.344860,-0.818,-0.419,-0.055,70.671,-0.854,-132.622,13_6_2.csv
2018-07-11T12:51:06.423573,-0.836,-0.321,0.117,88.415,24.817,-77.866,13_6_2.csv
2018-07-11T12:51:06.466190,-0.836,-0.321,0.117,80.488,39.939,-36.341,13_6_2.csv
2018-07-11T12:51:06.534376,-0.984,-0.166,0.146,12.134,52.622,12.5,13_6_2.csv
2018-07-11T12:51:06.625121,-1.045,-0.277,0.164,-64.756,73.902,113.902,13_6_2.csv
2018-07-11T12:51:06.674753,-1.11,-0.382,0.087,-53.293,63.293,149.756,13_6_2.csv
2018-07-11T12:51:06.718369,-1.11,-0.382,0.087,-71.159,27.622,151.159,13_6_2.csv
2018-07-11T12:51:06.827160,-0.978,-0.552,0.167,-109.268,25.061,117.317,13_6_2.csv
2018-07-11T12:51:06.873784,-0.978,-0.552,0.167,-89.512,12.439,84.329,13_6_2.csv
2018-07-11T12:51:06.928104,-0.908,-0.567,0.232,-83.72,1.89,60.427,13_6_2.csv
2018-07-11T12:51:06.983251,-0.878,-0.692,0.27,-64.451,-10.244,20.793,13_6_2.csv
2018-07-11T12:51:07.047427,-0.878,-0.692,0.27,-9.878,0.122,26.402,13_6_2.csv
2018-07-11T12:51:07.153712,-1.33,-0.808,-0.139,43.537,-29.512,-37.5,13_6_2.csv
2018-07-11T12:51:07.216882,-1.158,-0.763,-0.189,115.61,-25.366,-82.256,13_6_2.csv
2018-07-11T12:51:07.265013,-1.158,-0.763,-0.189,155.61,-4.085,-134.939,13_6_2.csv
2018-07-11T12:51:07.311138,-1.215,-0.538,-0.23,162.195,-20.976,-167.378,13_6_2.csv
2018-07-11T12:51:07.359268,-1.215,-0.538,-0.23,147.378,-38.598,-162.927,13_6_2.csv
2018-07-11T12:51:07.412412,-1.035,-0.507,-0.163,108.354,-25.732,-152.134,13_6_2.csv
2018-07-11T12:51:07.471572,-0.862,-0.44,-0.124,60.976,-9.451,-156.402,13_6_2.csv
2018-07-11T12:51:07.517697,-0.862,-0.44,-0.124,48.841,-6.037,-150.549,13_6_2.csv
2018-07-11T12:51:07.564824,-0.707,-0.266,-0.052,-50.671,11.159,-151.098,13_6_2.csv
2018-07-11T12:51:07.626655,-0.672,-0.517,0.017,-118.781,56.402,-77.683,13_6_2.csv
2018-07-11T12:51:07.671775,-0.672,-0.517,0.017,-46.341,60.061,0.549,13_6_2.csv
2018-07-11T12:51:07.740965,-0.889,-0.565,0.115,99.512,67.622,140.976,13_6_2.csv
2018-07-11T12:51:07.799123,-1.043,-0.508,0.213,175.793,65.061,223.11,13_6_2.csv
2018-07-11T12:51:07.845247,-1.043,-0.508,0.213,227.134,116.89,264.817,13_6_2.csv
2018-07-11T12:51:07.907418,-1.204,-0.223,0.246,44.756,180.183,168.537,13_6_2.csv
2018-07-11T12:51:07.956548,-1.294,-0.337,0.126,-36.829,88.049,108.963,13_6_2.csv
2018-07-11T12:51:07.997662,-1.294,-0.337,0.126,-103.171,18.841,55.671,13_6_2.csv
2018-07-11T12:51:08.054814,-0.941,-0.52,0.124,-168.293,-18.841,4.329,13_6_2.csv
2018-07-11T12:51:08.123000,-0.792,-0.682,0.163,-110.183,-34.451,-12.988,13_6_2.csv
2018-07-11T12:51:08.173134,-0.792,-0.682,0.163,-6.951,-23.537,8.415,13_6_2.csv
2018-07-11T12:51:08.222267,-0.917,-0.458,0.253,93.171,9.756,14.451,13_6_2.csv
2018-07-11T12:51:08.265382,-1.058,-0.343,0.235,39.329,1.037,-4.512,13_6_2.csv
2018-07-11T12:51:08.314011,-1.058,-0.343,0.235,20.427,-29.451,-15.0,13_6_2.csv
2018-07-11T12:51:08.386587,-0.983,-0.628,-0.019,58.049,-55.732,-13.841,13_6_2.csv
2018-07-11T12:51:08.496886,-1.081,-0.954,-0.011,273.171,76.28,32.988,13_6_2.csv
2018-07-11T12:51:08.549029,-1.344,-0.691,-0.111,222.195,-28.415,-83.11,13_6_2.csv
2018-07-11T12:51:08.594150,-1.165,-0.503,-0.064,184.207,-68.171,-100.793,13_6_2.csv
2018-07-11T12:51:08.659328,-1.165,-0.503,-0.064,136.159,-76.098,-131.768,13_6_2.csv
2018-07-11T12:51:08.702442,-1.016,-0.468,-0.076,77.622,-106.646,-155.122,13_6_2.csv
2018-07-11T12:51:08.760603,-0.848,-0.411,-0.013,50.244,-99.512,-152.134,13_6_2.csv
2018-07-11T12:51:08.811739,-0.848,-0.411,-0.013,23.598,-90.427,-147.5,13_6_2.csv
2018-07-11T12:51:08.855862,-0.693,-0.348,0.149,13.72,-53.049,-122.805,13_6_2.csv
2018-07-11T12:51:08.904993,-0.787,-0.323,0.286,-3.598,60.61,-40.915,13_6_2.csv
2018-07-11T12:51:08.949116,-0.787,-0.323,0.286,8.841,109.756,-5.0,13_6_2.csv
2018-07-11T12:51:08.999250,-1.002,-0.288,0.351,-7.988,111.646,33.049,13_6_2.csv
2018-07-11T12:51:09.053399,-1.002,-0.288,0.351,-30.244,96.22,88.11,13_6_2.csv
2018-07-11T12:51:09.107543,-1.026,-0.403,0.4,-19.878,87.439,119.085,13_6_2.csv
2018-07-11T12:51:09.159684,-1.168,-0.433,0.396,-17.683,74.451,122.195,13_6_2.csv
2018-07-11T12:51:09.208314,-1.168,-0.433,0.396,-60.915,48.902,114.756,13_6_2.csv
2018-07-11T12:51:09.251930,-0.971,-0.547,0.349,-85.61,25.915,94.817,13_6_2.csv
2018-07-11T12:51:09.300061,-0.971,-0.547,0.349,-53.841,12.134,80.061,13_6_2.csv
2018-07-11T12:51:09.458486,-0.833,-0.628,0.394,2.805,-12.805,25.854,13_6_2.csv
2018-07-11T12:51:09.513131,-0.916,-0.651,0.333,37.439,-26.646,-22.927,13_6_2.csv
2018-07-11T12:51:09.561259,-1.018,-0.634,0.138,18.11,-36.951,-46.951,13_6_2.csv
2018-07-11T12:51:09.608888,-1.018,-0.634,0.138,-0.305,-35.732,-57.012,13_6_2.csv
2018-07-11T12:51:09.700137,-1.028,-0.887,-0.067,81.463,14.573,-39.817,13_6_2.csv
2018-07-11T12:51:09.824470,-1.269,-0.634,-0.199,159.756,13.902,-140.0,13_6_2.csv
2018-07-11T12:51:09.880118,-1.074,-0.524,-0.127,69.024,9.817,-177.5,13_6_2.csv
2018-07-11T12:51:09.936268,-1.074,-0.524,-0.127,50.366,15.061,-183.171,13_6_2.csv
2018-07-11T12:51:09.982391,-0.896,-0.429,-0.056,32.683,22.317,-175.915,13_6_2.csv
2018-07-11T12:51:10.031020,-0.788,-0.388,0.125,45.976,54.268,-124.634,13_6_2.csv
2018-07-11T12:51:10.076141,-0.788,-0.388,0.125,70.915,77.866,-79.512,13_6_2.csv
2018-07-11T12:51:10.124771,-0.868,-0.319,0.273,86.829,82.988,-33.476,13_6_2.csv
2018-07-11T12:51:10.183429,-0.868,-0.319,0.273,91.829,84.329,1.829,13_6_2.csv
2018-07-11T12:51:10.233565,-1.029,-0.192,0.336,-6.159,88.049,99.207,13_6_2.csv
2018-07-11T12:51:10.282195,-1.059,-0.396,0.31,-39.085,94.573,138.598,13_6_2.csv
2018-07-11T12:51:10.332328,-1.059,-0.396,0.31,-15.488,90.61,161.646,13_6_2.csv
2018-07-11T12:51:10.387979,-1.194,-0.445,0.264,-23.232,75.915,168.293,13_6_2.csv
2018-07-11T12:51:10.439115,-1.088,-0.616,0.155,-159.573,8.659,146.646,13_6_2.csv
2018-07-11T12:51:10.494265,-1.088,-0.616,0.155,-171.403,-8.598,108.476,13_6_2.csv
2018-07-11T12:51:10.639151,-0.842,-0.573,0.285,-45.732,-12.927,8.598,13_6_2.csv
2018-07-11T12:51:10.685775,-0.912,-0.623,0.33,-20.366,-6.402,4.207,13_6_2.csv
2018-07-11T12:51:10.733402,-0.912,-0.623,0.33,23.171,9.451,-2.012,13_6_2.csv
2018-07-11T12:51:10.779525,-1.099,-0.58,0.244,57.744,1.037,-12.317,13_6_2.csv
2018-07-11T12:51:10.825147,-1.099,-0.58,0.244,34.451,-14.695,-34.695,13_6_2.csv
2018-07-11T12:51:10.893830,-1.09,-0.713,0.07,54.024,0.61,-45.976,13_6_2.csv
2018-07-11T12:51:10.939953,-1.065,-0.813,-0.061,128.963,33.841,-38.354,13_6_2.csv
2018-07-11T12:51:10.984571,-1.065,-0.813,-0.061,173.842,45.244,-59.024,13_6_2.csv
2018-07-11T12:51:11.036209,-1.235,-0.563,-0.19,127.805,-40.122,-108.963,13_6_2.csv
2018-07-11T12:51:11.081329,-1.034,-0.414,-0.148,77.317,-49.146,-125.244,13_6_2.csv
2018-07-11T12:51:11.180093,-0.845,-0.354,-0.089,16.22,-34.939,-150.915,13_6_2.csv
2018-07-11T12:51:11.240255,-0.729,-0.287,-0.015,1.951,-7.073,-112.744,13_6_2.csv
2018-07-11T12:51:11.296410,-0.729,-0.287,-0.015,5.488,12.073,-77.744,13_6_2.csv
2018-07-11T12:51:11.341530,-0.77,-0.271,0.118,25.061,29.695,-31.341,13_6_2.csv
2018-07-11T12:51:11.429768,-1.114,-0.206,0.145,41.341,65.793,76.28,13_6_2.csv
2018-07-11T12:51:11.483913,-1.255,-0.536,0.238,-66.89,61.159,176.768,13_6_2.csv
2018-07-11T12:51:11.533043,-1.255,-0.536,0.238,-5.305,105.122,195.793,13_6_2.csv
2018-07-11T12:51:11.584180,-1.204,-0.52,0.271,44.024,104.39,168.415,13_6_2.csv
2018-07-11T12:51:11.640830,-1.085,-0.546,0.184,-120.488,-1.768,77.195,13_6_2.csv
2018-07-11T12:51:11.690964,-1.085,-0.546,0.184,-167.988,-24.085,25.305,13_6_2.csv
2018-07-11T12:51:11.738090,-0.79,-0.61,0.159,-157.439,-31.707,-18.902,13_6_2.csv
2018-07-11T12:51:11.784212,-0.79,-0.61,0.159,-110.244,-25.305,-28.841,13_6_2.csv
2018-07-11T12:51:11.832340,-0.751,-0.529,0.227,-58.963,-16.707,-22.927,13_6_2.csv
2018-07-11T12:51:11.899520,-0.86,-0.545,0.243,7.195,9.39,-5.244,13_6_2.csv
2018-07-11T12:51:11.970710,-0.979,-0.549,0.158,62.683,13.293,-8.963,13_6_2.csv
2018-07-11T12:51:12.016833,-0.979,-0.549,0.158,58.354,4.085,-25.61,13_6_2.csv
2018-07-11T12:51:12.063457,-1.174,-0.596,0.02,50.061,-8.598,-41.829,13_6_2.csv
2018-07-11T12:51:12.123617,-0.967,-0.619,0.039,85.366,3.171,-32.439,13_6_2.csv
2018-07-11T12:51:12.172748,-0.967,-0.619,0.039,105.427,16.89,-56.829,13_6_2.csv
2018-07-11T12:51:12.226391,-0.885,-0.514,0.018,103.476,16.768,-83.415,13_6_2.csv
2018-07-11T12:51:12.279534,-0.885,-0.514,0.018,96.646,9.207,-85.976,13_6_2.csv
2018-07-11T12:51:12.325658,-1.009,-0.586,-0.035,87.073,-8.232,-58.841,13_6_2.csv
2018-07-11T12:51:12.469543,-0.813,-0.647,-0.104,-16.037,-19.695,-98.72,13_6_2.csv
2018-07-11T12:51:12.592872,-0.771,-0.58,-0.001,7.927,61.22,-70.366,13_6_2.csv
2018-07-11T12:51:12.653533,-0.681,-0.556,0.271,7.744,86.341,-37.195,13_6_2.csv
2018-07-11T12:51:12.715699,-0.668,-0.579,0.502,17.744,86.159,-13.598,13_6_2.csv
2018-07-11T12:51:12.767337,-0.734,-0.598,0.479,19.878,52.256,57.012,13_6_2.csv
2018-07-11T12:51:12.813460,-0.734,-0.598,0.479,-1.22,28.659,80.0,13_6_2.csv
2018-07-11T12:51:12.859081,-0.831,-0.621,0.271,-16.707,26.707,80.854,13_6_2.csv
2018-07-11T12:51:12.904202,-0.831,-0.621,0.271,-32.805,40.793,80.793,13_6_2.csv
2018-07-11T12:51:12.956842,-1.201,-0.678,0.069,-33.537,13.72,112.5,13_6_2.csv
2018-07-11T12:51:13.012991,-1.079,-0.774,0.19,8.476,-2.805,197.622,13_6_2.csv
2018-07-11T12:51:13.066133,-1.079,-0.774,0.19,58.476,39.451,182.256,13_6_2.csv
2018-07-11T12:51:13.123787,-0.938,-0.623,0.204,33.537,-0.061,62.561,13_6_2.csv
2018-07-11T12:51:13.171414,-0.964,-0.518,0.139,-56.829,-34.39,9.634,13_6_2.csv
2018-07-11T12:51:13.216033,-0.964,-0.518,0.139,-108.171,-47.012,-35.061,13_6_2.csv
2018-07-11T12:51:13.264662,-0.833,-0.549,0.07,-86.037,-46.098,-68.415,13_6_2.csv
2018-07-11T12:51:13.327329,-0.854,-0.441,0.085,-14.268,-45.122,-78.537,13_6_2.csv
2018-07-11T12:51:13.388492,-0.854,-0.441,0.085,-3.598,-34.329,-71.098,13_6_2.csv
2018-07-11T12:51:13.444642,-0.844,-0.413,0.183,26.524,-10.366,-52.5,13_6_2.csv
2018-07-11T12:51:13.504301,-0.887,-0.342,0.27,81.22,15.671,-15.366,13_6_2.csv
2018-07-11T12:51:13.565464,-0.887,-0.342,0.27,86.585,11.768,2.927,13_6_2.csv
2018-07-11T12:51:13.607075,-0.919,-0.394,0.353,35.305,-6.951,18.659,13_6_2.csv
2018-07-11T12:51:13.669813,-0.805,-0.686,0.191,-12.866,-29.939,8.11,13_6_2.csv
2018-07-11T12:51:13.722435,-0.805,-0.686,0.191,-53.476,-36.098,-5.549,13_6_2.csv
2018-07-11T12:51:13.779088,-0.668,-1.268,-0.114,63.72,92.744,14.39,13_6_2.csv
2018-07-11T12:51:13.828221,-0.938,-1.064,-0.394,262.927,158.171,25.854,13_6_2.csv
2018-07-11T12:51:13.912447,-1.127,-0.531,-0.293,278.842,97.195,-32.012,13_6_2.csv
2018-07-11T12:51:13.952558,-1.127,-0.531,-0.293,179.878,50.427,-76.402,13_6_2.csv
2018-07-11T12:51:14.016230,-1.083,-0.596,-0.296,95.305,-5.061,-127.866,13_6_2.csv
2018-07-11T12:51:14.061853,-1.067,-0.688,-0.328,72.012,-13.841,-139.024,13_6_2.csv
2018-07-11T12:51:14.118004,-1.067,-0.688,-0.328,55.244,-18.72,-149.39,13_6_2.csv
2018-07-11T12:51:14.174156,-1.118,-0.838,-0.078,175.61,50.488,-154.573,13_6_2.csv
2018-07-11T12:51:14.219780,-0.948,-0.322,0.206,182.927,29.573,-164.451,13_6_2.csv
2018-07-11T12:51:14.266406,-0.948,-0.322,0.206,129.573,46.829,-157.378,13_6_2.csv
2018-07-11T12:51:14.319048,-0.706,0.016,0.36,56.402,72.073,-124.695,13_6_2.csv
2018-07-11T12:51:14.429849,-0.734,-0.242,0.3,-24.146,74.878,104.634,13_6_2.csv
2018-07-11T12:51:14.485497,-0.89,-0.207,0.231,-23.354,91.402,130.122,13_6_2.csv
2018-07-11T12:51:14.530115,-0.89,-0.207,0.231,-96.585,67.744,130.305,13_6_2.csv
2018-07-11T12:51:14.578745,-1.258,-0.402,0.018,-219.451,-17.256,177.866,13_6_2.csv
2018-07-11T12:51:14.645425,-1.27,-0.852,0.015,-184.146,-17.134,199.817,13_6_2.csv
2018-07-11T12:51:14.701577,-1.085,-0.732,0.146,15.61,56.524,153.842,13_6_2.csv
2018-07-11T12:51:14.748702,-1.085,-0.732,0.146,34.329,84.817,88.232,13_6_2.csv
2018-07-11T12:51:14.817887,-1.027,-0.478,0.213,-35.305,25.305,-4.939,13_6_2.csv
2018-07-11T12:51:14.874537,-0.932,-0.527,0.254,-24.268,-3.293,-9.695,13_6_2.csv
2018-07-11T12:51:14.925173,-0.932,-0.527,0.254,5.61,-19.451,-12.439,13_6_2.csv
2018-07-11T12:51:14.974805,-0.964,-0.537,0.211,41.707,-27.622,-13.963,13_6_2.csv
2018-07-11T12:51:15.019925,-1.034,-0.588,0.038,60.549,-17.622,-17.866,13_6_2.csv
2018-07-11T12:51:15.082595,-1.034,-0.588,0.038,64.939,-20.122,-23.11,13_6_2.csv
2018-07-11T12:51:15.153788,-1.152,-0.848,-0.095,125.061,-11.098,0.793,13_6_2.csv
2018-07-11T12:51:15.208433,-1.225,-0.743,-0.292,179.146,-11.829,-36.951,13_6_2.csv
2018-07-11T12:51:15.318226,-1.139,-0.501,-0.261,43.963,-68.293,-165.061,13_6_2.csv
2018-07-11T12:51:15.359837,-0.989,-0.57,-0.246,16.585,-42.927,-175.915,13_6_2.csv
2018-07-11T12:51:15.404455,-0.989,-0.57,-0.246,36.646,-24.512,-171.342,13_6_2.csv
2018-07-11T12:51:15.470313,-0.879,-0.494,-0.242,13.963,4.817,-150.427,13_6_2.csv
2018-07-11T12:51:15.529470,-0.737,-0.463,-0.106,8.049,33.659,-128.842,13_6_2.csv
2018-07-11T12:51:15.584617,-0.726,-0.462,0.141,44.085,98.232,-53.659,13_6_2.csv
2018-07-11T12:51:15.643274,-0.726,-0.462,0.141,90.671,130.183,-7.195,13_6_2.csv
2018-07-11T12:51:15.690901,-0.938,-0.128,0.295,170.671,174.695,38.78,13_6_2.csv
2018-07-11T12:51:15.740034,-1.271,-0.069,0.329,-35.061,127.866,118.232,13_6_2.csv
2018-07-11T12:51:15.793175,-1.271,-0.069,0.329,-103.415,84.634,155.793,13_6_2.csv
2018-07-11T12:51:15.849330,-1.311,-0.533,0.29,-97.134,68.902,190.244,13_6_2.csv
2018-07-11T12:51:15.907488,-1.25,-0.563,0.097,-87.378,40.549,156.402,13_6_2.csv
2018-07-11T12:51:15.954616,-1.25,-0.563,0.097,-133.354,1.402,91.585,13_6_2.csv
2018-07-11T12:51:16.003750,-0.94,-0.556,0.038,-152.5,-33.902,16.341,13_6_2.csv
2018-07-11T12:51:16.044862,-0.94,-0.556,0.038,-139.329,-42.744,-25.976,13_6_2.csv
2018-07-11T12:51:16.091988,-0.779,-0.552,0.119,-117.256,-47.439,-34.817,13_6_2.csv
2018-07-11T12:51:16.157665,-0.792,-0.501,0.21,-44.146,-29.695,-20.122,13_6_2.csv
2018-07-11T12:51:16.216321,-0.792,-0.501,0.21,-26.463,-16.037,-17.439,13_6_2.csv
2018-07-11T12:51:16.268961,-0.94,-0.546,0.212,35.915,4.207,4.146,13_6_2.csv
2018-07-11T12:51:16.319095,-1.02,-0.55,0.041,37.5,-2.378,3.537,13_6_2.csv
2018-07-11T12:51:16.373741,-1.02,-0.55,0.041,15.0,-8.659,-4.573,13_6_2.csv
2018-07-11T12:51:16.420365,-1.1,-0.92,-0.13,9.207,-16.28,-4.024,13_6_2.csv
2018-07-11T12:51:16.471002,-1.119,-0.824,-0.2,206.89,63.476,-19.085,13_6_2.csv
2018-07-11T12:51:16.519131,-1.119,-0.824,-0.2,234.512,53.11,-105.488,13_6_2.csv
2018-07-11T12:51:16.633441,-0.979,-0.44,-0.072,72.439,-1.89,-166.159,13_6_2.csv
2018-07-11T12:51:16.687590,-0.979,-0.44,-0.072,52.195,1.89,-165.915,13_6_2.csv
2018-07-11T12:51:16.731708,-0.811,-0.383,-0.063,45.793,-4.39,-154.268,13_6_2.csv
2018-07-11T12:51:16.799894,-0.668,-0.313,0.05,18.171,12.195,-100.427,13_6_2.csv
2018-07-11T12:51:16.844014,-0.668,-0.313,0.05,21.22,27.622,-57.805,13_6_2.csv
2018-07-11T12:51:16.889136,-0.697,-0.288,0.146,31.22,43.232,-7.744,13_6_2.csv
2018-07-11T12:51:16.949801,-1.134,-0.318,0.143,24.939,62.195,105.549,13_6_2.csv
2018-07-11T12:51:17.004449,-1.134,-0.318,0.143,-11.768,63.659,161.829,13_6_2.csv
2018-07-11T12:51:17.046563,-1.36,-0.536,0.208,-32.378,79.268,211.707,13_6_2.csv
2018-07-11T12:51:17.100709,-1.36,-0.536,0.208,-30.976,107.256,225.61,13_6_2.csv
2018-07-11T12:51:17.139816,-1.214,-0.522,0.121,-26.89,110.915,180.183,13_6_2.csv
2018-07-11T12:51:17.190952,-1.047,-0.446,0.044,-94.878,-26.098,42.134,13_6_2.csv
2018-07-11T12:51:17.294228,-0.806,-0.515,0.079,-162.683,-65.732,-41.22,13_6_2.csv
2018-07-11T12:51:17.357395,-0.769,-0.509,0.155,-83.354,-46.098,-13.72,13_6_2.csv
2018-07-11T12:51:17.424073,-0.769,-0.509,0.155,-55.854,-33.11,1.951,13_6_2.csv
2018-07-11T12:51:17.610069,-0.95,-0.485,0.14,26.463,-15.976,6.22,13_6_2.csv
2018-07-11T12:51:17.655189,-0.95,-0.485,0.14,8.415,-29.634,-2.561,13_6_2.csv
2018-07-11T12:51:17.704821,-1.049,-0.968,-0.008,21.402,-42.805,-5.671,13_6_2.csv
2018-07-11T12:51:17.925409,-1.007,-0.539,-0.208,60.549,-15.732,-153.11,13_6_2.csv
2018-07-11T12:51:18.006125,-0.987,-0.565,-0.261,67.317,-18.049,-150.671,13_6_2.csv
2018-07-11T12:51:18.052749,-0.987,-0.565,-0.261,51.707,-67.195,-188.171,13_6_2.csv
2018-07-11T12:51:18.131960,-0.751,-0.609,0.0,1.585,-20.488,-122.683,13_6_2.csv
2018-07-11T12:51:18.187608,-0.551,-0.55,0.225,0.854,60.732,-97.622,13_6_2.csv
2018-07-11T12:51:18.242254,-0.687,-0.442,0.301,77.317,149.634,-16.28,13_6_2.csv
2018-07-11T12:51:18.299406,-0.687,-0.442,0.301,87.378,181.463,41.829,13_6_2.csv
2018-07-11T12:51:18.347033,-1.157,-0.332,0.247,92.073,201.707,86.463,13_6_2.csv
2018-07-11T12:51:18.398671,-1.172,-0.297,0.445,7.927,43.415,109.756,13_6_2.csv
2018-07-11T12:51:18.457828,-1.172,-0.297,0.445,-93.537,47.012,128.293,13_6_2.csv
2018-07-11T12:51:18.500943,-1.043,-0.59,0.393,-102.683,52.622,145.793,13_6_2.csv
2018-07-11T12:51:18.574640,-1.032,-0.593,0.248,-52.012,21.28,133.11,13_6_2.csv
2018-07-11T12:51:18.689947,-0.881,-0.597,0.185,-61.341,-13.78,22.622,13_6_2.csv
2018-07-11T12:51:18.736571,-0.86,-0.592,0.223,-27.317,-9.451,15.305,13_6_2.csv
2018-07-11T12:51:18.783195,-0.86,-0.592,0.223,2.378,-6.341,10.915,13_6_2.csv
2018-07-11T12:51:18.834332,-0.881,-0.58,0.291,57.012,6.707,-3.415,13_6_2.csv
2018-07-11T12:51:18.889479,-0.947,-0.508,0.202,73.476,0.488,-13.902,13_6_2.csv
2018-07-11T12:51:19.047399,-0.896,-0.937,0.041,23.11,-132.256,-124.451,13_6_2.csv
2018-07-11T12:51:19.123603,-0.848,-0.947,-0.014,57.805,61.829,-124.756,13_6_2.csv
2018-07-11T12:51:19.171731,-0.848,-0.947,-0.014,167.134,105.732,-129.817,13_6_2.csv
2018-07-11T12:51:19.218857,-1.066,-0.846,-0.094,191.159,115.244,-105.732,13_6_2.csv
2018-07-11T12:51:19.264480,-1.066,-0.846,-0.094,132.012,100.854,-101.524,13_6_2.csv
2018-07-11T12:51:19.369764,-0.947,-0.468,-0.05,49.024,-49.695,-172.683,13_6_2.csv
2018-07-11T12:51:19.428921,-0.947,-0.468,-0.05,-17.927,-42.5,-190.427,13_6_2.csv
2018-07-11T12:51:19.484068,-0.55,-0.407,0.04,4.085,72.805,-129.573,13_6_2.csv
2018-07-11T12:51:19.545732,-0.606,-0.317,-0.028,6.585,109.634,-77.744,13_6_2.csv
2018-07-11T12:51:19.591855,-0.606,-0.317,-0.028,7.927,126.707,-11.098,13_6_2.csv
2018-07-11T12:51:19.654021,-0.936,-0.469,0.253,156.585,281.037,119.024,13_6_2.csv
2018-07-11T12:51:19.706664,-1.409,0.012,0.539,285.732,316.281,162.073,13_6_2.csv
2018-07-11T12:51:19.765821,-1.531,-0.07,0.418,-175.427,124.634,144.939,13_6_2.csv
2018-07-11T12:51:19.819968,-1.531,-0.07,0.418,-278.232,40.427,110.061,13_6_2.csv
2018-07-11T12:51:19.872107,-1.234,-0.749,0.114,-159.756,-10.183,116.281,13_6_2.csv
2018-07-11T12:51:19.922742,-0.927,-0.458,0.141,-59.939,-29.329,60.244,13_6_2.csv
2018-07-11T12:51:19.967862,-0.927,-0.458,0.141,-92.073,-29.146,24.573,13_6_2.csv
2018-07-11T12:51:20.014988,-0.854,-0.446,0.154,-110.671,-49.146,8.049,13_6_2.csv
2018-07-11T12:51:20.069635,-0.854,-0.446,0.154,-105.0,-67.683,-3.476,13_6_2.csv
2018-07-11T12:51:20.123782,-0.775,-0.542,0.223,-32.561,-40.854,-9.39,13_6_2.csv
2018-07-11T12:51:20.173414,-0.866,-0.528,0.245,12.256,-28.232,-11.89,13_6_2.csv
2018-07-11T12:51:20.223548,-0.866,-0.528,0.245,36.707,-22.195,-13.72,13_6_2.csv
2018-07-11T12:51:20.269169,-0.958,-0.516,0.099,28.902,-23.72,-20.793,13_6_2.csv
2018-07-11T12:51:20.316295,-0.958,-0.516,0.099,19.39,-17.561,-27.805,13_6_2.csv
2018-07-11T12:51:20.364423,-0.989,-0.742,-0.047,48.476,22.073,-9.512,13_6_2.csv
2018-07-11T12:51:20.435613,-1.102,-0.88,-0.199,114.573,44.146,-27.195,13_6_2.csv
2018-07-11T12:51:20.482237,-1.285,-0.583,-0.245,153.232,19.695,-131.768,13_6_2.csv
2018-07-11T12:51:20.530867,-1.285,-0.583,-0.245,81.829,7.317,-178.842,13_6_2.csv
2018-07-11T12:51:20.576489,-1.121,-0.557,-0.149,48.72,32.073,-200.061,13_6_2.csv
2018-07-11T12:51:20.622611,-1.121,-0.557,-0.149,55.854,58.415,-197.378,13_6_2.csv
2018-07-11T12:51:20.724884,-0.834,-0.391,0.159,61.341,84.451,-129.085,13_6_2.csv
2018-07-11T12:51:20.785044,-0.834,-0.391,0.159,72.561,93.963,-92.683,13_6_2.csv
2018-07-11T12:51:20.830164,-0.767,-0.267,0.279,83.72,88.171,-43.232,13_6_2.csv
2018-07-11T12:51:20.874783,-0.767,-0.267,0.279,72.805,67.073,3.476,13_6_2.csv
2018-07-11T12:51:20.923917,-0.892,-0.189,0.225,41.524,54.512,45.122,13_6_2.csv
2018-07-11T12:51:20.968034,-1.217,-0.403,0.102,-29.207,46.585,148.72,13_6_2.csv
2018-07-11T12:51:21.038725,-1.217,-0.403,0.102,-38.049,55.732,201.403,13_6_2.csv
2018-07-11T12:51:21.139995,-1.247,-0.509,-0.022,-83.902,40.0,157.622,13_6_2.csv
2018-07-11T12:51:21.218705,-0.97,-0.576,-0.026,-194.024,-39.39,28.72,13_6_2.csv
2018-07-11T12:51:21.273852,-0.97,-0.576,-0.026,-190.0,-38.232,-14.268,13_6_2.csv
2018-07-11T12:51:21.326993,-0.777,-0.561,0.084,-102.317,-29.024,-24.939,13_6_2.csv
2018-07-11T12:51:21.373116,-0.776,-0.511,0.188,-77.927,-30.061,-14.756,13_6_2.csv
2018-07-11T12:51:21.429266,-0.776,-0.511,0.188,-57.622,-20.549,-10.488,13_6_2.csv
2018-07-11T12:51:21.485416,-0.872,-0.568,0.279,-15.122,2.195,-9.207,13_6_2.csv
2018-07-11T12:51:21.532040,-1.058,-0.44,0.25,63.78,14.451,-7.622,13_6_2.csv
2018-07-11T12:51:21.577661,-1.058,-0.44,0.25,33.049,-8.963,-21.707,13_6_2.csv
2018-07-11T12:51:21.638824,-1.091,-0.52,0.079,-12.195,-29.512,-39.268,13_6_2.csv
2018-07-11T12:51:21.687955,-1.001,-0.823,-0.012,38.415,-7.195,-5.122,13_6_2.csv
2018-07-11T12:51:21.737089,-1.001,-0.823,-0.012,110.61,25.305,0.793,13_6_2.csv
2018-07-11T12:51:21.788227,-1.027,-0.674,-0.114,166.281,39.878,-39.146,13_6_2.csv
2018-07-11T12:51:21.829338,-1.027,-0.674,-0.114,176.951,15.671,-80.122,13_6_2.csv
2018-07-11T12:51:21.891004,-1.112,-0.483,-0.131,84.146,-20.976,-101.646,13_6_2.csv
2018-07-11T12:51:21.935624,-0.947,-0.504,-0.111,45.915,-14.207,-115.244,13_6_2.csv
2018-07-11T12:51:21.980745,-0.947,-0.504,-0.111,25.915,-13.537,-125.244,13_6_2.csv
2018-07-11T12:51:22.088539,-0.859,-0.494,-0.123,23.963,-3.232,-116.098,13_6_2.csv
2018-07-11T12:51:22.138173,-0.673,-0.467,0.055,-6.951,56.402,-79.39,13_6_2.csv
2018-07-11T12:51:22.190816,-0.645,-0.438,0.238,20.244,86.585,-40.427,13_6_2.csv
2018-07-11T12:51:22.245465,-0.645,-0.438,0.238,21.951,92.683,10.488,13_6_2.csv
2018-07-11T12:51:22.298107,-0.883,-0.38,0.163,24.573,49.085,92.988,13_6_2.csv
2018-07-11T12:51:22.357768,-1.179,-0.407,0.109,3.78,13.415,120.976,13_6_2.csv
2018-07-11T12:51:22.403392,-1.179,-0.407,0.109,-22.988,23.171,147.866,13_6_2.csv
2018-07-11T12:51:22.452024,-1.148,-0.524,0.174,-34.939,75.671,157.134,13_6_2.csv
2018-07-11T12:51:22.499152,-1.163,-0.541,0.104,-13.354,53.598,138.537,13_6_2.csv
2018-07-11T12:51:22.550290,-1.163,-0.541,0.104,-23.537,22.378,103.842,13_6_2.csv
2018-07-11T12:51:22.628505,-1.026,-0.491,0.084,-93.354,-23.232,-7.927,13_6_2.csv
2018-07-11T12:51:22.671619,-0.87,-0.452,0.13,-84.634,-30.793,-38.171,13_6_2.csv
2018-07-11T12:51:22.722758,-0.87,-0.452,0.13,-71.829,-36.22,-48.963,13_6_2.csv
