time,accel_x_list,accel_y_list,accel_z_list,gyro_x_list,gyro_y_list,gyro_z_list,filename
2018-07-11T11:13:10.304580,-0.918,-0.473,-0.052,128.72,186.829,79.268,14_10_3.csv
2018-07-11T11:13:10.346691,-0.918,-0.473,-0.052,128.72,186.829,79.268,14_10_3.csv
2018-07-11T11:13:10.394825,-1.056,-0.503,-0.085,167.317,181.403,83.963,14_10_3.csv
2018-07-11T11:13:10.438943,-1.056,-0.503,-0.085,217.012,165.976,74.146,14_10_3.csv
2018-07-11T11:13:10.489081,-1.0,-0.26,0.021,227.927,158.842,34.024,14_10_3.csv
2018-07-11T11:13:10.540218,-1.129,-0.24,0.167,173.049,159.207,38.232,14_10_3.csv
2018-07-11T11:13:10.586346,-1.129,-0.24,0.167,105.732,162.805,60.488,14_10_3.csv
2018-07-11T11:13:10.629461,-1.222,-0.344,0.18,69.817,162.012,78.72,14_10_3.csv
2018-07-11T11:13:10.679098,-1.222,-0.344,0.18,59.512,146.402,79.207,14_10_3.csv
2018-07-11T11:13:10.724721,-0.985,-0.235,0.41,46.22,123.659,68.659,14_10_3.csv
2018-07-11T11:13:10.772852,-1.202,-0.474,0.218,-66.585,88.902,69.146,14_10_3.csv
2018-07-11T11:13:10.869113,-1.717,-0.277,-0.244,-86.098,-175.305,-30.122,14_10_3.csv
2018-07-11T11:13:10.976403,-1.09,-0.323,0.281,-106.098,15.915,-75.427,14_10_3.csv
2018-07-11T11:13:11.021527,-0.504,-0.505,0.02,-73.476,54.939,-17.012,14_10_3.csv
2018-07-11T11:13:11.097231,-0.575,-0.897,-0.465,-1.402,15.183,-43.78,14_10_3.csv
2018-07-11T11:13:11.166919,-0.575,-0.897,-0.465,223.415,52.927,-123.598,14_10_3.csv
2018-07-11T11:13:11.226081,-0.895,-1.071,-0.601,148.537,183.659,-273.049,14_10_3.csv
2018-07-11T11:13:11.268195,-1.317,-1.396,-0.876,107.805,217.561,-332.927,14_10_3.csv
2018-07-11T11:13:11.316324,-1.317,-1.396,-0.876,17.927,176.89,-321.707,14_10_3.csv
2018-07-11T11:13:11.360445,-0.751,-1.603,0.054,-149.268,200.854,-171.098,14_10_3.csv
2018-07-11T11:13:11.408573,-0.751,-1.603,0.054,-200.488,317.5,67.073,14_10_3.csv
2018-07-11T11:13:11.455703,-0.277,-0.784,0.192,224.024,18.78,-6.524,14_10_3.csv
2018-07-11T11:13:11.501828,0.044,0.999,-0.103,2.195,7.744,-13.476,14_10_3.csv
2018-07-11T11:13:11.548956,0.044,0.999,-0.103,8.476,-53.354,65.366,14_10_3.csv
2018-07-11T11:13:11.596082,-0.083,-0.278,0.052,27.317,-59.512,107.439,14_10_3.csv
2018-07-11T11:13:11.642210,-0.083,-0.278,0.052,-12.561,-14.085,44.146,14_10_3.csv
2018-07-11T11:13:11.689336,0.021,-0.297,-0.056,112.988,17.073,74.695,14_10_3.csv
2018-07-11T11:13:11.761535,-0.559,-1.349,0.147,22.317,20.244,66.22,14_10_3.csv
2018-07-11T11:13:11.826713,-1.359,-4.039,0.458,-51.585,-9.573,31.22,14_10_3.csv
2018-07-11T11:13:11.887877,-1.359,-4.039,0.458,38.171,-13.11,-27.805,14_10_3.csv
2018-07-11T11:13:11.952554,-0.657,-1.79,0.249,120.793,-68.841,-44.878,14_10_3.csv
2018-07-11T11:13:12.010708,0.078,1.023,-0.32,98.841,-58.049,-32.378,14_10_3.csv
2018-07-11T11:13:12.080895,0.068,0.301,-0.124,-54.878,-29.817,45.793,14_10_3.csv
2018-07-11T11:13:12.155094,-0.244,-0.714,-0.094,-106.89,-4.939,-7.134,14_10_3.csv
2018-07-11T11:13:12.211243,-0.244,-0.714,-0.094,40.366,-24.939,-48.049,14_10_3.csv
2018-07-11T11:13:12.302992,-0.174,-2.76,-0.465,-209.451,101.829,-59.451,14_10_3.csv
2018-07-11T11:13:12.350118,-0.174,-2.76,-0.465,-45.0,25.61,149.573,14_10_3.csv
2018-07-11T11:13:12.394740,0.026,-3.617,-0.715,-107.073,-18.415,49.085,14_10_3.csv
2018-07-11T11:13:12.441366,0.026,-3.617,-0.715,40.854,-12.744,3.72,14_10_3.csv
2018-07-11T11:13:12.495513,-0.109,-0.364,-0.353,84.146,44.756,7.927,14_10_3.csv
2018-07-11T11:13:12.540637,-0.167,0.729,0.094,33.049,16.037,4.939,14_10_3.csv
2018-07-11T11:13:12.673997,0.086,-0.082,-0.008,-50.183,13.171,14.573,14_10_3.csv
2018-07-11T11:13:12.732656,-0.049,-0.091,-0.063,-32.866,34.695,8.598,14_10_3.csv
2018-07-11T11:13:12.789809,-0.476,-1.192,-0.608,-57.378,13.476,16.585,14_10_3.csv
2018-07-11T11:13:12.874034,-0.587,-3.495,-1.413,-85.793,-7.927,6.524,14_10_3.csv
2018-07-11T11:13:12.940211,-0.216,-1.847,-0.686,65.305,-26.829,-18.11,14_10_3.csv
2018-07-11T11:13:13.003881,-0.216,-1.847,-0.686,103.232,-18.476,-25.488,14_10_3.csv
2018-07-11T11:13:13.054017,0.049,0.567,-0.001,95.366,1.098,-19.573,14_10_3.csv
2018-07-11T11:13:13.108162,-0.093,0.414,0.004,25.305,-7.988,9.207,14_10_3.csv
2018-07-11T11:13:13.177352,-0.093,0.414,0.004,-25.854,-6.951,8.72,14_10_3.csv
2018-07-11T11:13:13.259575,-0.11,-0.883,-0.275,-42.195,-54.085,-5.671,14_10_3.csv
2018-07-11T11:13:13.316229,-0.11,-0.883,-0.275,44.512,-66.829,-35.549,14_10_3.csv
2018-07-11T11:13:13.365863,-0.374,-2.979,-0.6,45.183,-193.72,-44.939,14_10_3.csv
2018-07-11T11:13:13.430037,-0.2,-2.655,-0.709,-70.671,-85.488,12.073,14_10_3.csv
2018-07-11T11:13:13.473155,-0.2,-2.655,-0.709,20.122,-41.951,57.866,14_10_3.csv
2018-07-11T11:13:13.520783,-0.204,-0.018,-0.082,-2.073,-18.659,57.866,14_10_3.csv
2018-07-11T11:13:13.570419,-0.204,-0.018,-0.082,-56.707,7.317,-18.11,14_10_3.csv
2018-07-11T11:13:13.653646,0.054,0.399,0.158,0.854,12.866,-21.707,14_10_3.csv
2018-07-11T11:13:13.700772,-0.072,0.139,0.057,-37.988,26.707,32.317,14_10_3.csv
2018-07-11T11:13:13.750911,-0.308,-0.345,-0.176,-101.524,-54.756,35.549,14_10_3.csv
2018-07-11T11:13:13.800042,-0.308,-0.345,-0.176,38.78,-72.805,53.232,14_10_3.csv
2018-07-11T11:13:13.845167,-0.826,-1.708,-0.159,310.549,-30.915,109.573,14_10_3.csv
2018-07-11T11:13:13.894298,-0.826,-1.708,-0.159,445.976,123.232,236.585,14_10_3.csv
2018-07-11T11:13:13.940144,-2.527,-2.223,0.374,326.585,183.049,288.476,14_10_3.csv
2018-07-11T11:13:13.990278,-0.899,-1.193,0.078,-21.524,-52.378,1.28,14_10_3.csv
2018-07-11T11:13:14.041419,-0.899,-1.193,0.078,157.317,-66.829,62.5,14_10_3.csv
2018-07-11T11:13:14.096567,0.276,0.35,-0.197,103.902,-35.366,16.707,14_10_3.csv
2018-07-11T11:13:14.142697,0.276,0.35,-0.197,-0.488,-6.098,-8.415,14_10_3.csv
2018-07-11T11:13:14.195839,0.011,0.254,0.012,-208.842,18.171,-12.195,14_10_3.csv
2018-07-11T11:13:14.240965,-0.089,-0.462,-0.067,-215.671,47.378,-18.598,14_10_3.csv
2018-07-11T11:13:14.287088,-0.089,-0.462,-0.067,-100.244,34.451,-25.549,14_10_3.csv
2018-07-11T11:13:14.336223,-0.678,-0.755,-0.256,86.159,44.695,2.805,14_10_3.csv
2018-07-11T11:13:14.377333,-0.678,-0.755,-0.256,245.183,55.671,21.707,14_10_3.csv
2018-07-11T11:13:14.429475,-2.643,-1.646,0.14,59.878,8.232,14.756,14_10_3.csv
2018-07-11T11:13:14.476099,-2.053,-1.812,0.488,9.756,-22.622,-22.073,14_10_3.csv
2018-07-11T11:13:14.521724,-2.053,-1.812,0.488,-43.841,-15.671,-15.183,14_10_3.csv
2018-07-11T11:13:14.570855,-0.28,-0.496,-0.019,71.829,-7.927,-1.341,14_10_3.csv
2018-07-11T11:13:14.629015,0.341,0.212,0.042,122.866,65.793,25.061,14_10_3.csv
2018-07-11T11:13:14.680152,0.341,0.212,0.042,74.634,62.378,57.744,14_10_3.csv
2018-07-11T11:13:14.721765,0.028,-0.371,-0.142,68.293,29.695,22.317,14_10_3.csv
2018-07-11T11:13:14.771899,0.028,-0.371,-0.142,92.317,-12.683,-28.415,14_10_3.csv
2018-07-11T11:13:14.820028,-0.168,-0.077,-0.458,15.122,-26.951,-31.22,14_10_3.csv
2018-07-11T11:13:14.876680,-1.123,0.518,0.113,129.024,-14.268,47.195,14_10_3.csv
2018-07-11T11:13:14.932331,-1.123,0.518,0.113,-65.976,85.122,19.817,14_10_3.csv
2018-07-11T11:13:15.125218,-0.055,0.372,-0.211,104.329,-6.22,-40.366,14_10_3.csv
2018-07-11T11:13:15.180368,-0.055,0.372,-0.211,62.134,-7.622,-25.793,14_10_3.csv
2018-07-11T11:13:15.225992,0.252,0.311,-0.079,19.939,6.768,-14.878,14_10_3.csv
2018-07-11T11:13:15.271616,-0.11,-0.21,0.054,2.195,24.024,-13.354,14_10_3.csv
2018-07-11T11:13:15.317739,-0.11,-0.21,0.054,6.768,38.537,-9.878,14_10_3.csv
2018-07-11T11:13:15.390939,-0.395,-0.129,0.115,41.829,1.341,-7.988,14_10_3.csv
2018-07-11T11:13:15.441079,-1.462,-0.846,0.495,36.22,-58.659,48.293,14_10_3.csv
2018-07-11T11:13:15.487203,-1.462,-0.846,0.495,-99.39,2.195,35.427,14_10_3.csv
2018-07-11T11:13:15.535333,-2.793,-2.172,0.877,-71.098,67.073,9.329,14_10_3.csv
2018-07-11T11:13:15.579453,-2.793,-2.172,0.877,-69.329,87.988,-6.22,14_10_3.csv
2018-07-11T11:13:15.692757,0.265,0.542,-0.376,129.268,-57.805,-33.354,14_10_3.csv
2018-07-11T11:13:15.748908,0.265,0.542,-0.376,72.683,-5.305,-24.634,14_10_3.csv
2018-07-11T11:13:15.806561,-0.002,0.283,-0.059,-59.817,26.829,10.671,14_10_3.csv
2018-07-11T11:13:15.862210,-0.381,-0.767,0.181,-51.585,20.915,-27.5,14_10_3.csv
2018-07-11T11:13:15.910840,-0.381,-0.767,0.181,44.024,-20.488,-56.098,14_10_3.csv
2018-07-11T11:13:15.954958,-0.739,-0.729,0.57,-94.451,-68.049,-249.39,14_10_3.csv
2018-07-11T11:13:16.004089,-0.61,-1.637,0.114,-244.878,-68.11,-252.988,14_10_3.csv
2018-07-11T11:13:16.052218,-0.61,-1.637,0.114,-168.049,-52.378,-127.256,14_10_3.csv
2018-07-11T11:13:16.097338,-0.659,-2.215,0.036,-47.988,-24.939,31.22,14_10_3.csv
2018-07-11T11:13:16.142960,-0.659,-2.215,0.036,-78.171,70.854,84.085,14_10_3.csv
2018-07-11T11:13:16.192593,-0.187,-1.228,-0.233,-166.524,69.695,31.159,14_10_3.csv
2018-07-11T11:13:16.257767,0.091,0.369,0.146,105.366,4.573,13.78,14_10_3.csv
2018-07-11T11:13:16.321938,-0.092,0.208,-0.054,-71.768,-10.854,31.951,14_10_3.csv
2018-07-11T11:13:16.427219,-0.18,-0.252,0.021,-20.427,14.024,57.622,14_10_3.csv
2018-07-11T11:13:16.471338,-0.18,-0.252,0.021,-35.915,8.476,9.024,14_10_3.csv
2018-07-11T11:13:16.518965,-0.366,-1.347,-0.079,-16.524,49.024,-28.659,14_10_3.csv
2018-07-11T11:13:16.567094,-1.333,-3.245,-0.491,-6.341,72.561,-38.11,14_10_3.csv
2018-07-11T11:13:16.614219,-1.333,-3.245,-0.491,14.329,66.037,-27.5,14_10_3.csv
2018-07-11T11:13:16.689922,-0.912,-1.954,-0.227,4.573,-73.659,-29.634,14_10_3.csv
2018-07-11T11:13:16.755675,0.182,0.084,-0.284,50.122,-47.561,-24.634,14_10_3.csv
2018-07-11T11:13:16.807315,0.042,0.384,0.23,57.256,3.232,20.488,14_10_3.csv
2018-07-11T11:13:16.941177,-0.197,-0.084,-0.034,37.317,-7.073,31.402,14_10_3.csv
2018-07-11T11:13:16.997828,-0.159,-0.227,-0.031,-30.305,6.22,12.683,14_10_3.csv
2018-07-11T11:13:17.060997,-0.767,-2.331,-0.143,-45.732,12.134,27.561,14_10_3.csv
2018-07-11T11:13:17.118150,-0.767,-2.331,-0.143,-26.463,47.683,25.366,14_10_3.csv
2018-07-11T11:13:17.173801,-1.704,-2.725,0.321,66.768,-22.256,11.89,14_10_3.csv
2018-07-11T11:13:17.244993,-0.677,-1.276,0.016,8.293,-46.28,10.671,14_10_3.csv
2018-07-11T11:13:17.292121,0.123,0.255,-0.173,64.939,-51.22,-5.0,14_10_3.csv
2018-07-11T11:13:17.338247,0.123,0.255,-0.173,34.695,-54.146,0.0,14_10_3.csv
2018-07-11T11:13:17.390388,0.057,0.376,-0.097,-22.256,-44.024,12.927,14_10_3.csv
2018-07-11T11:13:17.449048,-0.224,-0.194,-0.169,-157.378,-28.841,17.622,14_10_3.csv
2018-07-11T11:13:17.499686,-0.224,-0.194,-0.169,-122.927,-55.854,-8.232,14_10_3.csv
2018-07-11T11:13:17.555841,-0.311,-0.722,0.078,-65.488,-60.976,-16.89,14_10_3.csv
2018-07-11T11:13:17.599958,-0.311,-0.722,0.078,-27.073,-55.61,25.244,14_10_3.csv
2018-07-11T11:13:17.664135,-1.521,-2.755,-0.227,-112.378,21.28,59.573,14_10_3.csv
2018-07-11T11:13:17.760395,-1.482,-2.251,-0.357,50.0,-36.28,-48.415,14_10_3.csv
2018-07-11T11:13:17.799500,-0.241,-0.264,-0.226,20.427,-28.415,-42.5,14_10_3.csv
2018-07-11T11:13:17.863675,0.098,0.388,0.093,65.915,-7.012,-62.073,14_10_3.csv
2018-07-11T11:13:17.908796,0.098,0.388,0.093,38.659,-12.927,-57.622,14_10_3.csv
2018-07-11T11:13:17.961944,-0.05,0.191,0.003,-5.244,-35.244,-36.646,14_10_3.csv
2018-07-11T11:13:18.008067,-0.147,-0.312,-0.053,-104.695,-150.793,-16.646,14_10_3.csv
2018-07-11T11:13:18.064222,-0.147,-0.312,-0.053,-112.134,-166.951,-24.146,14_10_3.csv
2018-07-11T11:13:18.112351,-0.922,-1.787,-0.242,23.659,-76.159,-12.012,14_10_3.csv
2018-07-11T11:13:18.158479,-0.922,-1.787,-0.242,10.366,-11.159,72.927,14_10_3.csv
2018-07-11T11:13:18.205605,-1.675,-3.153,0.086,177.195,372.744,183.781,14_10_3.csv
2018-07-11T11:13:18.252232,-0.762,-1.128,-0.205,106.342,156.768,93.598,14_10_3.csv
2018-07-11T11:13:18.298860,-0.762,-1.128,-0.205,62.195,-17.805,1.22,14_10_3.csv
2018-07-11T11:13:18.354010,0.121,0.54,-0.045,121.037,-16.463,-14.085,14_10_3.csv
2018-07-11T11:13:18.393615,0.121,0.54,-0.045,93.72,8.841,5.305,14_10_3.csv
2018-07-11T11:13:18.507419,0.082,-0.217,0.023,36.463,19.024,23.78,14_10_3.csv
2018-07-11T11:13:18.551537,0.082,-0.217,0.023,66.768,5.793,28.232,14_10_3.csv
2018-07-11T11:13:18.597159,-0.651,-0.652,0.098,30.915,19.207,32.317,14_10_3.csv
2018-07-11T11:13:18.649314,-2.766,-2.671,0.053,-11.951,33.354,61.28,14_10_3.csv
2018-07-11T11:13:18.710981,-2.766,-2.671,0.053,47.622,-60.183,45.305,14_10_3.csv
2018-07-11T11:13:18.787188,-1.686,-1.964,0.163,-9.695,-164.634,-109.512,14_10_3.csv
2018-07-11T11:13:18.830307,0.128,0.161,-0.179,19.878,-228.415,-162.439,14_10_3.csv
2018-07-11T11:13:18.877433,0.128,0.161,-0.179,-153.354,-183.293,-207.256,14_10_3.csv
2018-07-11T11:13:18.929577,0.287,0.407,-0.149,-233.903,-29.512,-32.378,14_10_3.csv
2018-07-11T11:13:18.974698,-0.269,0.377,0.227,-18.171,15.732,81.524,14_10_3.csv
2018-07-11T11:13:19.023834,-0.269,0.377,0.227,-71.524,-16.402,92.256,14_10_3.csv
2018-07-11T11:13:19.112574,-0.463,-0.347,-0.056,-91.524,-3.72,118.354,14_10_3.csv
2018-07-11T11:13:19.162208,-1.086,-1.693,-0.825,153.415,17.378,115.61,14_10_3.csv
2018-07-11T11:13:19.212344,-1.796,-2.332,-0.732,124.695,79.268,85.061,14_10_3.csv
2018-07-11T11:13:19.256464,-1.796,-2.332,-0.732,102.195,64.268,35.366,14_10_3.csv
2018-07-11T11:13:19.304093,-1.245,-1.576,-0.376,78.476,-5.122,1.28,14_10_3.csv
2018-07-11T11:13:19.367766,-1.245,-1.576,-0.376,94.268,-19.817,-5.61,14_10_3.csv
2018-07-11T11:13:19.408878,-0.268,-0.24,-0.11,134.939,-21.28,-15.671,14_10_3.csv
2018-07-11T11:13:19.455503,0.166,0.375,0.049,120.244,2.988,0.671,14_10_3.csv
2018-07-11T11:13:19.510151,0.166,0.375,0.049,81.89,13.171,11.22,14_10_3.csv
2018-07-11T11:13:19.565301,0.017,0.131,-0.013,49.512,37.012,30.976,14_10_3.csv
2018-07-11T11:13:19.611426,0.017,0.131,-0.013,12.561,42.012,37.866,14_10_3.csv
2018-07-11T11:13:19.661061,-0.229,-0.162,0.047,-42.988,63.293,50.488,14_10_3.csv
2018-07-11T11:13:19.705683,-1.348,-1.287,-0.181,-45.0,81.646,48.902,14_10_3.csv
2018-07-11T11:13:19.752809,-1.348,-1.287,-0.181,-23.415,106.707,52.5,14_10_3.csv
2018-07-11T11:13:19.801441,-2.712,-2.149,-0.152,50.244,67.927,40.732,14_10_3.csv
2018-07-11T11:13:19.862103,-1.416,-1.442,-0.092,7.439,-63.293,-18.78,14_10_3.csv
2018-07-11T11:13:19.931789,-1.416,-1.442,-0.092,78.415,-88.598,-44.085,14_10_3.csv
2018-07-11T11:13:19.982926,0.173,0.284,-0.256,154.207,-86.341,-27.012,14_10_3.csv
2018-07-11T11:13:20.034564,0.147,0.403,-0.128,64.878,-39.939,11.402,14_10_3.csv
2018-07-11T11:13:20.079684,0.147,0.403,-0.128,23.293,1.585,27.012,14_10_3.csv
2018-07-11T11:13:20.130321,-0.144,-0.148,-0.018,42.317,29.268,23.049,14_10_3.csv
2018-07-11T11:13:20.174440,-0.144,-0.148,-0.018,45.671,34.756,25.549,14_10_3.csv
2018-07-11T11:13:20.221570,-0.524,-0.169,0.171,-17.927,12.561,21.037,14_10_3.csv
2018-07-11T11:13:20.273709,-2.285,-1.861,0.537,-127.744,61.28,12.439,14_10_3.csv
2018-07-11T11:13:20.316830,-2.285,-1.861,0.537,-89.329,89.268,29.024,14_10_3.csv
2018-07-11T11:13:20.360948,-2.521,-2.101,0.518,-57.683,34.512,-7.866,14_10_3.csv
2018-07-11T11:13:20.410084,-2.521,-2.101,0.518,-4.085,-63.841,-50.366,14_10_3.csv
2018-07-11T11:13:20.517374,0.345,0.586,-0.242,14.939,-62.439,-14.817,14_10_3.csv
2018-07-11T11:13:20.566505,0.345,0.586,-0.242,-69.451,-25.122,-1.037,14_10_3.csv
2018-07-11T11:13:20.620655,-0.077,-0.142,0.014,-36.037,-13.72,21.707,14_10_3.csv
2018-07-11T11:13:20.737971,-1.197,-0.968,0.413,4.146,13.049,35.671,14_10_3.csv
2018-07-11T11:13:20.786601,-1.197,-0.968,0.413,-74.573,46.768,30.122,14_10_3.csv
2018-07-11T11:13:20.847265,-2.81,-2.255,1.022,-76.463,61.524,8.476,14_10_3.csv
2018-07-11T11:13:20.901410,-1.615,-1.357,0.37,4.268,-43.659,-44.573,14_10_3.csv
2018-07-11T11:13:20.960571,-1.615,-1.357,0.37,28.841,-25.671,-50.732,14_10_3.csv
2018-07-11T11:13:21.017724,-0.087,0.007,-0.188,72.195,-76.524,-42.439,14_10_3.csv
2018-07-11T11:13:21.071868,0.058,0.203,0.015,66.28,-88.171,-14.451,14_10_3.csv
2018-07-11T11:13:21.117991,0.058,0.203,0.015,38.659,-62.683,-11.646,14_10_3.csv
2018-07-11T11:13:21.189182,-0.216,-0.054,0.011,-14.512,-156.037,-54.329,14_10_3.csv
2018-07-11T11:13:21.253353,-0.077,-0.057,-0.587,-234.024,-166.159,-106.951,14_10_3.csv
2018-07-11T11:13:21.314015,-0.875,-1.41,-0.04,-233.598,162.927,-20.61,14_10_3.csv
2018-07-11T11:13:21.383701,-1.428,-4.044,-0.115,-59.695,193.354,112.988,14_10_3.csv
2018-07-11T11:13:21.497505,-0.501,-1.673,-0.45,40.183,7.683,55.671,14_10_3.csv
2018-07-11T11:13:21.582733,-0.047,0.636,-0.186,196.281,13.354,1.646,14_10_3.csv
2018-07-11T11:13:21.633870,-0.002,0.499,0.004,12.012,-10.061,22.744,14_10_3.csv
2018-07-11T11:13:21.680494,-0.002,0.499,0.004,-101.037,4.878,46.22,14_10_3.csv
2018-07-11T11:13:21.723610,-0.038,-0.141,-0.098,-67.378,0.549,54.146,14_10_3.csv
2018-07-11T11:13:21.831903,-0.363,-0.273,-0.051,-80.427,20.061,80.732,14_10_3.csv
2018-07-11T11:13:21.883043,-1.941,-2.039,-0.74,-123.11,22.256,82.866,14_10_3.csv
2018-07-11T11:13:21.936190,-1.941,-2.039,-0.74,-107.683,51.768,90.854,14_10_3.csv
2018-07-11T11:13:21.986324,-2.126,-2.503,-0.891,42.866,-10.671,-36.585,14_10_3.csv
2018-07-11T11:13:22.036464,-0.447,-0.504,-0.296,44.451,-1.28,-38.354,14_10_3.csv
2018-07-11T11:13:22.080580,-0.447,-0.504,-0.296,88.72,20.793,-44.695,14_10_3.csv
2018-07-11T11:13:22.128209,0.091,0.707,0.093,133.049,-15.0,-39.878,14_10_3.csv
2018-07-11T11:13:22.174837,0.091,0.707,0.093,51.707,-32.5,-15.549,14_10_3.csv
2018-07-11T11:13:22.238010,-0.066,0.324,-0.079,-88.049,6.037,33.354,14_10_3.csv
2018-07-11T11:13:22.284133,-0.121,-0.279,0.057,-42.317,0.793,42.317,14_10_3.csv
2018-07-11T11:13:22.330258,-0.121,-0.279,0.057,-11.28,2.378,34.024,14_10_3.csv
2018-07-11T11:13:22.378389,-0.995,-0.889,-0.28,-23.049,35.549,36.524,14_10_3.csv
2018-07-11T11:13:22.426019,-2.623,-2.499,-0.805,55.061,-35.915,59.207,14_10_3.csv
2018-07-11T11:13:22.472646,-2.623,-2.499,-0.805,45.549,8.78,-38.841,14_10_3.csv
2018-07-11T11:13:22.524286,-1.518,-1.503,-0.429,41.768,5.854,-28.537,14_10_3.csv
2018-07-11T11:13:22.585951,-1.518,-1.503,-0.429,82.683,-30.366,-0.671,14_10_3.csv
2018-07-11T11:13:22.648117,-0.064,0.133,-0.189,107.134,-34.573,-54.329,14_10_3.csv
2018-07-11T11:13:22.707275,0.172,0.523,-0.071,79.756,-63.78,-35.732,14_10_3.csv
2018-07-11T11:13:22.752399,-0.043,-0.073,-0.077,5.305,-54.939,-30.366,14_10_3.csv
2018-07-11T11:13:22.800527,-0.043,-0.073,-0.077,-8.537,-38.841,-54.939,14_10_3.csv
2018-07-11T11:13:22.846656,0.024,-0.188,0.341,8.841,-13.659,-52.5,14_10_3.csv
2018-07-11T11:13:22.894784,0.024,-0.188,0.341,-21.098,77.683,18.659,14_10_3.csv
2018-07-11T11:13:22.940408,-1.002,-1.31,-0.347,-148.415,180.915,50.305,14_10_3.csv
2018-07-11T11:13:22.998564,-2.651,-3.16,-0.46,38.659,108.659,66.89,14_10_3.csv
2018-07-11T11:13:23.066246,-2.651,-3.16,-0.46,79.146,63.659,23.902,14_10_3.csv
2018-07-11T11:13:23.121897,-1.12,-1.414,-0.162,134.756,-50.793,-3.72,14_10_3.csv
2018-07-11T11:13:23.200609,0.119,0.227,-0.174,95.122,-26.22,-49.695,14_10_3.csv
2018-07-11T11:13:23.269435,0.033,0.335,-0.075,41.037,-28.537,-30.793,14_10_3.csv
2018-07-11T11:13:23.321074,0.15,0.156,-0.089,-19.878,10.671,-13.293,14_10_3.csv
2018-07-11T11:13:23.367701,0.15,0.156,-0.089,-37.622,53.72,-9.451,14_10_3.csv
2018-07-11T11:13:23.415331,-0.211,-0.026,-0.105,-115.122,78.293,-20.0,14_10_3.csv
2018-07-11T11:13:23.462961,-0.211,-0.026,-0.105,-198.293,77.256,-34.634,14_10_3.csv
2018-07-11T11:13:23.507582,-1.542,-1.806,-0.542,-156.89,79.878,9.634,14_10_3.csv
2018-07-11T11:13:23.553058,-1.826,-3.221,-0.957,-94.878,20.183,16.829,14_10_3.csv
2018-07-11T11:13:23.730038,-0.084,0.651,0.061,77.378,-21.402,-61.951,14_10_3.csv
2018-07-11T11:13:23.784684,-0.084,0.651,0.061,53.293,-31.768,-38.659,14_10_3.csv
2018-07-11T11:13:23.830306,-0.013,0.594,0.075,16.463,-45.793,7.683,14_10_3.csv
2018-07-11T11:13:23.880440,-0.076,-0.077,-0.086,-105.549,-24.512,41.463,14_10_3.csv
2018-07-11T11:13:23.926062,-0.076,-0.077,-0.086,-86.585,-12.317,34.512,14_10_3.csv
2018-07-11T11:13:23.972687,-0.388,-0.678,-0.242,-88.049,-8.293,19.756,14_10_3.csv
2018-07-11T11:13:24.096016,-1.556,-2.167,-1.152,-76.037,-20.305,58.293,14_10_3.csv
2018-07-11T11:13:24.159186,-1.826,-2.498,-0.952,-31.646,-18.415,-49.817,14_10_3.csv
2018-07-11T11:13:24.206311,-0.521,-0.675,-0.403,25.488,-40.0,-63.415,14_10_3.csv
2018-07-11T11:13:24.255442,-0.521,-0.675,-0.403,118.11,-43.049,-78.171,14_10_3.csv
2018-07-11T11:13:24.300563,0.172,0.745,0.115,120.366,-26.22,-62.988,14_10_3.csv
2018-07-11T11:13:24.441940,-0.196,-0.201,-0.101,-76.524,23.78,37.683,14_10_3.csv
2018-07-11T11:13:24.596353,-0.53,-1.11,-0.096,39.756,3.171,33.11,14_10_3.csv
2018-07-11T11:13:24.648994,-2.316,-2.548,-0.74,-34.817,46.585,32.073,14_10_3.csv
2018-07-11T11:13:24.713165,-1.452,-2.174,-0.446,-24.024,-8.11,-16.463,14_10_3.csv
2018-07-11T11:13:24.804409,-0.043,0.204,-0.198,154.634,-21.646,-53.659,14_10_3.csv
2018-07-11T11:13:24.847524,-0.004,0.776,0.086,82.256,-16.463,-26.037,14_10_3.csv
2018-07-11T11:13:24.898159,-0.004,0.776,0.086,3.171,-16.037,9.817,14_10_3.csv
2018-07-11T11:13:24.957819,-0.118,0.006,-0.136,-52.012,-8.963,38.415,14_10_3.csv
2018-07-11T11:13:25.002939,-0.1,-0.231,-0.054,-24.512,7.988,31.89,14_10_3.csv
2018-07-11T11:13:25.050566,-0.1,-0.231,-0.054,-14.39,16.829,30.61,14_10_3.csv
2018-07-11T11:13:25.097692,-1.04,-1.458,-0.199,-15.976,25.366,32.195,14_10_3.csv
2018-07-11T11:13:25.143816,-1.04,-1.458,-0.199,-55.976,73.598,52.256,14_10_3.csv
2018-07-11T11:13:25.190440,-2.511,-2.763,-0.194,19.878,59.329,46.098,14_10_3.csv
2018-07-11T11:13:25.243081,-1.269,-1.636,-0.294,21.159,-31.768,-41.829,14_10_3.csv
2018-07-11T11:13:25.300233,-1.269,-1.636,-0.294,86.951,-50.122,-46.829,14_10_3.csv
2018-07-11T11:13:25.346357,-0.025,0.127,-0.134,93.171,-37.195,-62.317,14_10_3.csv
2018-07-11T11:13:25.400000,-0.025,0.127,-0.134,137.744,-43.232,-52.988,14_10_3.csv
2018-07-11T11:13:25.443617,0.101,0.709,-0.074,28.415,-8.354,-0.915,14_10_3.csv
2018-07-11T11:13:25.495756,-0.181,-0.135,-0.188,46.037,8.598,34.268,14_10_3.csv
2018-07-11T11:13:25.559927,-0.181,-0.135,-0.188,93.171,2.805,46.159,14_10_3.csv
2018-07-11T11:13:25.612568,-0.17,-0.266,0.14,59.939,-64.939,-21.707,14_10_3.csv
2018-07-11T11:13:25.659193,-1.163,-1.544,0.766,-43.659,-43.11,-21.28,14_10_3.csv
2018-07-11T11:13:25.753446,-1.793,-3.302,0.771,-240.366,77.561,26.159,14_10_3.csv
2018-07-11T11:13:25.799066,-1.793,-3.302,0.771,-16.28,33.78,-10.976,14_10_3.csv
2018-07-11T11:13:25.846694,-0.721,-1.252,0.094,42.195,-77.256,-106.646,14_10_3.csv
2018-07-11T11:13:26.054094,-0.198,0.163,-0.053,-114.756,-34.878,44.756,14_10_3.csv
2018-07-11T11:13:26.109242,-0.198,0.163,-0.053,-241.646,-40.915,85.549,14_10_3.csv
2018-07-11T11:13:26.162388,-0.579,-0.068,-0.29,-420.732,-77.744,84.817,14_10_3.csv
2018-07-11T11:13:26.208512,-2.061,-0.654,-2.997,-1047.683,-150.61,33.841,14_10_3.csv
2018-07-11T11:13:26.257648,-2.061,-0.654,-2.997,-444.329,-143.537,-107.439,14_10_3.csv
2018-07-11T11:13:26.298758,-1.731,-0.459,-3.113,281.342,-67.439,15.488,14_10_3.csv
2018-07-11T11:13:26.377973,-0.525,-0.086,-0.641,562.073,109.878,-72.683,14_10_3.csv
2018-07-11T11:13:26.426104,-0.525,-0.086,-0.641,607.073,137.256,-141.402,14_10_3.csv
2018-07-11T11:13:26.476739,-0.074,0.908,0.386,287.622,144.39,-170.793,14_10_3.csv
2018-07-11T11:13:26.550937,-0.156,0.205,0.157,-77.927,117.927,-60.366,14_10_3.csv
2018-07-11T11:13:26.643685,-0.201,-0.06,0.239,38.293,-56.585,52.805,14_10_3.csv
2018-07-11T11:13:26.690811,-0.954,-1.449,0.206,65.854,-28.293,37.378,14_10_3.csv
2018-07-11T11:13:26.742950,-0.954,-1.449,0.206,94.756,-126.159,44.573,14_10_3.csv
2018-07-11T11:13:26.807623,-1.608,-2.626,-1.248,-91.951,-349.756,44.39,14_10_3.csv
2018-07-11T11:13:26.911902,-0.287,-1.569,-0.994,16.402,21.524,22.317,14_10_3.csv
2018-07-11T11:13:26.959028,0.371,0.494,0.168,-106.402,92.988,108.537,14_10_3.csv
2018-07-11T11:13:27.004649,0.371,0.494,0.168,-43.72,28.354,178.598,14_10_3.csv
2018-07-11T11:13:27.058794,-0.436,-0.062,0.474,71.28,-138.476,155.671,14_10_3.csv
2018-07-11T11:13:27.109931,-0.508,-0.345,0.355,-7.622,-93.415,107.805,14_10_3.csv
2018-07-11T11:13:27.179116,-0.33,-0.55,0.225,-1.159,30.671,83.72,14_10_3.csv
2018-07-11T11:13:27.226242,-0.33,-0.55,0.225,167.134,78.415,81.098,14_10_3.csv
2018-07-11T11:13:27.313478,-2.577,-0.4,-0.507,259.573,33.476,168.598,14_10_3.csv
2018-07-11T11:13:27.379155,-3.079,-0.148,-0.661,-409.451,-298.11,78.171,14_10_3.csv
2018-07-11T11:13:27.424778,-0.764,-0.383,0.31,-452.988,-43.537,-5.427,14_10_3.csv
2018-07-11T11:13:27.481433,-0.764,-0.383,0.31,-370.0,106.402,-1.037,14_10_3.csv
2018-07-11T11:13:27.534076,0.43,-0.648,-0.034,-47.317,60.183,21.89,14_10_3.csv
2018-07-11T11:13:27.580702,0.042,-0.446,0.006,149.634,20.488,6.463,14_10_3.csv
2018-07-11T11:13:27.628831,0.042,-0.446,0.006,109.939,-18.11,-18.476,14_10_3.csv
2018-07-11T11:13:27.673450,-0.131,-0.263,0.062,-3.049,-24.39,-45.854,14_10_3.csv
2018-07-11T11:13:27.721581,-0.131,-0.263,0.062,-65.122,-6.829,-86.707,14_10_3.csv
2018-07-11T11:13:27.779736,-0.838,-0.484,-0.331,307.012,103.537,-42.317,14_10_3.csv
2018-07-11T11:13:27.829874,-3.038,-0.5,-0.526,521.646,156.098,56.159,14_10_3.csv
2018-07-11T11:13:27.899062,-3.11,0.513,-0.354,383.232,150.061,35.305,14_10_3.csv
2018-07-11T11:13:27.946826,-3.11,0.513,-0.354,19.573,-78.171,-79.817,14_10_3.csv
2018-07-11T11:13:27.992451,-0.529,0.289,0.235,-410.183,-151.342,-72.805,14_10_3.csv
2018-07-11T11:13:28.035067,-0.529,0.289,0.235,-521.403,-66.768,-7.927,14_10_3.csv
2018-07-11T11:13:28.088212,0.433,-0.592,0.163,-436.281,-54.39,99.024,14_10_3.csv
2018-07-11T11:13:28.142358,0.074,-0.645,-0.011,-71.951,-62.866,103.415,14_10_3.csv
2018-07-11T11:13:28.190490,0.074,-0.645,-0.011,-14.695,-72.134,92.134,14_10_3.csv
2018-07-11T11:13:28.239623,-0.284,-1.256,-0.111,-41.098,-94.39,93.476,14_10_3.csv
2018-07-11T11:13:28.282738,-0.284,-1.256,-0.111,-54.024,-122.134,62.561,14_10_3.csv
2018-07-11T11:13:28.330514,-1.892,-0.618,-0.304,32.866,-66.951,-101.342,14_10_3.csv
2018-07-11T11:13:28.382653,-3.533,-0.425,-0.439,-117.561,152.012,-353.72,14_10_3.csv
2018-07-11T11:13:28.442820,-3.533,-0.425,-0.439,-148.293,265.854,-262.317,14_10_3.csv
2018-07-11T11:13:28.490951,-1.867,-0.722,-0.263,-1.22,255.793,-105.488,14_10_3.csv
2018-07-11T11:13:28.539081,-0.053,0.156,0.521,427.439,141.646,-3.293,14_10_3.csv
2018-07-11T11:13:28.584201,-0.053,0.156,0.521,214.329,88.11,14.085,14_10_3.csv
2018-07-11T11:13:28.680466,0.139,0.336,0.595,-57.378,6.037,61.22,14_10_3.csv
2018-07-11T11:13:28.785248,-0.031,-1.887,0.097,181.22,-97.744,100.244,14_10_3.csv
2018-07-11T11:13:28.836384,-0.031,-1.887,0.097,398.842,-65.0,68.11,14_10_3.csv
2018-07-11T11:13:28.881004,-2.771,-1.009,0.425,503.781,-35.549,14.573,14_10_3.csv
2018-07-11T11:13:28.926626,-2.771,-1.009,0.425,203.171,-111.281,-87.317,14_10_3.csv
2018-07-11T11:13:28.977261,-2.479,-0.844,0.88,-246.22,-194.451,-293.537,14_10_3.csv
2018-07-11T11:13:29.034915,-0.147,0.172,0.398,9.451,103.598,-201.159,14_10_3.csv
2018-07-11T11:13:29.081038,-0.147,0.172,0.398,-44.573,59.634,-124.268,14_10_3.csv
2018-07-11T11:13:29.127161,0.41,0.792,0.167,-162.134,7.744,-1.341,14_10_3.csv
2018-07-11T11:13:29.175290,0.41,0.792,0.167,-82.927,16.829,100.488,14_10_3.csv
2018-07-11T11:13:29.222416,0.021,0.253,0.191,-58.72,28.537,221.707,14_10_3.csv
2018-07-11T11:13:29.270043,-0.328,-0.461,0.072,-42.744,46.646,247.439,14_10_3.csv
2018-07-11T11:13:29.316166,-0.328,-0.461,0.072,-126.829,24.207,212.988,14_10_3.csv
2018-07-11T11:13:29.389362,-2.012,-2.14,0.304,390.427,187.866,73.902,14_10_3.csv
2018-07-11T11:13:29.518206,-1.487,-0.88,-0.044,-60.305,-81.037,-291.646,14_10_3.csv
2018-07-11T11:13:29.583881,0.371,0.312,0.035,-130.427,76.098,-287.805,14_10_3.csv
2018-07-11T11:13:29.626997,0.371,0.312,0.035,-122.378,208.537,-234.573,14_10_3.csv
2018-07-11T11:13:29.675128,-0.062,0.426,0.251,-93.415,240.366,-191.707,14_10_3.csv
2018-07-11T11:13:29.725262,-0.062,0.426,0.251,-50.488,211.22,-93.598,14_10_3.csv
2018-07-11T11:13:29.783419,-0.546,0.605,0.356,-0.122,141.463,10.854,14_10_3.csv
2018-07-11T11:13:29.880178,-0.795,0.426,-0.007,161.585,-192.378,292.256,14_10_3.csv
2018-07-11T11:13:29.945352,-1.963,-0.609,0.189,99.329,24.634,620.427,14_10_3.csv
2018-07-11T11:13:30.041609,-4.601,-0.969,0.199,-130.793,153.781,319.207,14_10_3.csv
2018-07-11T11:13:30.087232,-1.917,-0.857,0.33,-259.939,143.11,103.598,14_10_3.csv
2018-07-11T11:13:30.145889,-1.917,-0.857,0.33,-308.476,117.256,21.829,14_10_3.csv
2018-07-11T11:13:30.196022,0.459,-0.638,0.238,-180.61,49.024,-93.72,14_10_3.csv
2018-07-11T11:13:30.248161,-0.051,-0.561,0.056,-100.061,34.146,-142.866,14_10_3.csv
2018-07-11T11:13:30.300300,-0.051,-0.561,0.056,-64.146,-28.963,-131.342,14_10_3.csv
2018-07-11T11:13:30.346925,-0.131,-0.569,0.069,-31.951,-97.622,-107.012,14_10_3.csv
2018-07-11T11:13:30.394552,-1.329,-0.741,-0.281,23.049,-110.854,-103.842,14_10_3.csv
2018-07-11T11:13:30.440676,-1.329,-0.741,-0.281,105.732,-130.366,-97.988,14_10_3.csv
2018-07-11T11:13:30.486801,-3.463,-0.093,0.019,204.268,-178.476,-181.037,14_10_3.csv
2018-07-11T11:13:30.547965,-3.463,-0.093,0.019,90.305,-91.89,-279.817,14_10_3.csv
2018-07-11T11:13:30.616152,-1.377,-0.154,1.079,42.5,286.342,80.549,14_10_3.csv
2018-07-11T11:13:30.660775,-0.214,0.021,0.677,-20.671,156.037,119.329,14_10_3.csv
2018-07-11T11:13:30.714421,-0.105,-0.161,0.308,-72.988,27.317,100.427,14_10_3.csv
2018-07-11T11:13:30.768067,-0.105,-0.161,0.308,-158.781,-5.244,74.329,14_10_3.csv
2018-07-11T11:13:30.815697,-0.046,-0.44,0.024,-274.024,-40.061,66.341,14_10_3.csv
2018-07-11T11:13:30.873860,-0.068,-0.857,-0.067,-195.183,-31.341,28.171,14_10_3.csv
2018-07-11T11:13:30.925999,-0.068,-0.857,-0.067,-10.427,-14.329,4.207,14_10_3.csv
2018-07-11T11:13:30.975135,-2.287,-0.626,-0.269,103.11,8.232,-9.756,14_10_3.csv
2018-07-11T11:13:31.025269,-2.287,-0.626,-0.269,131.89,-23.293,-46.037,14_10_3.csv
2018-07-11T11:13:31.067384,-3.356,-0.167,0.133,105.305,-90.915,-133.781,14_10_3.csv
2018-07-11T11:13:31.133183,-1.384,-0.245,0.246,-0.488,77.256,-101.585,14_10_3.csv
2018-07-11T11:13:31.192346,0.244,-0.206,0.27,-10.671,12.5,25.976,14_10_3.csv
2018-07-11T11:13:31.237467,0.244,-0.206,0.27,-12.378,11.829,42.927,14_10_3.csv
2018-07-11T11:13:31.282592,0.133,-0.206,0.182,-32.683,2.683,39.878,14_10_3.csv
2018-07-11T11:13:31.331723,0.133,-0.206,0.182,-67.927,-20.549,30.0,14_10_3.csv
2018-07-11T11:13:31.403920,-0.088,-0.541,0.079,-153.598,-61.829,-0.305,14_10_3.csv
2018-07-11T11:13:31.456062,-0.328,-0.941,-0.053,-83.598,-45.244,-32.683,14_10_3.csv
2018-07-11T11:13:31.514220,-2.755,-1.399,-0.378,193.232,-31.159,-93.293,14_10_3.csv
2018-07-11T11:13:31.564857,-2.755,-1.399,-0.378,282.622,-75.427,-117.378,14_10_3.csv
2018-07-11T11:13:31.612486,-2.621,-1.602,0.005,152.744,8.232,-147.134,14_10_3.csv
2018-07-11T11:13:31.659614,-2.621,-1.602,0.005,33.598,166.89,-190.915,14_10_3.csv
2018-07-11T11:13:31.705236,-0.659,-0.363,0.52,36.402,258.293,-227.378,14_10_3.csv
2018-07-11T11:13:31.754367,-0.227,0.513,0.05,-22.256,228.72,-163.232,14_10_3.csv
2018-07-11T11:13:31.814528,-0.227,0.513,0.05,79.329,77.622,-33.902,14_10_3.csv
2018-07-11T11:13:31.893739,-0.265,0.802,0.419,30.122,94.512,-37.012,14_10_3.csv
2018-07-11T11:13:31.941367,-0.14,0.021,0.069,-158.598,63.78,61.707,14_10_3.csv
2018-07-11T11:13:31.989495,-0.14,0.021,0.069,-119.146,48.11,119.756,14_10_3.csv
2018-07-11T11:13:32.037123,-0.358,-0.812,-0.178,62.927,28.537,28.476,14_10_3.csv
2018-07-11T11:13:32.080238,-2.038,-2.388,-0.716,-64.024,104.268,57.744,14_10_3.csv
2018-07-11T11:13:32.128366,-2.038,-2.388,-0.716,-178.659,72.683,82.134,14_10_3.csv
2018-07-11T11:13:32.175493,-1.814,-2.916,-0.827,-185.366,-15.183,66.524,14_10_3.csv
2018-07-11T11:13:32.222618,-1.814,-2.916,-0.827,6.829,-3.78,-29.329,14_10_3.csv
2018-07-11T11:13:32.275760,-0.135,-0.15,-0.231,122.317,-67.622,-98.293,14_10_3.csv
2018-07-11T11:13:32.321382,0.092,0.953,0.181,74.939,-70.488,-97.622,14_10_3.csv
2018-07-11T11:13:32.368508,0.092,0.953,0.181,-2.378,-61.89,-31.098,14_10_3.csv
2018-07-11T11:13:32.421149,-0.333,0.38,0.153,-8.354,-77.805,38.049,14_10_3.csv
2018-07-11T11:13:32.502867,-0.225,0.077,0.208,-44.146,-117.683,87.561,14_10_3.csv
2018-07-11T11:13:32.555507,-0.225,0.077,0.208,-40.732,-110.732,108.293,14_10_3.csv
2018-07-11T11:13:32.625695,-1.64,-0.232,-0.132,-109.451,-141.037,301.951,14_10_3.csv
2018-07-11T11:13:32.683851,-4.413,-0.897,-0.356,-262.012,-213.171,408.049,14_10_3.csv
2018-07-11T11:13:32.768577,-2.003,-0.949,0.123,-44.634,127.927,72.073,14_10_3.csv
2018-07-11T11:13:32.828740,0.285,-0.682,0.101,19.085,80.671,-69.451,14_10_3.csv
2018-07-11T11:13:32.890910,-0.078,-0.454,0.03,34.817,25.183,-75.0,14_10_3.csv
2018-07-11T11:13:32.950068,-0.078,-0.454,0.03,8.659,-36.402,-86.463,14_10_3.csv
2018-07-11T11:13:33.010886,-0.152,-0.36,-0.006,72.256,-51.159,-117.622,14_10_3.csv
2018-07-11T11:13:33.080077,-0.298,-0.249,0.058,60.854,-11.524,-136.768,14_10_3.csv
2018-07-11T11:13:33.136226,-2.469,-0.336,-0.047,75.488,-0.61,-106.646,14_10_3.csv
2018-07-11T11:13:33.208423,-3.033,-0.016,0.358,207.256,-29.939,-31.28,14_10_3.csv
2018-07-11T11:13:33.316717,-1.37,0.151,0.462,57.866,166.707,109.756,14_10_3.csv
2018-07-11T11:13:33.381897,-0.005,-0.543,0.33,-343.476,97.927,126.037,14_10_3.csv
2018-07-11T11:13:33.437045,-0.005,-0.543,0.33,-187.073,70.793,152.012,14_10_3.csv
2018-07-11T11:13:33.493201,-0.187,-0.875,0.147,178.354,-23.476,105.488,14_10_3.csv
2018-07-11T11:13:33.540327,-0.186,-0.207,0.355,125.0,-57.561,41.159,14_10_3.csv
2018-07-11T11:13:33.587458,-0.186,-0.207,0.355,-102.927,-76.159,-21.28,14_10_3.csv
2018-07-11T11:13:33.633582,-0.442,-0.898,-0.407,-299.634,-94.939,-67.134,14_10_3.csv
2018-07-11T11:13:33.682719,-0.442,-0.898,-0.407,-261.89,-97.317,-110.915,14_10_3.csv
2018-07-11T11:13:33.794021,-3.705,0.357,-0.196,500.549,150.854,-271.89,14_10_3.csv
2018-07-11T11:13:33.887272,-0.851,0.31,0.27,62.805,42.5,-96.585,14_10_3.csv
2018-07-11T11:13:33.950942,0.404,0.531,0.297,44.695,-28.171,-44.085,14_10_3.csv
2018-07-11T11:13:34.007594,-0.046,0.157,0.212,15.793,-3.476,54.878,14_10_3.csv
2018-07-11T11:13:34.051210,-0.046,0.157,0.212,-1.098,-30.0,85.0,14_10_3.csv
2018-07-11T11:13:34.133430,-0.058,-0.048,0.187,0.488,-16.951,74.512,14_10_3.csv
2018-07-11T11:13:34.175542,-0.967,0.279,-0.076,-52.744,-20.732,76.159,14_10_3.csv
2018-07-11T11:13:34.229187,-0.967,0.279,-0.076,-198.11,-34.939,126.585,14_10_3.csv
2018-07-11T11:13:34.273305,-3.592,-0.089,-0.813,-464.451,-119.634,166.707,14_10_3.csv
2018-07-11T11:13:34.319434,-3.592,-0.089,-0.813,-612.012,-188.293,163.232,14_10_3.csv
2018-07-11T11:13:34.376586,-3.258,-1.185,-0.242,127.561,70.183,313.781,14_10_3.csv
2018-07-11T11:13:34.438755,-0.491,-0.592,0.234,158.598,-44.451,140.061,14_10_3.csv
2018-07-11T11:13:34.491897,0.275,-0.53,0.093,-137.622,52.5,-65.61,14_10_3.csv
2018-07-11T11:13:34.554564,0.275,-0.53,0.093,-190.549,-11.098,-79.024,14_10_3.csv
2018-07-11T11:13:34.613725,-0.15,-0.619,-0.333,24.512,-76.768,-138.11,14_10_3.csv
2018-07-11T11:13:34.657843,-0.114,-0.316,0.035,81.768,-49.268,-152.073,14_10_3.csv
2018-07-11T11:13:34.705834,-0.114,-0.316,0.035,88.598,-1.463,-153.11,14_10_3.csv
2018-07-11T11:13:34.761984,-1.414,-0.333,0.04,73.232,46.585,-151.89,14_10_3.csv
2018-07-11T11:13:34.815130,-3.558,-0.168,-0.109,200.183,18.049,-104.939,14_10_3.csv
2018-07-11T11:13:34.862256,-3.558,-0.168,-0.109,235.061,-63.415,-65.305,14_10_3.csv
2018-07-11T11:13:34.910391,-1.96,0.12,0.517,189.024,48.415,-4.817,14_10_3.csv
2018-07-11T11:13:34.960525,-1.96,0.12,0.517,46.28,144.024,67.378,14_10_3.csv
2018-07-11T11:13:35.009193,-0.063,-0.129,0.402,-294.146,37.988,82.683,14_10_3.csv
2018-07-11T11:13:35.063842,0.084,-0.557,0.14,-182.561,1.585,71.22,14_10_3.csv
2018-07-11T11:13:35.110973,0.084,-0.557,0.14,-54.573,-24.39,60.427,14_10_3.csv
2018-07-11T11:13:35.162109,-0.109,-0.538,0.198,18.902,-30.366,62.805,14_10_3.csv
2018-07-11T11:13:35.212245,-0.154,-0.417,0.157,40.61,4.695,16.768,14_10_3.csv
2018-07-11T11:13:35.269899,-0.154,-0.417,0.157,21.951,-6.28,-19.634,14_10_3.csv
2018-07-11T11:13:35.316523,-2.245,-0.459,-0.297,15.061,-27.5,-44.085,14_10_3.csv
2018-07-11T11:13:35.367661,-2.245,-0.459,-0.297,29.146,-75.732,-80.427,14_10_3.csv
2018-07-11T11:13:35.430829,-3.442,-0.527,-0.103,199.756,125.122,-164.756,14_10_3.csv
2018-07-11T11:13:35.691536,0.087,0.433,0.214,54.451,4.512,-71.28,14_10_3.csv
2018-07-11T11:13:35.737660,-0.043,0.334,0.054,-45.549,-27.622,5.549,14_10_3.csv
2018-07-11T11:13:35.784788,-0.381,0.109,-0.077,-35.183,-29.39,37.256,14_10_3.csv
2018-07-11T11:13:35.830410,-0.381,0.109,-0.077,-66.646,12.744,117.805,14_10_3.csv
2018-07-11T11:13:35.883050,-3.125,-0.71,-0.31,-32.622,34.146,250.976,14_10_3.csv
2018-07-11T11:13:35.924661,-3.125,-0.71,-0.31,94.329,-7.683,300.732,14_10_3.csv
2018-07-11T11:13:35.973291,-3.296,-0.478,0.356,66.341,-42.866,251.159,14_10_3.csv
2018-07-11T11:13:36.020919,-0.92,-0.563,0.139,-313.171,128.354,28.963,14_10_3.csv
2018-07-11T11:13:36.067042,-0.92,-0.563,0.139,-300.183,-14.268,-48.72,14_10_3.csv
2018-07-11T11:13:36.112665,0.295,-0.639,0.055,-177.805,-25.122,-111.707,14_10_3.csv
2018-07-11T11:13:36.166810,0.295,-0.639,0.055,-100.915,-8.171,-135.793,14_10_3.csv
2018-07-11T11:13:36.207925,-0.316,-0.59,0.009,-51.951,-52.561,-160.427,14_10_3.csv
2018-07-11T11:13:36.253045,-0.316,-0.59,0.009,-55.0,-76.463,-175.915,14_10_3.csv
2018-07-11T11:13:36.301179,-0.644,-0.908,-0.105,-0.976,34.512,-297.256,14_10_3.csv
2018-07-11T11:13:36.346299,-1.734,-1.995,-0.487,84.085,136.768,-396.89,14_10_3.csv
2018-07-11T11:13:36.394433,-1.734,-1.995,-0.487,182.561,167.622,-437.561,14_10_3.csv
2018-07-11T11:13:36.448577,-1.037,-2.204,-0.411,160.183,119.39,-423.659,14_10_3.csv
2018-07-11T11:13:36.574917,0.755,-1.293,0.059,-90.976,210.122,-242.805,14_10_3.csv
2018-07-11T11:13:36.627057,-0.296,-0.124,0.192,-103.354,224.146,-230.854,14_10_3.csv
2018-07-11T11:13:36.676689,-0.694,0.219,0.123,-179.573,201.707,-189.146,14_10_3.csv
2018-07-11T11:13:36.722812,-0.694,0.219,0.123,-264.39,184.756,-88.11,14_10_3.csv
2018-07-11T11:13:36.769938,-0.416,-0.053,0.071,-225.183,140.61,-44.146,14_10_3.csv
2018-07-11T11:13:36.859177,0.202,-0.452,0.407,-57.439,84.268,-76.585,14_10_3.csv
2018-07-11T11:13:36.909311,1.666,-1.229,1.112,89.695,40.122,-46.463,14_10_3.csv
2018-07-11T11:13:36.954934,1.666,-1.229,1.112,5.366,-20.854,-70.671,14_10_3.csv
2018-07-11T11:13:37.004569,2.341,-1.582,1.021,-27.927,-57.927,-140.854,14_10_3.csv
2018-07-11T11:13:37.049191,2.341,-1.582,1.021,-29.024,-68.476,-265.366,14_10_3.csv
2018-07-11T11:13:37.096317,0.243,0.087,0.25,4.329,-66.28,-385.488,14_10_3.csv
2018-07-11T11:13:37.149465,-0.751,0.892,-0.246,356.829,-78.415,177.012,14_10_3.csv
2018-07-11T11:13:37.189572,-0.751,0.892,-0.246,473.11,-114.146,356.646,14_10_3.csv
2018-07-11T11:13:37.238709,-0.439,0.315,-0.081,296.037,-119.39,404.329,14_10_3.csv
2018-07-11T11:13:37.304889,-0.22,-0.065,0.375,291.463,-43.11,432.927,14_10_3.csv
2018-07-11T11:13:37.349008,-0.22,-0.065,0.375,345.305,43.963,452.012,14_10_3.csv
2018-07-11T11:13:37.421705,-0.64,-0.706,0.601,254.329,109.451,463.72,14_10_3.csv
2018-07-11T11:13:37.486878,-3.505,0.441,0.487,544.939,492.988,617.378,14_10_3.csv
2018-07-11T11:13:37.533503,-3.505,0.441,0.487,-167.195,509.756,228.72,14_10_3.csv
2018-07-11T11:13:37.658838,-0.541,-0.898,0.776,-158.72,61.037,29.756,14_10_3.csv
2018-07-11T11:13:37.706966,0.284,-0.114,0.354,-260.915,112.439,-40.0,14_10_3.csv
2018-07-11T11:13:37.753591,0.284,-0.114,0.354,-280.976,61.463,-79.939,14_10_3.csv
2018-07-11T11:13:37.879427,-0.203,-0.458,0.204,41.524,-86.768,-29.695,14_10_3.csv
2018-07-11T11:13:37.977690,-2.774,0.147,-0.322,35.671,-55.854,-1.22,14_10_3.csv
2018-07-11T11:13:38.034341,-2.985,-0.249,0.199,-277.317,-199.512,-27.195,14_10_3.csv
2018-07-11T11:13:38.079466,-2.985,-0.249,0.199,-25.915,62.134,25.732,14_10_3.csv
2018-07-11T11:13:38.127595,-1.011,-0.3,0.442,196.524,207.5,44.146,14_10_3.csv
2018-07-11T11:13:38.220850,0.236,-0.537,0.343,4.817,107.195,81.402,14_10_3.csv
2018-07-11T11:13:38.268980,-0.051,-0.475,0.14,89.268,33.659,-1.037,14_10_3.csv
2018-07-11T11:13:38.315105,-0.051,-0.475,0.14,65.732,-32.439,-24.573,14_10_3.csv
2018-07-11T11:13:38.441447,-1.293,-0.24,-0.062,63.78,-88.659,-91.463,14_10_3.csv
2018-07-11T11:13:38.510133,-3.471,-0.227,-0.023,-24.939,-217.195,-118.293,14_10_3.csv
2018-07-11T11:13:38.559766,-3.471,-0.227,-0.023,-161.707,-157.988,-100.732,14_10_3.csv
2018-07-11T11:13:38.612910,-1.73,-0.472,0.367,-176.646,42.744,-39.512,14_10_3.csv
2018-07-11T11:13:38.662041,-1.73,-0.472,0.367,-34.817,158.415,55.976,14_10_3.csv
2018-07-11T11:13:38.711177,-0.042,-0.426,0.309,7.683,39.939,125.976,14_10_3.csv
2018-07-11T11:13:38.756298,0.116,-0.521,0.32,-27.927,40.0,122.012,14_10_3.csv
2018-07-11T11:13:38.799420,0.116,-0.521,0.32,-47.561,12.256,86.768,14_10_3.csv
2018-07-11T11:13:38.904706,-0.14,-0.679,0.147,74.39,-6.951,3.537,14_10_3.csv
2018-07-11T11:13:38.963866,-0.217,-0.41,0.154,154.756,-1.829,-46.707,14_10_3.csv
2018-07-11T11:13:39.019016,-2.418,-0.188,-0.393,142.378,12.317,-37.988,14_10_3.csv
2018-07-11T11:13:39.066141,-2.418,-0.188,-0.393,89.329,-109.878,-31.707,14_10_3.csv
2018-07-11T11:13:39.117283,-3.14,-0.238,0.13,-94.939,-27.195,-36.585,14_10_3.csv
2018-07-11T11:13:39.186470,-1.007,-0.237,0.518,8.72,209.695,-35.244,14_10_3.csv
2018-07-11T11:13:39.249137,0.307,-0.168,0.217,-69.939,55.061,18.841,14_10_3.csv
2018-07-11T11:13:39.308295,0.307,-0.168,0.217,-33.598,36.037,14.878,14_10_3.csv
2018-07-11T11:13:39.365448,-0.026,-0.236,0.11,25.488,-36.463,-30.0,14_10_3.csv
2018-07-11T11:13:39.413075,-0.154,-0.163,0.249,12.866,-41.037,-38.963,14_10_3.csv
2018-07-11T11:13:39.485269,-0.919,-0.182,0.131,-16.89,-2.988,-70.244,14_10_3.csv
2018-07-11T11:13:39.582027,-3.358,-0.461,-0.477,-10.122,-64.268,47.012,14_10_3.csv
2018-07-11T11:13:39.627648,-3.358,-0.461,-0.477,-86.585,-233.476,131.829,14_10_3.csv
2018-07-11T11:13:39.674774,-2.153,-0.578,0.562,-46.646,188.903,198.598,14_10_3.csv
2018-07-11T11:13:39.730924,-0.209,-0.664,0.244,-57.622,155.854,182.927,14_10_3.csv
2018-07-11T11:13:39.787074,-0.209,-0.664,0.244,-50.366,28.415,134.695,14_10_3.csv
2018-07-11T11:13:39.835203,0.138,-0.634,-0.074,21.768,-56.098,21.646,14_10_3.csv
2018-07-11T11:13:39.880825,-0.07,-0.567,0.122,-39.451,-85.549,-22.866,14_10_3.csv
2018-07-11T11:13:39.928953,-0.07,-0.567,0.122,-64.329,-67.866,-59.268,14_10_3.csv
2018-07-11T11:13:39.977583,-0.364,-0.545,0.189,-21.159,-16.585,-96.89,14_10_3.csv
2018-07-11T11:13:40.035739,-3.281,-0.431,-0.443,201.89,76.707,-106.159,14_10_3.csv
2018-07-11T11:13:40.086374,-3.281,-0.431,-0.443,308.293,-24.39,-101.524,14_10_3.csv
2018-07-11T11:13:40.127985,-3.107,0.319,-0.001,197.378,-192.5,-128.598,14_10_3.csv
2018-07-11T11:13:40.176615,-3.107,0.319,-0.001,-23.293,-101.037,-161.707,14_10_3.csv
2018-07-11T11:13:40.236776,-0.51,-0.006,0.367,-71.707,37.134,-60.976,14_10_3.csv
