time,accel_x_list,accel_y_list,accel_z_list,gyro_x_list,gyro_y_list,gyro_z_list,filename
2018-07-11T11:12:17.050717,-0.97,-0.392,0.002,-10.183,-40.793,-188.049,14_10_2.csv
2018-07-11T11:12:17.096841,-0.97,-0.392,0.002,141.342,13.232,-150.366,14_10_2.csv
2018-07-11T11:12:17.149983,-0.782,-0.182,0.019,202.744,35.915,-107.073,14_10_2.csv
2018-07-11T11:12:17.211647,-0.782,-0.182,0.019,194.512,39.024,-61.829,14_10_2.csv
2018-07-11T11:12:17.260280,-0.754,-0.116,0.043,51.037,34.878,6.463,14_10_2.csv
2018-07-11T11:12:17.300387,-0.894,-0.211,0.07,-6.951,37.073,23.293,14_10_2.csv
2018-07-11T11:12:17.346514,-0.894,-0.211,0.07,-25.976,42.561,36.524,14_10_2.csv
2018-07-11T11:12:17.396648,-0.946,-0.3,0.098,-26.646,51.28,49.512,14_10_2.csv
2018-07-11T11:12:17.458818,-1.036,-0.425,0.055,-63.11,78.232,51.524,14_10_2.csv
2018-07-11T11:12:17.501933,-1.036,-0.425,0.055,-154.817,75.732,36.768,14_10_2.csv
2018-07-11T11:12:17.548059,-1.338,-0.869,-0.239,-200.732,45.732,41.098,14_10_2.csv
2018-07-11T11:12:17.842485,-0.62,-0.312,-0.041,43.232,-54.207,-21.037,14_10_2.csv
2018-07-11T11:12:17.895630,-0.864,-0.99,-0.192,-54.329,-89.268,-40.854,14_10_2.csv
2018-07-11T11:12:17.943759,-1.287,-1.194,-0.3,64.207,126.402,-204.451,14_10_2.csv
2018-07-11T11:12:17.996900,-1.287,-1.194,-0.3,117.683,145.244,-183.415,14_10_2.csv
2018-07-11T11:12:18.050544,-1.371,-0.81,0.243,156.524,70.305,-39.39,14_10_2.csv
2018-07-11T11:12:18.097169,-1.371,-0.81,0.243,34.268,89.207,73.354,14_10_2.csv
2018-07-11T11:12:18.150313,-1.265,-1.354,-0.037,-14.024,-17.988,-15.671,14_10_2.csv
2018-07-11T11:12:18.189417,0.485,0.515,-0.205,306.951,-84.695,-15.61,14_10_2.csv
2018-07-11T11:12:18.245571,0.485,0.515,-0.205,151.585,-8.354,33.11,14_10_2.csv
2018-07-11T11:12:18.332306,0.203,0.06,-0.021,36.768,54.634,60.488,14_10_2.csv
2018-07-11T11:12:18.385949,-0.209,-0.433,0.029,139.939,34.939,-4.695,14_10_2.csv
2018-07-11T11:12:18.459145,-0.609,-0.154,0.084,142.866,10.427,4.634,14_10_2.csv
2018-07-11T11:12:18.508276,-2.655,-1.642,0.445,22.439,11.89,7.195,14_10_2.csv
2018-07-11T11:12:18.564928,-2.655,-1.642,0.445,-50.854,0.793,-10.793,14_10_2.csv
2018-07-11T11:12:18.625592,-2.613,-2.138,1.136,39.268,-61.951,-31.402,14_10_2.csv
2018-07-11T11:12:18.679737,-0.229,-0.455,-0.215,74.329,-88.598,-15.305,14_10_2.csv
2018-07-11T11:12:18.727870,-0.229,-0.455,-0.215,79.146,-44.512,-32.561,14_10_2.csv
2018-07-11T11:12:18.767977,0.294,0.55,-0.161,56.22,-6.707,-29.817,14_10_2.csv
2018-07-11T11:12:18.814604,0.294,0.55,-0.161,2.988,22.134,-6.524,14_10_2.csv
2018-07-11T11:12:18.861729,-0.31,-0.003,0.333,-12.622,9.207,8.354,14_10_2.csv
2018-07-11T11:12:18.908356,-0.346,-0.315,0.276,-24.329,-63.963,-10.061,14_10_2.csv
2018-07-11T11:12:19.023165,-0.331,-1.048,-0.025,-157.866,-132.378,-125.854,14_10_2.csv
2018-07-11T11:12:19.066781,-0.438,-2.71,-0.827,-166.037,-54.268,-215.61,14_10_2.csv
2018-07-11T11:12:19.112904,-0.438,-2.71,-0.827,-73.598,79.024,-136.402,14_10_2.csv
2018-07-11T11:12:19.163540,-1.109,-2.735,0.798,-68.354,240.366,-15.488,14_10_2.csv
2018-07-11T11:12:19.209163,-1.109,-2.735,0.798,-129.573,517.927,152.195,14_10_2.csv
2018-07-11T11:12:19.253781,-0.742,-0.296,0.492,114.268,282.195,42.683,14_10_2.csv
2018-07-11T11:12:19.304416,-0.742,-0.296,0.492,187.805,-105.488,-77.561,14_10_2.csv
2018-07-11T11:12:19.364075,0.051,0.674,-0.361,33.171,-72.195,-20.061,14_10_2.csv
2018-07-11T11:12:19.424738,0.025,0.035,-0.202,-22.134,-136.402,21.951,14_10_2.csv
2018-07-11T11:12:19.472866,0.045,-0.12,0.038,-72.744,-85.061,-7.012,14_10_2.csv
2018-07-11T11:12:19.516483,0.045,-0.12,0.038,-10.793,-61.524,-19.146,14_10_2.csv
2018-07-11T11:12:19.565614,-0.032,-0.504,-0.226,-10.061,2.683,-3.78,14_10_2.csv
2018-07-11T11:12:19.622266,-0.032,-0.504,-0.226,-89.329,75.305,31.89,14_10_2.csv
2018-07-11T11:12:19.676410,-1.082,-4.24,-0.387,-41.22,102.622,188.293,14_10_2.csv
2018-07-11T11:12:19.725040,-0.768,-2.932,-0.421,104.817,14.512,50.732,14_10_2.csv
2018-07-11T11:12:19.771163,-0.768,-2.932,-0.421,68.293,-5.427,-11.037,14_10_2.csv
2018-07-11T11:12:19.815281,-0.148,0.174,-0.184,134.207,2.805,-35.671,14_10_2.csv
2018-07-11T11:12:19.865918,-0.148,0.174,-0.184,157.866,-13.476,-90.0,14_10_2.csv
2018-07-11T11:12:19.920064,-0.1,0.964,-0.019,-13.537,-48.11,16.037,14_10_2.csv
2018-07-11T11:12:19.977220,-0.167,-0.088,-0.008,-88.232,-52.439,55.366,14_10_2.csv
2018-07-11T11:12:20.018331,-0.167,-0.088,-0.008,-39.817,-52.012,26.341,14_10_2.csv
2018-07-11T11:12:20.065461,-0.086,-0.22,-0.032,-63.841,-84.512,-12.988,14_10_2.csv
2018-07-11T11:12:20.111584,-0.086,-0.22,-0.032,-134.695,-127.439,-43.232,14_10_2.csv
2018-07-11T11:12:20.174758,-0.251,-0.976,-0.197,-92.683,-150.244,-27.073,14_10_2.csv
2018-07-11T11:12:20.230409,-1.196,-3.71,-0.847,-117.256,-66.646,69.512,14_10_2.csv
2018-07-11T11:12:20.438465,0.124,0.332,0.122,23.537,11.707,-16.341,14_10_2.csv
2018-07-11T11:12:20.491607,0.124,0.332,0.122,17.439,39.939,10.427,14_10_2.csv
2018-07-11T11:12:20.550264,-0.151,-0.211,0.142,40.488,41.159,22.378,14_10_2.csv
2018-07-11T11:12:20.597390,-0.262,-0.303,-0.012,41.037,-3.293,4.024,14_10_2.csv
2018-07-11T11:12:20.644017,-0.262,-0.303,-0.012,-68.659,-19.451,-23.293,14_10_2.csv
2018-07-11T11:12:20.709193,-0.326,-1.656,-0.46,-61.707,4.451,-40.183,14_10_2.csv
2018-07-11T11:12:20.758275,-0.787,-3.18,-0.521,-58.598,-7.439,8.232,14_10_2.csv
2018-07-11T11:12:20.800388,-0.787,-3.18,-0.521,-71.768,-29.329,11.951,14_10_2.csv
2018-07-11T11:12:20.845513,-0.531,-1.916,0.039,-72.561,-36.22,6.951,14_10_2.csv
2018-07-11T11:12:20.897653,-0.531,-1.916,0.039,17.073,-32.805,-18.598,14_10_2.csv
2018-07-11T11:12:20.943780,0.016,0.552,0.084,137.5,-46.646,-46.646,14_10_2.csv
2018-07-11T11:12:20.988901,0.016,0.552,0.084,123.171,-65.122,-18.841,14_10_2.csv
2018-07-11T11:12:21.034024,-0.032,0.38,0.022,29.878,-44.207,24.756,14_10_2.csv
2018-07-11T11:12:21.095688,-0.147,-0.343,-0.041,-44.024,-21.646,12.256,14_10_2.csv
2018-07-11T11:12:21.149332,-0.147,-0.343,-0.041,8.232,-31.159,9.817,14_10_2.csv
2018-07-11T11:12:21.194455,-0.003,-0.102,0.009,49.817,-29.268,21.646,14_10_2.csv
2018-07-11T11:12:21.272669,-0.967,-2.711,0.02,-61.037,21.89,12.622,14_10_2.csv
2018-07-11T11:12:21.314782,-0.967,-2.711,0.02,-154.878,-3.841,-4.878,14_10_2.csv
2018-07-11T11:12:21.364917,-1.173,-3.617,-0.038,20.671,-66.768,-37.256,14_10_2.csv
2018-07-11T11:12:21.415053,-0.152,-0.619,-0.121,27.866,-59.939,-56.524,14_10_2.csv
2018-07-11T11:12:21.541393,-0.001,0.895,-0.085,23.902,-33.171,-15.854,14_10_2.csv
2018-07-11T11:12:21.599047,-0.156,0.026,0.023,-116.281,-28.841,16.646,14_10_2.csv
2018-07-11T11:12:21.648682,-0.034,-0.261,-0.009,-95.549,-25.671,-22.195,14_10_2.csv
2018-07-11T11:12:21.693802,-0.034,-0.261,-0.009,-43.354,-23.78,-30.976,14_10_2.csv
2018-07-11T11:12:21.740933,0.103,-0.662,-0.184,-26.524,-24.939,-40.854,14_10_2.csv
2018-07-11T11:12:21.939029,-0.331,-3.129,-0.168,12.561,-16.341,36.22,14_10_2.csv
2018-07-11T11:12:21.992172,-0.011,-0.44,-0.256,67.988,-2.256,-2.073,14_10_2.csv
2018-07-11T11:12:22.041306,-0.153,0.163,0.07,2.073,12.439,-39.024,14_10_2.csv
2018-07-11T11:12:22.175665,-0.153,0.163,0.07,-173.537,-10.488,44.085,14_10_2.csv
2018-07-11T11:12:22.225298,-0.076,-0.292,-0.169,-244.695,-13.049,16.159,14_10_2.csv
2018-07-11T11:12:22.267912,-0.076,-0.292,-0.169,-139.207,-33.232,-3.72,14_10_2.csv
2018-07-11T11:12:22.315540,0.096,-1.003,-0.577,5.61,-47.744,-20.061,14_10_2.csv
2018-07-11T11:12:22.371188,-0.39,-3.016,-1.377,-3.537,49.878,16.098,14_10_2.csv
2018-07-11T11:12:22.412799,-0.39,-3.016,-1.377,-13.049,25.0,2.256,14_10_2.csv
2018-07-11T11:12:22.472458,-0.11,-2.372,-0.995,39.878,15.549,-3.537,14_10_2.csv
2018-07-11T11:12:22.518582,-0.11,-2.372,-0.995,4.878,12.866,8.537,14_10_2.csv
2018-07-11T11:12:22.582252,-0.028,-0.211,-0.258,84.634,69.329,-0.366,14_10_2.csv
2018-07-11T11:12:22.634391,-0.17,0.587,0.263,55.183,17.927,-30.061,14_10_2.csv
2018-07-11T11:12:22.678509,-0.17,0.587,0.263,29.939,-10.0,5.793,14_10_2.csv
2018-07-11T11:12:22.726136,-0.18,0.232,-0.021,-186.646,-11.951,74.756,14_10_2.csv
2018-07-11T11:12:22.772761,-0.13,-0.347,-0.145,-155.122,-31.524,55.488,14_10_2.csv
2018-07-11T11:12:22.815374,-0.13,-0.347,-0.145,-49.451,-21.646,26.402,14_10_2.csv
2018-07-11T11:12:22.878042,-0.244,-1.413,-0.819,59.634,7.134,4.512,14_10_2.csv
2018-07-11T11:12:22.983825,-0.745,-3.048,-1.529,-10.244,30.366,-14.329,14_10_2.csv
2018-07-11T11:12:23.065543,-0.311,-1.724,-0.933,64.207,37.073,1.463,14_10_2.csv
2018-07-11T11:12:23.169821,-0.152,0.589,0.161,36.89,-1.037,-50.183,14_10_2.csv
2018-07-11T11:12:23.292148,-0.102,0.073,0.097,-257.927,-61.159,-38.659,14_10_2.csv
2018-07-11T11:12:23.344789,-0.071,0.017,-0.33,-489.268,-60.061,-121.037,14_10_2.csv
2018-07-11T11:12:23.393419,-0.071,0.017,-0.33,-604.573,-73.232,-141.951,14_10_2.csv
2018-07-11T11:12:23.474135,-0.479,0.005,-2.455,-73.902,-98.171,-26.707,14_10_2.csv
2018-07-11T11:12:23.524269,-0.411,0.187,-3.251,-70.854,-60.976,-13.598,14_10_2.csv
2018-07-11T11:12:23.583426,-0.031,0.124,-1.493,28.659,47.866,-23.598,14_10_2.csv
2018-07-11T11:12:23.632558,-0.031,0.124,-1.493,96.585,109.573,27.927,14_10_2.csv
2018-07-11T11:12:23.691716,-0.188,-0.072,0.015,433.598,87.378,64.085,14_10_2.csv
2018-07-11T11:12:23.738341,-0.302,0.66,0.34,400.244,90.671,27.439,14_10_2.csv
2018-07-11T11:12:23.782458,-0.302,0.66,0.34,149.39,21.524,41.524,14_10_2.csv
2018-07-11T11:12:23.830587,-0.103,0.101,0.205,-91.524,-62.988,36.829,14_10_2.csv
2018-07-11T11:12:23.877211,-0.103,0.101,0.205,-140.366,-80.122,23.659,14_10_2.csv
2018-07-11T11:12:23.925340,0.047,-0.338,-0.544,-25.732,-52.317,51.159,14_10_2.csv
2018-07-11T11:12:23.978983,-0.465,-2.283,-2.141,37.805,67.805,86.037,14_10_2.csv
2018-07-11T11:12:24.037640,-0.465,-2.283,-2.141,1.768,-17.195,43.049,14_10_2.csv
2018-07-11T11:12:24.081758,-0.533,-2.329,-1.872,61.037,-16.768,-28.841,14_10_2.csv
2018-07-11T11:12:24.132894,-0.046,-0.434,-0.457,80.854,-0.305,-36.951,14_10_2.csv
2018-07-11T11:12:24.173503,-0.046,-0.434,-0.457,130.671,11.159,-12.073,14_10_2.csv
2018-07-11T11:12:24.240181,-0.119,0.695,0.314,133.659,41.707,-17.988,14_10_2.csv
2018-07-11T11:12:24.297835,-0.134,0.33,0.158,-45.305,-22.744,7.866,14_10_2.csv
2018-07-11T11:12:24.381559,-0.108,-0.235,-0.234,-171.403,-35.915,15.305,14_10_2.csv
2018-07-11T11:12:24.532462,-0.152,-1.191,-1.23,51.28,-18.293,5.061,14_10_2.csv
2018-07-11T11:12:24.581092,-0.328,-2.634,-1.965,51.585,45.061,-27.134,14_10_2.csv
2018-07-11T11:12:24.627215,-0.249,-1.717,-1.188,133.598,2.378,-27.012,14_10_2.csv
2018-07-11T11:12:24.674343,-0.249,-1.717,-1.188,120.0,22.256,-4.817,14_10_2.csv
2018-07-11T11:12:24.728488,-0.058,0.166,-0.245,152.622,41.28,26.402,14_10_2.csv
2018-07-11T11:12:24.768601,-0.058,0.166,-0.245,130.0,76.585,31.28,14_10_2.csv
2018-07-11T11:12:24.813722,-0.022,0.485,0.326,44.085,51.463,24.756,14_10_2.csv
2018-07-11T11:12:24.863860,-0.025,-0.077,-0.088,-57.012,28.841,39.146,14_10_2.csv
2018-07-11T11:12:24.907978,-0.025,-0.077,-0.088,-44.146,51.098,34.024,14_10_2.csv
2018-07-11T11:12:24.955607,-0.28,-0.241,-0.108,-29.207,46.098,23.598,14_10_2.csv
2018-07-11T11:12:25.013763,-0.28,-0.241,-0.108,-15.61,17.744,16.159,14_10_2.csv
2018-07-11T11:12:25.081443,-0.451,-1.693,-0.788,-21.524,-37.622,30.427,14_10_2.csv
2018-07-11T11:12:25.130575,-0.646,-2.911,-1.302,-8.293,8.902,21.646,14_10_2.csv
2018-07-11T11:12:25.191239,-0.278,-1.939,-0.835,13.659,-42.622,-54.817,14_10_2.csv
2018-07-11T11:12:25.235361,-0.278,-1.939,-0.835,73.72,-6.646,-50.671,14_10_2.csv
2018-07-11T11:12:25.282487,-0.217,0.192,-0.042,71.89,1.524,-44.817,14_10_2.csv
2018-07-11T11:12:25.343151,-0.015,0.503,0.194,-3.537,-11.159,-9.939,14_10_2.csv
2018-07-11T11:12:25.417853,-0.015,0.503,0.194,-52.378,-29.939,1.524,14_10_2.csv
2018-07-11T11:12:25.462979,0.021,-0.123,-0.084,-35.244,5.488,11.098,14_10_2.csv
2018-07-11T11:12:25.508099,-0.212,-0.047,-0.012,-0.488,-9.878,14.268,14_10_2.csv
2018-07-11T11:12:25.556235,-0.212,-0.047,-0.012,-25.671,-20.183,11.585,14_10_2.csv
2018-07-11T11:12:25.597343,-0.244,-1.591,-0.768,-4.573,-32.866,1.89,14_10_2.csv
2018-07-11T11:12:25.650489,-0.244,-1.591,-0.768,7.012,-37.744,38.963,14_10_2.csv
2018-07-11T11:12:25.704634,-0.685,-3.263,-1.331,78.537,-11.585,-23.049,14_10_2.csv
2018-07-11T11:12:25.761789,-0.307,-1.857,-0.688,69.451,-18.049,-28.293,14_10_2.csv
2018-07-11T11:12:25.818941,-0.307,-1.857,-0.688,80.549,-7.561,-37.622,14_10_2.csv
2018-07-11T11:12:25.893140,-0.038,0.26,-0.019,24.146,33.232,-16.585,14_10_2.csv
2018-07-11T11:12:25.940266,0.021,0.452,0.183,28.598,21.28,-7.195,14_10_2.csv
2018-07-11T11:12:25.997920,-0.049,-0.073,-0.105,-48.902,33.963,35.305,14_10_2.csv
2018-07-11T11:12:26.049558,-0.049,-0.073,-0.105,-48.11,49.756,33.598,14_10_2.csv
2018-07-11T11:12:26.096686,-0.207,-0.247,-0.066,-17.683,40.427,24.756,14_10_2.csv
2018-07-11T11:12:26.147822,-0.451,-1.874,-0.852,-48.78,12.866,30.549,14_10_2.csv
2018-07-11T11:12:26.189939,-0.451,-1.874,-0.852,4.085,-0.366,31.098,14_10_2.csv
2018-07-11T11:12:26.242079,-0.619,-2.833,-0.878,-4.634,47.805,11.28,14_10_2.csv
2018-07-11T11:12:26.291215,-0.619,-2.833,-0.878,-22.805,-23.659,-19.085,14_10_2.csv
2018-07-11T11:12:26.331322,-0.382,-1.957,-0.717,58.171,-4.573,-21.707,14_10_2.csv
2018-07-11T11:12:26.381460,-0.382,-1.957,-0.717,78.659,16.585,-19.146,14_10_2.csv
2018-07-11T11:12:26.424575,-0.225,-0.104,-0.132,30.0,3.049,-12.378,14_10_2.csv
2018-07-11T11:12:26.475213,0.073,0.467,0.05,9.512,-5.061,-7.256,14_10_2.csv
2018-07-11T11:12:26.534875,0.073,0.467,0.05,-14.756,-5.427,10.549,14_10_2.csv
2018-07-11T11:12:26.600053,-0.077,-0.063,0.034,-32.805,5.61,-5.488,14_10_2.csv
2018-07-11T11:12:26.644172,-0.104,0.01,0.059,-22.927,-16.951,-8.841,14_10_2.csv
2018-07-11T11:12:26.688294,-0.104,0.01,0.059,-29.817,-13.293,5.427,14_10_2.csv
2018-07-11T11:12:26.737425,-0.116,-1.272,-0.57,-39.268,-9.268,16.524,14_10_2.csv
2018-07-11T11:12:26.782548,-0.116,-1.272,-0.57,-54.756,-11.89,26.402,14_10_2.csv
2018-07-11T11:12:26.830175,-0.667,-3.193,-1.066,47.5,35.732,13.293,14_10_2.csv
2018-07-11T11:12:26.882818,-0.377,-2.433,-0.721,11.402,2.805,2.195,14_10_2.csv
2018-07-11T11:12:27.019184,-0.132,-0.171,-0.222,57.622,32.683,-8.232,14_10_2.csv
2018-07-11T11:12:27.081851,-0.014,0.517,0.091,-0.732,15.976,3.902,14_10_2.csv
2018-07-11T11:12:27.132487,-0.007,-0.091,0.026,-57.378,12.378,4.878,14_10_2.csv
2018-07-11T11:12:27.300435,-0.25,-1.242,-0.516,-44.451,15.244,18.537,14_10_2.csv
2018-07-11T11:12:27.346558,-0.25,-1.242,-0.516,-50.488,-4.085,27.622,14_10_2.csv
2018-07-11T11:12:27.515575,-0.251,-0.71,-0.251,82.195,-3.171,-20.305,14_10_2.csv
2018-07-11T11:12:27.580749,-0.251,-0.71,-0.251,55.549,8.902,-11.402,14_10_2.csv
2018-07-11T11:12:27.627374,-0.073,0.476,0.132,34.085,1.098,-7.134,14_10_2.csv
2018-07-11T11:12:27.675504,0.044,0.136,0.035,-22.622,-12.378,8.11,14_10_2.csv
2018-07-11T11:12:27.720626,0.044,0.136,0.035,-42.012,-9.695,8.659,14_10_2.csv
2018-07-11T11:12:27.766753,-0.071,-0.099,-0.086,-31.037,-10.976,-4.268,14_10_2.csv
2018-07-11T11:12:27.821900,-0.071,-0.099,-0.086,-30.061,-11.524,-1.28,14_10_2.csv
2018-07-11T11:12:27.883652,-0.288,-1.126,-0.396,-54.695,-17.134,11.768,14_10_2.csv
2018-07-11T11:12:27.929775,-0.667,-2.903,-0.779,3.78,-22.988,3.293,14_10_2.csv
2018-07-11T11:12:27.973898,-0.667,-2.903,-0.779,5.793,-15.671,-27.195,14_10_2.csv
2018-07-11T11:12:28.021024,-0.332,-2.605,-0.707,-19.939,-25.427,-23.72,14_10_2.csv
2018-07-11T11:12:28.064643,-0.332,-2.605,-0.707,52.805,2.195,-20.244,14_10_2.csv
2018-07-11T11:12:28.133829,-0.148,-0.375,-0.271,78.963,24.085,-29.451,14_10_2.csv
2018-07-11T11:12:28.175440,-0.059,0.597,0.155,69.451,9.756,-19.756,14_10_2.csv
2018-07-11T11:12:28.230086,-0.059,0.597,0.155,37.195,-5.305,-10.854,14_10_2.csv
2018-07-11T11:12:28.271195,-0.048,0.042,-0.026,-22.683,7.378,6.159,14_10_2.csv
2018-07-11T11:12:28.329351,-0.114,-1.318,0.201,14.695,31.22,-0.915,14_10_2.csv
2018-07-11T11:12:28.381490,-0.114,-1.318,0.201,182.195,-21.402,-57.988,14_10_2.csv
2018-07-11T11:12:28.451678,0.723,-2.914,0.354,53.72,-43.659,-337.378,14_10_2.csv
2018-07-11T11:12:28.507828,0.865,-2.224,-0.376,174.878,74.695,-417.561,14_10_2.csv
2018-07-11T11:12:28.549941,0.865,-2.224,-0.376,131.098,79.695,-398.232,14_10_2.csv
2018-07-11T11:12:28.623637,0.431,-0.831,0.386,2.134,230.549,-221.098,14_10_2.csv
2018-07-11T11:12:28.678785,-0.318,0.069,0.613,70.549,42.805,-162.134,14_10_2.csv
2018-07-11T11:12:28.724907,-0.224,0.247,-0.188,60.61,74.207,-111.646,14_10_2.csv
2018-07-11T11:12:28.775543,-0.224,0.247,-0.188,122.744,84.756,-89.939,14_10_2.csv
2018-07-11T11:12:28.832194,-0.138,0.034,0.099,47.5,74.207,-91.951,14_10_2.csv
2018-07-11T11:12:28.926446,0.376,0.18,0.706,193.72,66.768,-85.915,14_10_2.csv
2018-07-11T11:12:28.984100,0.746,1.242,1.35,154.146,93.963,-84.695,14_10_2.csv
2018-07-11T11:12:29.064314,0.527,1.715,1.697,41.098,48.537,-51.463,14_10_2.csv
2018-07-11T11:12:29.127483,0.27,1.303,1.138,29.268,53.049,-10.244,14_10_2.csv
2018-07-11T11:12:29.180627,0.27,1.303,1.138,18.232,62.439,-19.878,14_10_2.csv
2018-07-11T11:12:29.221735,0.015,0.358,0.321,32.012,60.549,-12.012,14_10_2.csv
2018-07-11T11:12:29.267357,0.015,0.358,0.321,-5.0,37.439,-15.183,14_10_2.csv
2018-07-11T11:12:29.317491,-0.154,-0.111,-0.162,48.841,35.915,-25.915,14_10_2.csv
2018-07-11T11:12:29.362110,-0.104,-0.049,0.035,-54.756,-1.951,-21.22,14_10_2.csv
2018-07-11T11:12:29.409738,-0.104,-0.049,0.035,-50.793,-5.427,11.037,14_10_2.csv
2018-07-11T11:12:29.458868,0.038,0.159,0.344,-9.817,16.646,13.72,14_10_2.csv
2018-07-11T11:12:29.542592,-0.165,1.46,1.11,27.378,24.39,-24.756,14_10_2.csv
2018-07-11T11:12:29.597238,-0.165,1.46,1.11,28.415,-7.378,-21.646,14_10_2.csv
2018-07-11T11:12:29.644865,-0.198,2.228,1.705,60.122,-10.0,-3.598,14_10_2.csv
2018-07-11T11:12:29.711543,-0.08,1.531,1.172,53.72,32.439,8.537,14_10_2.csv
2018-07-11T11:12:29.759171,-0.08,1.531,1.172,29.573,59.756,3.415,14_10_2.csv
2018-07-11T11:12:29.806798,-0.02,0.275,0.053,87.622,15.244,-10.915,14_10_2.csv
2018-07-11T11:12:29.852921,-0.145,-0.114,0.084,52.012,9.146,7.439,14_10_2.csv
2018-07-11T11:12:29.912581,-0.145,-0.114,0.084,17.195,-15.0,21.402,14_10_2.csv
2018-07-11T11:12:30.029393,0.001,0.336,0.132,31.89,-9.817,30.488,14_10_2.csv
2018-07-11T11:12:30.098077,0.083,1.92,0.711,25.061,-37.134,20.61,14_10_2.csv
2018-07-11T11:12:30.154728,0.083,1.92,0.711,9.512,-42.439,13.659,14_10_2.csv
2018-07-11T11:12:30.221406,0.154,2.495,1.044,-47.439,-15.793,20.61,14_10_2.csv
2018-07-11T11:12:30.276553,0.078,1.413,0.848,-89.756,-0.061,13.78,14_10_2.csv
2018-07-11T11:12:30.391360,-0.459,-0.011,0.226,-229.878,-58.78,63.659,14_10_2.csv
2018-07-11T11:12:30.461048,-0.643,-0.837,-0.078,190.122,-264.451,115.732,14_10_2.csv
2018-07-11T11:12:30.506668,0.058,0.469,-0.625,152.134,-309.085,76.402,14_10_2.csv
2018-07-11T11:12:30.549783,0.058,0.469,-0.625,-139.39,-299.451,-30.976,14_10_2.csv
2018-07-11T11:12:30.601421,0.316,1.538,0.329,-472.744,-175.244,-79.817,14_10_2.csv
2018-07-11T11:12:30.648045,0.69,1.549,-0.209,-290.488,-302.866,218.963,14_10_2.csv
2018-07-11T11:12:30.755332,1.011,-1.221,-2.665,-475.976,-555.61,252.256,14_10_2.csv
2018-07-11T11:12:30.814991,0.802,-1.807,-1.924,160.915,-398.11,188.72,14_10_2.csv
2018-07-11T11:12:30.861115,0.802,-1.807,-1.924,342.317,-243.415,233.537,14_10_2.csv
2018-07-11T11:12:30.909745,-0.104,-0.622,-0.204,344.512,-104.573,248.598,14_10_2.csv
2018-07-11T11:12:30.955367,-0.104,-0.622,-0.204,105.0,-10.915,114.817,14_10_2.csv
2018-07-11T11:12:31.001991,-0.154,0.275,0.307,7.927,-148.842,0.488,14_10_2.csv
2018-07-11T11:12:31.063733,0.132,0.161,-0.064,64.512,-150.366,67.622,14_10_2.csv
2018-07-11T11:12:31.115371,0.132,0.161,-0.064,89.268,-127.378,139.024,14_10_2.csv
2018-07-11T11:12:31.159990,-0.281,-0.85,-0.41,101.281,23.963,173.537,14_10_2.csv
2018-07-11T11:12:31.210625,-1.619,-2.623,-1.028,-18.049,71.463,-4.939,14_10_2.csv
2018-07-11T11:12:31.257752,-1.619,-2.623,-1.028,4.939,-9.268,4.329,14_10_2.csv
2018-07-11T11:12:31.345987,-1.454,-2.592,-0.829,93.659,-42.256,-58.232,14_10_2.csv
2018-07-11T11:12:31.398126,-0.164,-0.228,-0.143,86.159,-40.0,-49.878,14_10_2.csv
2018-07-11T11:12:31.446255,-0.164,-0.228,-0.143,109.634,-22.561,-47.256,14_10_2.csv
2018-07-11T11:12:31.491376,0.09,0.665,0.169,13.354,-16.707,30.732,14_10_2.csv
2018-07-11T11:12:31.540506,-0.054,-0.288,-0.015,-47.439,-12.012,36.524,14_10_2.csv
2018-07-11T11:12:31.580613,-0.054,-0.288,-0.015,-24.451,-28.354,39.451,14_10_2.csv
2018-07-11T11:12:31.631750,-0.104,-0.517,-0.139,66.037,-22.866,36.89,14_10_2.csv
2018-07-11T11:12:31.714973,-0.729,-1.041,-0.165,134.756,23.415,1.707,14_10_2.csv
2018-07-11T11:12:31.786664,-2.449,-2.205,1.107,86.037,0.854,57.317,14_10_2.csv
2018-07-11T11:12:31.831785,-2.449,-2.205,1.107,1.89,-38.659,35.122,14_10_2.csv
2018-07-11T11:12:31.879412,-0.87,-1.651,0.591,-89.451,-74.512,-25.915,14_10_2.csv
2018-07-11T11:12:31.924031,-0.87,-1.651,0.591,-30.427,-63.78,-37.378,14_10_2.csv
2018-07-11T11:12:31.975669,0.271,0.266,-0.281,15.061,-60.244,-17.5,14_10_2.csv
2018-07-11T11:12:32.035371,-0.014,0.395,0.056,-32.622,-34.451,13.598,14_10_2.csv
2018-07-11T11:12:32.079989,-0.014,0.395,0.056,-97.805,-17.317,28.354,14_10_2.csv
2018-07-11T11:12:32.127116,-0.219,-0.339,-0.105,-93.902,-22.256,21.22,14_10_2.csv
2018-07-11T11:12:32.175746,-0.307,-0.657,0.096,4.878,-10.305,9.512,14_10_2.csv
2018-07-11T11:12:32.221367,-0.307,-0.657,0.096,20.122,3.902,17.988,14_10_2.csv
2018-07-11T11:12:32.267491,-1.564,-2.228,0.729,5.488,9.878,16.463,14_10_2.csv
2018-07-11T11:12:32.322638,-1.564,-2.228,0.729,18.232,-38.11,11.341,14_10_2.csv
2018-07-11T11:12:32.382298,-1.427,-2.25,0.877,-55.0,-61.646,20.244,14_10_2.csv
2018-07-11T11:12:32.428421,-0.282,-0.895,0.109,-4.024,-56.768,-9.939,14_10_2.csv
2018-07-11T11:12:32.474042,-0.282,-0.895,0.109,58.72,-59.451,-20.366,14_10_2.csv
2018-07-11T11:12:32.523174,0.171,0.52,-0.129,50.915,-41.098,-11.037,14_10_2.csv
2018-07-11T11:12:32.564284,0.171,0.52,-0.129,11.159,-14.634,4.268,14_10_2.csv
2018-07-11T11:12:32.635975,-0.004,0.075,-0.061,-52.439,7.439,13.659,14_10_2.csv
2018-07-11T11:12:32.767830,-0.514,-1.094,0.137,-118.415,27.073,-44.146,14_10_2.csv
2018-07-11T11:12:32.815961,-1.297,-3.026,0.005,-210.244,75.488,-11.646,14_10_2.csv
2018-07-11T11:12:32.862085,-1.297,-3.026,0.005,-112.5,9.39,-4.085,14_10_2.csv
2018-07-11T11:12:32.909211,-0.803,-2.149,-0.446,-26.098,-18.354,-7.317,14_10_2.csv
2018-07-11T11:12:32.963360,-0.803,-2.149,-0.446,-11.585,-26.28,-4.268,14_10_2.csv
2018-07-11T11:12:33.014500,-0.194,-0.371,-0.24,3.78,-7.012,-11.829,14_10_2.csv
2018-07-11T11:12:33.144351,-0.063,-0.018,0.05,-44.817,10.671,23.598,14_10_2.csv
2018-07-11T11:12:33.222560,-0.132,-0.238,-0.104,5.122,9.268,9.024,14_10_2.csv
2018-07-11T11:12:33.300768,-0.825,-1.751,-0.555,-48.841,49.512,27.561,14_10_2.csv
2018-07-11T11:12:33.363937,-0.825,-1.751,-0.555,-48.72,44.634,49.39,14_10_2.csv
2018-07-11T11:12:33.422594,-1.431,-2.653,-0.528,-8.963,40.671,2.073,14_10_2.csv
2018-07-11T11:12:33.478745,-0.707,-1.806,-0.447,36.646,3.598,-11.646,14_10_2.csv
2018-07-11T11:12:33.540412,-0.083,0.308,-0.103,106.951,-4.512,-33.171,14_10_2.csv
2018-07-11T11:12:33.581023,-0.083,0.308,-0.103,76.28,1.707,-21.22,14_10_2.csv
2018-07-11T11:12:33.629154,-0.035,0.517,0.082,29.939,3.963,-0.61,14_10_2.csv
2018-07-11T11:12:33.691885,-0.035,0.517,0.082,-2.439,-4.268,27.805,14_10_2.csv
2018-07-11T11:12:33.767090,-0.121,-0.055,-0.067,17.805,-21.951,46.402,14_10_2.csv
2018-07-11T11:12:33.818226,-0.285,-0.621,-0.166,-40.915,18.72,38.293,14_10_2.csv
2018-07-11T11:12:33.866858,-1.175,-2.265,-0.119,67.744,34.085,-13.354,14_10_2.csv
2018-07-11T11:12:33.915488,-1.175,-2.265,-0.119,-30.366,-39.878,-53.476,14_10_2.csv
2018-07-11T11:12:33.966624,-1.266,-3.062,-0.145,-149.268,-47.805,-92.622,14_10_2.csv
2018-07-11T11:12:34.168898,0.023,0.296,-0.209,43.476,27.805,-68.049,14_10_2.csv
2018-07-11T11:12:34.266162,-0.105,0.393,-0.059,-42.195,2.988,10.854,14_10_2.csv
2018-07-11T11:12:34.330335,-0.105,0.393,-0.059,-91.098,-20.0,16.951,14_10_2.csv
2018-07-11T11:12:34.385484,-0.294,-0.728,0.133,-180.0,-40.793,6.646,14_10_2.csv
2018-07-11T11:12:34.433615,-0.512,-2.236,-0.818,-52.561,-40.671,53.902,14_10_2.csv
2018-07-11T11:12:34.506813,-0.309,-2.518,-1.182,-129.756,-13.354,31.402,14_10_2.csv
2018-07-11T11:12:34.824164,-0.003,0.024,0.279,55.427,-18.11,8.537,14_10_2.csv
2018-07-11T11:12:34.887333,-0.071,-0.013,0.089,-29.39,-39.146,1.463,14_10_2.csv
2018-07-11T11:12:34.947494,-0.225,-0.065,-0.533,-7.073,-27.134,26.585,14_10_2.csv
2018-07-11T11:12:34.996625,-0.922,-0.664,-2.241,-54.756,-59.512,32.5,14_10_2.csv
2018-07-11T11:12:35.056786,-0.922,-0.664,-2.241,-72.134,-44.39,37.012,14_10_2.csv
2018-07-11T11:12:35.103912,-0.88,-1.143,-2.54,-25.976,43.11,-4.695,14_10_2.csv
2018-07-11T11:12:35.235263,-0.042,0.114,0.047,121.342,85.793,28.72,14_10_2.csv
2018-07-11T11:12:35.304448,-0.042,0.114,0.047,151.342,67.683,32.073,14_10_2.csv
2018-07-11T11:12:35.369622,-0.152,0.166,0.274,94.024,3.963,89.329,14_10_2.csv
2018-07-11T11:12:35.494455,-0.338,-0.323,-0.572,25.793,-56.159,49.573,14_10_2.csv
2018-07-11T11:12:35.554616,-1.207,-1.447,-2.129,-93.78,-22.622,111.89,14_10_2.csv
2018-07-11T11:12:35.601240,-1.207,-1.447,-2.129,-77.134,-11.463,58.963,14_10_2.csv
2018-07-11T11:12:35.645859,-1.187,-1.295,-2.225,8.232,46.646,-27.317,14_10_2.csv
2018-07-11T11:12:35.707524,-1.187,-1.295,-2.225,70.305,53.537,-25.183,14_10_2.csv
2018-07-11T11:12:35.770693,-0.384,-0.109,-0.664,150.244,82.683,29.329,14_10_2.csv
2018-07-11T11:12:35.817318,0.021,0.25,0.28,172.134,90.061,27.927,14_10_2.csv
2018-07-11T11:12:35.921596,-0.083,0.361,0.248,-9.085,24.268,47.927,14_10_2.csv
2018-07-11T11:12:35.985768,-0.248,-0.071,-0.262,-90.732,-9.573,38.049,14_10_2.csv
2018-07-11T11:12:36.044425,-1.048,-1.423,-1.278,-41.768,-60.976,3.415,14_10_2.csv
2018-07-11T11:12:36.118623,-1.543,-2.637,-2.054,0.061,-1.707,57.195,14_10_2.csv
2018-07-11T11:12:36.170261,-1.543,-2.637,-2.054,148.354,56.463,-27.744,14_10_2.csv
2018-07-11T11:12:36.227915,-0.381,-0.485,-0.708,347.683,64.451,-30.0,14_10_2.csv
2018-07-11T11:12:36.279051,0.125,0.675,0.332,115.061,42.561,-71.829,14_10_2.csv
2018-07-11T11:12:36.335703,0.125,0.675,0.332,64.39,75.488,-29.268,14_10_2.csv
2018-07-11T11:12:36.391853,-0.132,0.398,0.084,23.11,54.329,51.098,14_10_2.csv
2018-07-11T11:12:36.444493,-0.217,-0.396,-0.186,-106.098,15.183,82.683,14_10_2.csv
2018-07-11T11:12:36.490616,-0.217,-0.396,-0.186,20.305,8.476,41.098,14_10_2.csv
2018-07-11T11:12:36.539246,-0.628,-1.037,-0.409,64.512,15.61,8.659,14_10_2.csv
2018-07-11T11:12:36.661076,-1.74,-2.98,-0.995,18.963,23.841,15.915,14_10_2.csv
2018-07-11T11:12:36.720736,-0.95,-1.873,-0.71,72.744,-57.805,-56.098,14_10_2.csv
2018-07-11T11:12:36.795936,0.049,0.261,-0.067,93.659,8.11,-36.707,14_10_2.csv
2018-07-11T11:12:36.867628,0.026,0.652,0.176,74.329,-1.951,-25.0,14_10_2.csv
2018-07-11T11:12:36.924781,-0.105,-0.009,-0.121,-96.768,3.171,36.89,14_10_2.csv
2018-07-11T11:12:36.975418,-0.105,-0.009,-0.121,-69.878,18.049,33.78,14_10_2.csv
2018-07-11T11:12:37.017027,-0.305,-0.59,-0.143,-17.988,20.549,22.5,14_10_2.csv
2018-07-11T11:12:37.163424,-1.401,-2.769,-0.524,10.244,22.866,5.61,14_10_2.csv
2018-07-11T11:12:37.205536,-1.401,-2.769,-0.524,25.0,1.89,-16.585,14_10_2.csv
2018-07-11T11:12:37.252666,-0.458,-1.001,-0.479,21.707,-10.183,-24.024,14_10_2.csv
2018-07-11T11:12:37.305809,-0.458,-1.001,-0.479,54.573,5.366,-26.89,14_10_2.csv
2018-07-11T11:12:37.378005,0.03,0.425,0.013,75.244,36.768,-20.427,14_10_2.csv
2018-07-11T11:12:37.424129,-0.037,0.506,0.108,52.683,24.39,0.061,14_10_2.csv
2018-07-11T11:12:37.471260,-0.037,0.506,0.108,-45.061,11.402,31.463,14_10_2.csv
2018-07-11T11:12:37.517383,-0.155,-0.259,-0.102,-71.28,16.585,49.024,14_10_2.csv
2018-07-11T11:12:37.563510,-0.461,-0.867,-0.177,54.634,36.28,10.305,14_10_2.csv
2018-07-11T11:12:37.615650,-0.461,-0.867,-0.177,58.232,26.585,18.476,14_10_2.csv
2018-07-11T11:12:37.658769,-1.473,-2.625,-0.481,-32.683,16.89,39.146,14_10_2.csv
2018-07-11T11:12:37.704892,-1.473,-2.625,-0.481,-7.561,12.256,1.829,14_10_2.csv
2018-07-11T11:12:37.753026,-1.238,-2.23,-0.315,50.183,14.512,-12.744,14_10_2.csv
2018-07-11T11:12:37.798147,-1.238,-2.23,-0.315,17.988,-6.89,0.732,14_10_2.csv
2018-07-11T11:12:37.845776,-0.339,-0.537,-0.202,45.427,-17.805,-16.585,14_10_2.csv
2018-07-11T11:12:37.898419,0.071,0.444,0.073,54.329,5.915,-23.902,14_10_2.csv
2018-07-11T11:12:37.940534,0.071,0.444,0.073,49.756,10.732,-25.671,14_10_2.csv
2018-07-11T11:12:37.987662,-0.054,0.242,0.021,-3.963,-0.183,4.39,14_10_2.csv
2018-07-11T11:12:38.054343,-0.135,-0.335,0.015,-58.11,12.195,20.61,14_10_2.csv
2018-07-11T11:12:38.095453,-0.135,-0.335,0.015,0.061,7.988,-2.012,14_10_2.csv
2018-07-11T11:12:38.172659,-0.752,-1.437,-0.24,-35.915,12.805,39.268,14_10_2.csv
2018-07-11T11:12:38.226302,-1.465,-2.701,-0.288,-13.476,-8.598,18.049,14_10_2.csv
2018-07-11T11:12:38.268415,-1.465,-2.701,-0.288,33.354,23.293,-20.0,14_10_2.csv
2018-07-11T11:12:38.334594,-0.926,-1.898,-0.163,26.951,-4.573,2.134,14_10_2.csv
2018-07-11T11:12:38.382723,-0.2,-0.21,-0.14,40.671,-6.951,-12.195,14_10_2.csv
2018-07-11T11:12:38.427848,-0.2,-0.21,-0.14,28.354,11.098,-16.28,14_10_2.csv
2018-07-11T11:12:38.475976,0.082,0.494,0.028,28.171,26.89,-17.744,14_10_2.csv
2018-07-11T11:12:38.528121,-0.169,0.115,0.028,-22.256,7.195,22.622,14_10_2.csv
2018-07-11T11:12:38.595300,-0.169,0.115,0.028,-57.195,6.341,33.354,14_10_2.csv
2018-07-11T11:12:38.643433,-0.187,-0.48,-0.051,-38.232,10.732,17.256,14_10_2.csv
2018-07-11T11:12:38.691561,-1.149,-1.716,-0.22,33.171,41.707,27.256,14_10_2.csv
2018-07-11T11:12:38.737689,-1.149,-1.716,-0.22,3.659,38.293,40.061,14_10_2.csv
2018-07-11T11:12:38.783812,-1.503,-2.708,-0.117,-44.451,8.354,4.085,14_10_2.csv
2018-07-11T11:12:38.854004,-0.829,-1.543,-0.342,23.232,-7.256,-12.988,14_10_2.csv
2018-07-11T11:12:38.912163,-0.829,-1.543,-0.342,46.341,-18.963,-24.512,14_10_2.csv
2018-07-11T11:12:38.954276,-0.125,0.211,-0.022,40.122,-21.524,-29.695,14_10_2.csv
2018-07-11T11:12:39.020458,0.07,0.427,0.103,16.22,-0.122,-15.183,14_10_2.csv
2018-07-11T11:12:39.101174,-0.122,0.036,-0.06,-74.329,-0.793,35.488,14_10_2.csv
2018-07-11T11:12:39.174871,-0.34,-0.669,-0.102,-23.049,0.793,17.012,14_10_2.csv
2018-07-11T11:12:39.241550,-0.34,-0.669,-0.102,11.829,8.598,11.159,14_10_2.csv
2018-07-11T11:12:39.299204,-1.511,-2.282,-0.428,-44.756,10.854,37.744,14_10_2.csv
2018-07-11T11:12:39.347332,-1.42,-2.459,-0.415,-20.183,-3.841,-1.89,14_10_2.csv
2018-07-11T11:12:39.393455,-1.42,-2.459,-0.415,-32.683,-10.427,-7.927,14_10_2.csv
2018-07-11T11:12:39.439580,-0.532,-0.733,-0.309,29.146,-9.939,-12.256,14_10_2.csv
2018-07-11T11:12:39.531831,0.016,0.477,0.138,28.293,-0.122,-18.598,14_10_2.csv
2018-07-11T11:12:39.581965,0.018,0.28,0.044,4.39,1.159,9.573,14_10_2.csv
2018-07-11T11:12:39.628094,0.018,0.28,0.044,-74.695,12.439,38.232,14_10_2.csv
2018-07-11T11:12:39.737388,-0.827,-1.186,-0.3,5.549,13.72,25.122,14_10_2.csv
2018-07-11T11:12:39.786018,-0.827,-1.186,-0.3,5.0,18.476,30.61,14_10_2.csv
2018-07-11T11:12:39.849690,-1.758,-2.593,-0.508,-18.963,0.671,30.549,14_10_2.csv
2018-07-11T11:12:39.908851,-1.216,-1.873,-0.493,-14.695,28.415,-22.378,14_10_2.csv
2018-07-11T11:12:39.982049,-0.235,-0.021,-0.104,46.463,-21.829,-37.134,14_10_2.csv
2018-07-11T11:12:40.048227,-0.235,-0.021,-0.104,41.89,2.012,-40.183,14_10_2.csv
2018-07-11T11:12:40.097358,0.116,0.395,0.186,21.707,-7.256,-5.671,14_10_2.csv
2018-07-11T11:12:40.196623,-0.044,0.004,-0.029,-23.171,4.512,14.756,14_10_2.csv
2018-07-11T11:12:40.254779,-0.288,-0.496,-0.211,-33.659,-9.573,13.902,14_10_2.csv
2018-07-11T11:12:40.300902,-0.991,-1.863,-0.452,0.122,-16.159,16.28,14_10_2.csv
2018-07-11T11:12:40.353041,-0.991,-1.863,-0.452,59.024,10.061,17.988,14_10_2.csv
2018-07-11T11:12:40.393650,-1.771,-2.641,-0.232,-49.024,40.915,-1.646,14_10_2.csv
2018-07-11T11:12:40.442280,-1.771,-2.641,-0.232,3.902,58.659,-10.427,14_10_2.csv
2018-07-11T11:12:40.493417,-0.762,-1.077,-0.303,69.268,22.5,-13.72,14_10_2.csv
2018-07-11T11:12:40.536532,0.096,0.333,-0.083,95.427,10.61,-40.122,14_10_2.csv
2018-07-11T11:12:40.582154,0.096,0.333,-0.083,90.854,22.622,-29.512,14_10_2.csv
2018-07-11T11:12:40.644320,0.052,0.525,0.14,42.195,15.366,-9.146,14_10_2.csv
2018-07-11T11:12:40.706987,-0.136,-0.006,0.036,-101.463,36.768,50.549,14_10_2.csv
2018-07-11T11:12:40.752609,-0.136,-0.006,0.036,-130.061,24.268,48.11,14_10_2.csv
2018-07-11T11:12:40.821002,-0.565,-0.469,-0.615,-494.939,11.463,70.305,14_10_2.csv
2018-07-11T11:12:40.923281,-1.779,-1.126,-2.94,-198.11,-28.537,14.817,14_10_2.csv
2018-07-11T11:12:40.973421,-1.3,-0.565,-1.726,79.268,43.659,-82.439,14_10_2.csv
2018-07-11T11:12:41.028568,-0.322,-0.13,-0.406,91.646,49.207,-29.268,14_10_2.csv
2018-07-11T11:12:41.081715,-0.322,-0.13,-0.406,216.098,47.744,-19.207,14_10_2.csv
2018-07-11T11:12:41.127839,0.021,0.429,0.16,202.073,47.927,-2.927,14_10_2.csv
2018-07-11T11:12:41.174968,0.021,0.429,0.16,62.256,39.085,15.915,14_10_2.csv
2018-07-11T11:12:41.220088,-0.033,0.155,0.296,-52.622,-39.024,20.793,14_10_2.csv
2018-07-11T11:12:41.267718,-0.355,-0.124,-0.063,-32.927,-52.012,8.902,14_10_2.csv
2018-07-11T11:12:41.345428,-1.014,-0.459,-1.139,-45.549,-43.841,34.512,14_10_2.csv
2018-07-11T11:12:41.393561,-1.014,-0.459,-1.139,-125.61,-57.988,60.244,14_10_2.csv
2018-07-11T11:12:41.447706,-1.937,-1.47,-2.467,-182.378,-52.744,38.659,14_10_2.csv
2018-07-11T11:12:41.504864,-1.268,-0.619,-1.629,90.305,51.707,-54.146,14_10_2.csv
2018-07-11T11:12:41.549984,-1.268,-0.619,-1.629,85.366,26.28,-49.756,14_10_2.csv
2018-07-11T11:12:41.595109,-0.246,-0.044,-0.072,161.89,57.439,-59.085,14_10_2.csv
2018-07-11T11:12:41.645243,-0.246,-0.044,-0.072,224.39,64.207,-96.585,14_10_2.csv
2018-07-11T11:12:41.759054,-0.145,0.25,0.196,-114.573,-70.244,-27.927,14_10_2.csv
2018-07-11T11:12:41.832249,-0.299,-0.181,-0.337,-107.561,-109.451,-30.488,14_10_2.csv
2018-07-11T11:12:41.886895,-0.299,-0.181,-0.337,63.659,-87.256,-6.707,14_10_2.csv
2018-07-11T11:12:41.936528,-1.284,-1.465,-1.469,5.793,-38.354,32.622,14_10_2.csv
2018-07-11T11:12:41.990673,-1.788,-1.933,-2.063,-145.122,-50.305,-24.451,14_10_2.csv
2018-07-11T11:12:42.038300,-1.788,-1.933,-2.063,-16.341,11.341,-67.134,14_10_2.csv
2018-07-11T11:12:42.082417,-0.567,-0.449,-0.749,-35.61,0.183,-67.012,14_10_2.csv
2018-07-11T11:12:42.134557,-0.567,-0.449,-0.749,5.305,29.39,-77.073,14_10_2.csv
2018-07-11T11:12:42.180680,0.017,0.281,0.31,63.415,58.78,-87.378,14_10_2.csv
2018-07-11T11:12:42.265407,-0.092,0.322,0.241,123.293,-21.951,19.695,14_10_2.csv
2018-07-11T11:12:42.334091,-0.3,0.103,-0.077,20.305,-61.037,34.024,14_10_2.csv
2018-07-11T11:12:42.381717,-0.3,0.103,-0.077,-73.78,-70.122,16.524,14_10_2.csv
2018-07-11T11:12:42.441377,-0.535,-0.729,-0.739,-54.512,-29.207,-6.89,14_10_2.csv
2018-07-11T11:12:42.489004,-1.641,-2.442,-1.709,-3.293,-53.11,40.366,14_10_2.csv
2018-07-11T11:12:42.535629,-1.641,-2.442,-1.709,-52.683,-17.561,-0.61,14_10_2.csv
2018-07-11T11:12:42.589272,-1.187,-1.696,-1.359,44.573,-15.61,-72.195,14_10_2.csv
2018-07-11T11:12:42.649433,-0.194,0.069,-0.076,74.085,-15.732,-84.451,14_10_2.csv
2018-07-11T11:12:42.695055,-0.194,0.069,-0.076,69.634,3.11,-94.207,14_10_2.csv
2018-07-11T11:12:42.741679,0.053,0.555,0.394,2.256,8.354,-77.134,14_10_2.csv
2018-07-11T11:12:42.790810,-0.132,0.221,-0.005,-97.012,-34.817,25.488,14_10_2.csv
2018-07-11T11:12:42.848966,-0.132,0.221,-0.005,-133.963,-67.439,34.573,14_10_2.csv
2018-07-11T11:12:42.906620,-0.259,-0.368,-0.296,-18.049,-77.683,5.488,14_10_2.csv
2018-07-11T11:12:42.955751,-1.027,-1.489,-1.115,60.793,-19.451,9.39,14_10_2.csv
2018-07-11T11:12:43.003379,-1.027,-1.489,-1.115,3.293,-1.341,64.268,14_10_2.csv
2018-07-11T11:12:43.068552,-1.813,-2.676,-1.638,123.354,35.366,-72.927,14_10_2.csv
2018-07-11T11:12:43.115678,-0.769,-0.956,-0.641,143.72,-1.768,-63.11,14_10_2.csv
2018-07-11T11:12:43.164809,-0.769,-0.956,-0.641,62.683,-23.78,-68.72,14_10_2.csv
2018-07-11T11:12:43.220458,0.031,0.339,0.221,39.634,-18.841,-79.939,14_10_2.csv
2018-07-11T11:12:43.283126,0.035,0.417,0.184,-40.122,-15.793,-43.293,14_10_2.csv
2018-07-11T11:12:43.330753,0.035,0.417,0.184,-44.756,-45.732,-9.39,14_10_2.csv
2018-07-11T11:12:43.381388,-0.192,-0.027,-0.099,-38.659,-93.841,3.476,14_10_2.csv
2018-07-11T11:12:43.427010,-0.192,-0.027,-0.099,-14.207,-98.049,20.671,14_10_2.csv
2018-07-11T11:12:43.471629,-0.415,-0.906,-0.361,-79.329,0.671,-27.134,14_10_2.csv
2018-07-11T11:12:43.535801,-0.788,-2.315,-1.118,-47.622,46.098,-62.5,14_10_2.csv
2018-07-11T11:12:43.644591,-0.968,-2.875,-1.096,200.061,96.463,-61.829,14_10_2.csv
2018-07-11T11:12:43.699237,-0.19,-0.441,-0.284,223.171,87.317,-52.439,14_10_2.csv
2018-07-11T11:12:43.816551,0.173,0.803,0.134,-9.207,51.402,-19.634,14_10_2.csv
2018-07-11T11:12:43.865682,-0.096,0.328,0.2,-33.72,25.732,22.866,14_10_2.csv
2018-07-11T11:12:43.911304,-0.15,-0.105,-0.182,-108.293,11.463,44.695,14_10_2.csv
2018-07-11T11:12:43.965449,-0.15,-0.105,-0.182,-90.183,16.585,42.378,14_10_2.csv
2018-07-11T11:12:44.021599,-0.305,-1.108,-0.621,-88.72,7.622,39.085,14_10_2.csv
2018-07-11T11:12:44.081258,-0.705,-3.345,-1.538,-69.024,-3.232,64.329,14_10_2.csv
2018-07-11T11:12:44.131893,-0.705,-3.345,-1.538,-64.207,37.317,25.244,14_10_2.csv
2018-07-11T11:12:44.175008,-0.5,-2.277,-1.039,68.902,41.463,-9.634,14_10_2.csv
2018-07-11T11:12:44.223638,-0.5,-2.277,-1.039,95.122,36.707,-21.524,14_10_2.csv
2018-07-11T11:12:44.277282,-0.208,0.213,-0.129,90.244,24.39,-25.915,14_10_2.csv
2018-07-11T11:12:44.348472,0.018,0.733,0.155,65.793,11.341,-1.951,14_10_2.csv
2018-07-11T11:12:44.399107,-0.069,-0.176,-0.054,-87.988,8.415,37.866,14_10_2.csv
2018-07-11T11:12:44.446233,-0.069,-0.176,-0.054,-41.28,8.171,25.122,14_10_2.csv
2018-07-11T11:12:44.497370,-0.126,-0.251,-0.127,28.537,15.488,20.0,14_10_2.csv
2018-07-11T11:12:44.551013,-0.126,-0.251,-0.127,57.988,31.646,34.451,14_10_2.csv
2018-07-11T11:12:44.602150,-0.377,-1.381,-0.601,6.951,21.707,53.415,14_10_2.csv
2018-07-11T11:12:44.643761,-0.879,-3.478,-0.924,-79.207,29.451,20.549,14_10_2.csv
2018-07-11T11:12:44.691388,-0.879,-3.478,-0.924,37.073,50.305,-10.793,14_10_2.csv
2018-07-11T11:12:44.740018,-0.269,-1.88,-0.559,121.281,30.61,-20.915,14_10_2.csv
2018-07-11T11:12:44.785640,-0.269,-1.88,-0.559,85.061,34.207,-41.646,14_10_2.csv
2018-07-11T11:12:44.831262,-0.146,0.157,-0.099,98.049,53.963,-38.171,14_10_2.csv
2018-07-11T11:12:44.889173,-0.085,0.668,0.02,94.268,6.707,-22.927,14_10_2.csv
2018-07-11T11:12:44.978913,-0.071,-0.06,0.031,-81.951,33.415,47.195,14_10_2.csv
2018-07-11T11:12:45.036567,-0.071,-0.06,0.031,-83.11,30.366,35.366,14_10_2.csv
2018-07-11T11:12:45.100237,-0.235,-0.554,-0.213,69.207,38.963,34.878,14_10_2.csv
2018-07-11T11:12:45.146862,-0.616,-2.013,-0.349,53.293,53.11,45.488,14_10_2.csv
2018-07-11T11:12:45.192984,-0.616,-2.013,-0.349,-41.22,44.939,57.317,14_10_2.csv
2018-07-11T11:12:45.310300,-0.21,-1.203,-0.172,58.293,-45.671,-46.341,14_10_2.csv
2018-07-11T11:12:45.364450,-0.094,0.414,-0.081,22.195,4.085,-63.902,14_10_2.csv
2018-07-11T11:12:45.409571,-0.094,0.414,-0.081,24.512,-5.122,-36.829,14_10_2.csv
2018-07-11T11:12:45.458704,-0.106,0.551,0.066,17.195,-18.354,2.012,14_10_2.csv
2018-07-11T11:12:45.555964,-0.14,-0.316,-0.111,-133.11,-1.951,52.195,14_10_2.csv
2018-07-11T11:12:45.598076,-0.14,-0.316,-0.111,-82.439,-1.585,30.305,14_10_2.csv
2018-07-11T11:12:45.679293,-0.192,-0.863,-0.275,11.22,13.598,33.476,14_10_2.csv
2018-07-11T11:12:45.740457,-0.788,-2.922,-0.729,-160.427,0.427,8.476,14_10_2.csv
2018-07-11T11:12:45.786581,-0.67,-2.789,-0.611,31.524,-24.268,-22.988,14_10_2.csv
2018-07-11T11:12:45.830197,-0.67,-2.789,-0.611,99.573,-40.122,-47.5,14_10_2.csv
2018-07-11T11:12:45.883364,-0.228,-0.181,-0.153,37.561,-12.073,-61.585,14_10_2.csv
2018-07-11T11:12:45.928484,-0.005,0.641,0.031,44.024,-26.707,-35.305,14_10_2.csv
2018-07-11T11:12:45.989151,-0.005,0.641,0.031,32.5,-37.256,-2.012,14_10_2.csv
2018-07-11T11:12:46.132039,-0.224,-0.379,-0.177,-24.024,-21.402,27.927,14_10_2.csv
2018-07-11T11:12:46.174152,-0.387,-1.515,-0.592,-22.134,-10.0,30.366,14_10_2.csv
2018-07-11T11:12:46.222280,-0.387,-1.515,-0.592,-75.244,-23.415,31.89,14_10_2.csv
2018-07-11T11:12:46.265899,-0.878,-3.593,-0.999,-114.756,-36.22,-12.378,14_10_2.csv
2018-07-11T11:12:46.423324,0.014,0.23,0.08,36.951,-48.232,-60.0,14_10_2.csv
2018-07-11T11:12:46.474466,0.014,0.23,0.08,48.415,-37.073,-55.244,14_10_2.csv
2018-07-11T11:12:46.516579,-0.003,0.606,0.082,44.512,-25.427,-39.268,14_10_2.csv
2018-07-11T11:12:46.611838,-0.236,-0.022,-0.079,-23.293,-47.866,49.39,14_10_2.csv
2018-07-11T11:12:46.659467,-0.203,-0.452,-0.198,-48.78,-27.927,30.0,14_10_2.csv
2018-07-11T11:12:46.705088,-0.203,-0.452,-0.198,-28.049,-24.146,20.793,14_10_2.csv
2018-07-11T11:12:46.752215,-0.678,-2.33,-0.642,-41.341,-14.085,54.085,14_10_2.csv
2018-07-11T11:12:46.802351,-0.678,-2.33,-0.642,-112.744,-25.549,54.39,14_10_2.csv
2018-07-11T11:12:46.861511,-0.984,-2.986,-0.787,24.146,-26.098,-28.232,14_10_2.csv
2018-07-11T11:12:46.912651,-0.386,-1.24,-0.371,51.463,-67.988,-35.915,14_10_2.csv
2018-07-11T11:12:46.960781,-0.386,-1.24,-0.371,106.951,-61.402,-64.329,14_10_2.csv
