time,accel_x_list,accel_y_list,accel_z_list,gyro_x_list,gyro_y_list,gyro_z_list,filename
2018-07-11T10:59:39.450124,-0.992,-0.463,0.059,72.927,-0.61,-28.232,14_6_2.csv
2018-07-11T10:59:39.498252,-0.888,-0.329,0.006,76.646,-8.659,-59.817,14_6_2.csv
2018-07-11T10:59:39.625089,-1.097,-0.297,-0.061,104.268,-41.707,-77.134,14_6_2.csv
2018-07-11T10:59:39.673217,-0.95,-0.202,-0.008,62.134,-31.524,-89.268,14_6_2.csv
2018-07-11T10:59:39.740898,-0.871,-0.22,-0.025,-11.22,-16.037,-95.671,14_6_2.csv
2018-07-11T10:59:39.825622,-0.88,-0.257,0.045,-15.549,-12.134,-65.244,14_6_2.csv
2018-07-11T10:59:39.870742,-0.88,-0.257,0.045,-7.744,1.28,-30.0,14_6_2.csv
2018-07-11T10:59:39.918870,-1.013,-0.266,0.119,6.159,17.134,11.951,14_6_2.csv
2018-07-11T10:59:39.965494,-1.283,-0.193,0.038,-27.622,5.915,65.061,14_6_2.csv
2018-07-11T10:59:40.012120,-1.283,-0.193,0.038,-89.634,-10.976,79.207,14_6_2.csv
2018-07-11T10:59:40.082309,-1.119,-0.335,0.116,-127.622,-8.963,97.805,14_6_2.csv
2018-07-11T10:59:40.145978,-0.851,-0.46,0.077,-108.598,7.195,107.927,14_6_2.csv
2018-07-11T10:59:40.199119,-0.851,-0.46,0.077,-41.89,0.366,77.805,14_6_2.csv
2018-07-11T10:59:40.247247,-1.114,-0.257,0.0,-42.988,-29.39,-14.268,14_6_2.csv
2018-07-11T10:59:40.293369,-0.916,-0.246,0.049,-111.585,-34.085,-35.915,14_6_2.csv
2018-07-11T10:59:40.340996,-0.916,-0.246,0.049,-135.366,-22.5,-36.89,14_6_2.csv
2018-07-11T10:59:40.437749,-0.817,-0.352,0.065,-75.427,-0.366,-3.415,14_6_2.csv
2018-07-11T10:59:40.497909,-0.857,-0.328,0.129,-40.305,13.232,27.073,14_6_2.csv
2018-07-11T10:59:40.549547,-1.029,-0.372,0.144,-22.256,20.244,35.915,14_6_2.csv
2018-07-11T10:59:40.596170,-1.029,-0.372,0.144,4.146,21.098,47.378,14_6_2.csv
2018-07-11T10:59:40.658837,-1.242,-0.367,0.099,13.171,13.293,32.683,14_6_2.csv
2018-07-11T10:59:40.701952,-1.347,-0.453,0.058,10.61,11.768,17.134,14_6_2.csv
2018-07-11T10:59:40.763616,-1.347,-0.453,0.058,38.415,-1.951,1.585,14_6_2.csv
2018-07-11T10:59:40.808736,-0.93,-0.311,0.029,127.561,-24.817,-71.037,14_6_2.csv
2018-07-11T10:59:40.855360,-1.036,-0.195,0.02,102.927,-34.207,-79.573,14_6_2.csv
2018-07-11T10:59:40.903989,-1.036,-0.195,0.02,49.39,-45.793,-73.232,14_6_2.csv
2018-07-11T10:59:40.951616,-1.002,-0.215,-0.04,-0.305,-52.805,-72.866,14_6_2.csv
2018-07-11T10:59:40.996736,-1.002,-0.215,-0.04,-35.366,-49.817,-74.207,14_6_2.csv
2018-07-11T10:59:41.049376,-0.823,-0.274,-0.038,-35.854,-21.22,-75.366,14_6_2.csv
2018-07-11T10:59:41.109535,-0.904,-0.27,0.007,-8.232,-12.256,-67.561,14_6_2.csv
2018-07-11T10:59:41.156661,-0.904,-0.27,0.007,10.427,-1.037,-44.451,14_6_2.csv
2018-07-11T10:59:41.247402,-0.848,-0.275,0.206,70.183,45.061,26.402,14_6_2.csv
2018-07-11T10:59:41.292522,-1.099,-0.134,0.106,-28.598,7.5,80.122,14_6_2.csv
2018-07-11T10:59:41.343157,-1.426,-0.243,-0.03,-122.5,-25.366,92.866,14_6_2.csv
2018-07-11T10:59:41.404821,-1.426,-0.243,-0.03,-181.585,-42.439,99.939,14_6_2.csv
2018-07-11T10:59:41.464980,-1.014,-0.513,0.104,-128.354,5.671,89.939,14_6_2.csv
2018-07-11T10:59:41.512106,-0.857,-0.349,0.069,-46.28,20.244,45.122,14_6_2.csv
2018-07-11T10:59:41.559732,-0.857,-0.349,0.069,-2.378,8.963,-11.89,14_6_2.csv
2018-07-11T10:59:41.606356,-1.083,-0.136,-0.032,-46.768,-31.159,-50.732,14_6_2.csv
2018-07-11T10:59:41.652479,-1.083,-0.136,-0.032,-135.244,-66.28,-63.049,14_6_2.csv
2018-07-11T10:59:41.705620,-0.789,-0.282,0.086,-185.976,-33.354,-36.585,14_6_2.csv
2018-07-11T10:59:41.803380,-0.79,-0.408,0.135,-65.122,8.171,23.963,14_6_2.csv
2018-07-11T10:59:41.855017,-0.911,-0.349,0.108,-28.72,11.463,49.512,14_6_2.csv
2018-07-11T10:59:41.904148,-1.093,-0.396,0.014,-28.78,-3.659,47.988,14_6_2.csv
2018-07-11T10:59:41.967817,-1.093,-0.396,0.014,-19.695,-7.866,48.537,14_6_2.csv
2018-07-11T10:59:42.015444,-1.232,-0.467,0.148,-0.976,46.463,27.073,14_6_2.csv
2018-07-11T10:59:42.180382,-0.932,-0.145,0.068,174.268,-66.463,-54.512,14_6_2.csv
2018-07-11T10:59:42.232020,-1.085,-0.065,0.061,65.366,-79.512,-62.317,14_6_2.csv
2018-07-11T10:59:42.278143,-1.085,-0.065,0.061,-60.549,-86.037,-81.646,14_6_2.csv
2018-07-11T10:59:42.329278,-1.047,-0.246,-0.092,-151.585,-83.232,-98.476,14_6_2.csv
2018-07-11T10:59:42.373396,-1.047,-0.246,-0.092,-161.829,-73.963,-103.537,14_6_2.csv
2018-07-11T10:59:42.424030,-0.83,-0.339,-0.073,-71.341,-30.976,-83.659,14_6_2.csv
2018-07-11T10:59:42.472659,-0.813,-0.242,-0.015,-9.573,-12.927,-66.28,14_6_2.csv
2018-07-11T10:59:42.534324,-0.813,-0.242,-0.015,12.317,-2.134,-37.805,14_6_2.csv
2018-07-11T10:59:42.592478,-0.736,-0.28,0.183,38.902,39.695,53.78,14_6_2.csv
2018-07-11T10:59:42.637598,-1.019,-0.257,0.263,131.281,82.622,113.232,14_6_2.csv
2018-07-11T10:59:42.683220,-1.019,-0.257,0.263,137.317,93.78,157.683,14_6_2.csv
2018-07-11T10:59:42.732350,-1.43,-0.016,-0.006,11.951,54.939,175.976,14_6_2.csv
2018-07-11T10:59:42.828606,-1.528,-0.34,-0.124,-346.342,-86.28,60.366,14_6_2.csv
2018-07-11T10:59:42.903305,-0.859,-0.491,-0.05,-249.268,-21.463,-10.366,14_6_2.csv
2018-07-11T10:59:42.951934,-0.806,-0.399,-0.153,-132.561,-20.488,-25.915,14_6_2.csv
2018-07-11T10:59:42.999561,-0.806,-0.399,-0.153,-44.451,-41.28,-27.5,14_6_2.csv
2018-07-11T10:59:43.042174,-0.94,-0.22,-0.082,-57.439,-58.537,-21.951,14_6_2.csv
2018-07-11T10:59:43.094814,-0.94,-0.22,-0.082,-127.012,-44.878,-20.549,14_6_2.csv
2018-07-11T10:59:43.161491,-0.789,-0.303,0.028,-132.744,30.183,-13.72,14_6_2.csv
2018-07-11T10:59:43.215635,-0.833,-0.324,0.153,-82.5,56.341,3.354,14_6_2.csv
2018-07-11T10:59:43.263261,-1.097,-0.161,0.443,-57.805,93.902,36.829,14_6_2.csv
2018-07-11T10:59:43.314899,-1.097,-0.161,0.443,-272.622,60.854,24.268,14_6_2.csv
2018-07-11T10:59:43.358515,-1.167,-0.762,-0.186,-159.695,-23.11,27.561,14_6_2.csv
2018-07-11T10:59:43.407645,-1.167,-0.762,-0.186,177.439,-61.463,73.354,14_6_2.csv
2018-07-11T10:59:43.455773,-1.155,-0.226,0.045,231.89,-75.0,90.671,14_6_2.csv
2018-07-11T10:59:43.514931,-1.212,-0.33,0.135,-36.768,23.232,-2.134,14_6_2.csv
2018-07-11T10:59:43.558547,-1.212,-0.33,0.135,-75.244,32.744,-34.146,14_6_2.csv
2018-07-11T10:59:43.606173,-0.955,-0.438,-0.064,13.232,11.22,-70.549,14_6_2.csv
2018-07-11T10:59:43.655805,-0.955,-0.438,-0.064,99.024,-12.073,-102.988,14_6_2.csv
2018-07-11T10:59:43.700424,-1.157,-0.205,-0.04,117.378,-45.244,-110.61,14_6_2.csv
2018-07-11T10:59:43.768605,-0.982,-0.19,0.033,3.293,-49.817,-98.171,14_6_2.csv
2018-07-11T10:59:43.811218,-0.982,-0.19,0.033,-36.159,-25.061,-95.427,14_6_2.csv
2018-07-11T10:59:43.855336,-0.79,-0.252,-0.023,-47.5,-13.11,-87.683,14_6_2.csv
2018-07-11T10:59:43.904466,-0.739,-0.306,0.078,-3.963,1.585,-48.476,14_6_2.csv
2018-07-11T10:59:43.950088,-0.739,-0.306,0.078,40.793,21.463,-2.073,14_6_2.csv
2018-07-11T10:59:43.996210,-0.906,-0.304,0.152,81.402,43.049,53.598,14_6_2.csv
2018-07-11T10:59:44.052861,-0.906,-0.304,0.152,89.024,45.488,96.159,14_6_2.csv
2018-07-11T10:59:44.110514,-1.146,-0.193,0.054,-32.561,8.72,105.122,14_6_2.csv
2018-07-11T10:59:44.156637,-1.428,-0.312,0.031,-87.744,-0.549,85.61,14_6_2.csv
2018-07-11T10:59:44.199250,-1.428,-0.312,0.031,-108.72,-0.61,70.915,14_6_2.csv
2018-07-11T10:59:44.245874,-1.03,-0.411,0.093,-103.72,7.561,59.573,14_6_2.csv
2018-07-11T10:59:44.297512,-1.03,-0.411,0.093,-76.28,6.768,38.72,14_6_2.csv
2018-07-11T10:59:44.369202,-0.857,-0.301,0.022,-24.878,-26.28,-14.085,14_6_2.csv
2018-07-11T10:59:44.418834,-1.032,-0.187,-0.053,-60.122,-53.354,-32.073,14_6_2.csv
2018-07-11T10:59:44.464455,-1.032,-0.187,-0.053,-125.854,-61.463,-39.451,14_6_2.csv
2018-07-11T10:59:44.559708,-0.821,-0.402,0.036,-58.415,14.024,7.683,14_6_2.csv
2018-07-11T10:59:44.606332,-0.821,-0.402,0.036,18.841,28.293,25.061,14_6_2.csv
2018-07-11T10:59:44.651954,-0.943,-0.249,0.167,35.488,38.049,31.098,14_6_2.csv
2018-07-11T10:59:44.704844,-0.943,-0.249,0.167,1.707,45.61,29.573,14_6_2.csv
2018-07-11T10:59:44.746455,-1.128,-0.329,0.137,-48.293,45.488,26.951,14_6_2.csv
2018-07-11T10:59:44.793580,-1.221,-0.382,0.025,20.976,0.305,36.707,14_6_2.csv
2018-07-11T10:59:44.862262,-1.221,-0.382,0.025,33.11,-14.146,32.5,14_6_2.csv
2018-07-11T10:59:44.905377,-1.196,-0.424,0.058,21.707,-12.866,28.232,14_6_2.csv
2018-07-11T10:59:44.950497,-0.981,-0.327,0.005,57.256,-12.256,-24.817,14_6_2.csv
2018-07-11T10:59:45.001134,-0.981,-0.327,0.005,77.5,-20.976,-73.963,14_6_2.csv
2018-07-11T10:59:45.048259,-1.117,-0.253,-0.055,67.012,-39.634,-92.195,14_6_2.csv
2018-07-11T10:59:45.093384,-1.117,-0.253,-0.055,36.951,-52.256,-91.585,14_6_2.csv
2018-07-11T10:59:45.141512,-0.965,-0.248,-0.025,15.854,-45.976,-93.171,14_6_2.csv
2018-07-11T10:59:45.187640,-0.965,-0.248,-0.025,6.22,-28.049,-92.622,14_6_2.csv
2018-07-11T10:59:45.297938,-0.868,-0.239,-0.01,16.463,-5.427,-56.768,14_6_2.csv
2018-07-11T10:59:45.354086,-0.865,-0.258,0.07,-0.061,8.902,7.683,14_6_2.csv
2018-07-11T10:59:45.403222,-0.865,-0.258,0.07,-1.037,17.439,34.146,14_6_2.csv
2018-07-11T10:59:45.447339,-1.043,-0.265,0.069,-16.585,17.073,54.939,14_6_2.csv
2018-07-11T10:59:45.497976,-1.043,-0.265,0.069,-45.488,16.22,68.171,14_6_2.csv
2018-07-11T10:59:45.543096,-1.372,-0.335,-0.001,-71.585,12.5,82.317,14_6_2.csv
2018-07-11T10:59:45.590221,-1.372,-0.335,-0.001,-85.244,0.915,101.22,14_6_2.csv
2018-07-11T10:59:45.645368,-1.054,-0.475,0.113,-53.415,20.427,103.049,14_6_2.csv
2018-07-11T10:59:45.731597,-0.866,-0.382,0.104,51.646,18.11,13.963,14_6_2.csv
2018-07-11T10:59:45.777720,-1.124,-0.12,-0.01,10.061,-23.354,-36.159,14_6_2.csv
2018-07-11T10:59:45.825848,-1.124,-0.12,-0.01,-94.878,-63.78,-63.293,14_6_2.csv
2018-07-11T10:59:45.939149,-0.813,-0.374,0.022,-119.024,-14.451,-41.768,14_6_2.csv
2018-07-11T10:59:45.981261,-0.813,-0.374,0.022,-49.451,-3.11,-8.232,14_6_2.csv
2018-07-11T10:59:46.053453,-0.855,-0.308,0.115,2.378,28.354,37.134,14_6_2.csv
2018-07-11T10:59:46.108098,-1.021,-0.317,0.105,14.268,36.341,52.805,14_6_2.csv
2018-07-11T10:59:46.154722,-1.021,-0.317,0.105,14.817,26.585,57.744,14_6_2.csv
2018-07-11T10:59:46.201346,-1.156,-0.299,0.038,-30.061,2.134,23.354,14_6_2.csv
2018-07-11T10:59:46.245965,-1.43,-0.474,0.017,-35.549,6.829,18.049,14_6_2.csv
2018-07-11T10:59:46.294092,-1.43,-0.474,0.017,-5.244,1.341,22.683,14_6_2.csv
2018-07-11T10:59:46.343725,-0.961,-0.349,0.097,55.061,-9.207,-2.256,14_6_2.csv
2018-07-11T10:59:46.406893,-1.0,-0.151,0.051,74.146,-16.829,-84.207,14_6_2.csv
2018-07-11T10:59:46.470061,-1.0,-0.151,0.051,9.268,-52.866,-93.902,14_6_2.csv
2018-07-11T10:59:46.528215,-1.106,-0.186,-0.046,-65.122,-88.293,-100.732,14_6_2.csv
2018-07-11T10:59:46.641516,-0.808,-0.274,-0.045,-89.939,-32.683,-58.841,14_6_2.csv
2018-07-11T10:59:46.690146,-0.808,-0.274,-0.045,-45.61,-20.854,-33.476,14_6_2.csv
2018-07-11T10:59:46.740279,-0.796,-0.251,0.041,-20.732,-9.268,3.11,14_6_2.csv
2018-07-11T10:59:46.800439,-0.948,-0.276,0.082,-4.878,23.963,84.756,14_6_2.csv
2018-07-11T10:59:46.842551,-0.948,-0.276,0.082,-1.341,26.098,122.073,14_6_2.csv
2018-07-11T10:59:46.889175,-1.257,-0.326,0.011,-18.902,17.805,149.268,14_6_2.csv
2018-07-11T10:59:46.933794,-1.257,-0.326,0.011,-40.854,11.646,154.329,14_6_2.csv
2018-07-11T10:59:46.982924,-1.508,-0.459,0.015,-61.463,9.207,139.146,14_6_2.csv
2018-07-11T10:59:47.041580,-1.022,-0.41,0.14,-52.134,21.22,58.537,14_6_2.csv
2018-07-11T10:59:47.107255,-1.022,-0.41,0.14,-43.415,15.427,-0.366,14_6_2.csv
2018-07-11T10:59:47.155884,-0.801,-0.246,0.02,-42.683,-13.232,-42.439,14_6_2.csv
2018-07-11T10:59:47.205014,-0.997,-0.2,-0.104,-118.354,-88.049,-84.329,14_6_2.csv
2018-07-11T10:59:47.279713,-0.997,-0.2,-0.104,-181.707,-104.207,-95.0,14_6_2.csv
2018-07-11T10:59:47.345388,-0.85,-0.361,-0.065,-198.72,-32.134,-64.024,14_6_2.csv
2018-07-11T10:59:47.396524,-0.869,-0.487,0.191,-86.28,25.854,-38.11,14_6_2.csv
2018-07-11T10:59:47.456684,-0.919,-0.015,0.541,206.829,35.183,30.427,14_6_2.csv
2018-07-11T10:59:47.572491,-0.982,-0.262,-0.015,-55.976,-11.402,25.732,14_6_2.csv
2018-07-11T10:59:47.643681,-1.212,-0.357,-0.03,-73.415,-5.061,43.293,14_6_2.csv
2018-07-11T10:59:47.718881,-1.278,-0.521,0.102,-98.537,23.72,44.451,14_6_2.csv
2018-07-11T10:59:47.789067,-0.866,-0.421,0.044,39.451,21.585,19.268,14_6_2.csv
2018-07-11T10:59:47.849227,-0.959,-0.199,-0.06,113.354,-29.268,-48.659,14_6_2.csv
2018-07-11T10:59:47.903372,-0.959,-0.199,-0.06,82.317,-66.89,-42.805,14_6_2.csv
2018-07-11T10:59:47.949494,-1.021,-0.242,0.03,9.085,-68.598,-26.829,14_6_2.csv
2018-07-11T10:59:47.998626,-1.021,-0.242,0.03,-59.329,-35.793,-13.537,14_6_2.csv
2018-07-11T10:59:48.047254,-0.813,-0.332,-0.03,-37.927,3.293,-30.488,14_6_2.csv
2018-07-11T10:59:48.091371,-0.891,-0.298,-0.043,12.805,3.354,-28.841,14_6_2.csv
2018-07-11T10:59:48.152032,-0.891,-0.298,-0.043,30.61,3.171,-19.817,14_6_2.csv
2018-07-11T10:59:48.208182,-0.999,-0.223,-0.002,-36.707,8.293,-1.28,14_6_2.csv
2018-07-11T10:59:48.260822,-1.031,-0.271,0.03,-65.061,7.561,3.78,14_6_2.csv
2018-07-11T10:59:48.309451,-1.031,-0.271,0.03,-70.854,14.39,11.585,14_6_2.csv
2018-07-11T10:59:48.355072,-1.262,-0.32,0.231,-61.768,31.28,29.39,14_6_2.csv
2018-07-11T10:59:48.402699,-1.262,-0.32,0.231,-85.488,56.28,57.805,14_6_2.csv
2018-07-11T10:59:48.512491,-0.879,-0.297,-0.042,37.134,-66.402,44.329,14_6_2.csv
2018-07-11T10:59:48.558112,-0.879,-0.297,-0.042,36.159,-94.878,8.11,14_6_2.csv
2018-07-11T10:59:48.649355,-0.961,-0.304,-0.013,-228.354,-52.927,-93.902,14_6_2.csv
2018-07-11T10:59:48.698986,-0.961,-0.304,-0.013,-182.622,-42.5,-81.037,14_6_2.csv
2018-07-11T10:59:48.747616,-0.825,-0.291,0.052,-98.72,-39.451,-68.171,14_6_2.csv
2018-07-11T10:59:48.793738,-0.825,-0.291,0.052,-53.78,-35.244,-52.317,14_6_2.csv
2018-07-11T10:59:48.843872,-0.734,-0.195,0.196,-57.256,-28.476,-25.427,14_6_2.csv
2018-07-11T10:59:48.891499,-0.829,-0.313,0.193,-63.659,14.939,56.402,14_6_2.csv
2018-07-11T10:59:48.937621,-0.829,-0.313,0.193,-34.573,20.549,100.427,14_6_2.csv
2018-07-11T10:59:48.998282,-1.205,-0.371,0.0,-26.89,1.829,131.22,14_6_2.csv
2018-07-11T10:59:49.056208,-1.37,-0.476,0.083,-46.28,-12.805,117.012,14_6_2.csv
2018-07-11T10:59:49.106343,-1.37,-0.476,0.083,-24.817,22.012,79.146,14_6_2.csv
2018-07-11T10:59:49.151964,-1.15,-0.447,0.055,15.427,32.317,37.561,14_6_2.csv
2018-07-11T10:59:49.200593,-1.15,-0.447,0.055,37.256,11.22,-11.037,14_6_2.csv
2018-07-11T10:59:49.246716,-0.8,-0.281,0.08,10.427,-4.878,-54.268,14_6_2.csv
2018-07-11T10:59:49.294342,-1.082,-0.343,-0.03,12.256,-36.098,-71.22,14_6_2.csv
2018-07-11T10:59:49.379068,-1.104,-0.229,-0.021,14.39,-52.195,-74.573,14_6_2.csv
2018-07-11T10:59:49.452262,-0.914,-0.249,-0.023,-59.817,-18.537,-105.854,14_6_2.csv
2018-07-11T10:59:49.496881,-0.914,-0.249,-0.023,-50.976,-8.171,-106.768,14_6_2.csv
2018-07-11T10:59:49.547014,-0.863,-0.249,-0.014,-19.878,-2.256,-94.512,14_6_2.csv
2018-07-11T10:59:49.590129,-0.863,-0.249,-0.014,6.951,4.451,-68.841,14_6_2.csv
2018-07-11T10:59:49.637755,-0.796,-0.208,0.16,5.793,18.171,-28.902,14_6_2.csv
2018-07-11T10:59:49.690897,-0.796,-0.208,0.16,-4.024,39.207,24.512,14_6_2.csv
2018-07-11T10:59:49.747046,-0.923,-0.247,0.24,-15.976,52.195,128.171,14_6_2.csv
2018-07-11T10:59:49.799184,-1.615,-0.435,0.158,-29.939,44.695,170.244,14_6_2.csv
2018-07-11T10:59:49.840795,-1.615,-0.435,0.158,-60.244,18.354,193.293,14_6_2.csv
2018-07-11T10:59:49.901459,-1.301,-0.524,-0.013,102.012,-77.378,75.976,14_6_2.csv
2018-07-11T10:59:50.007244,-0.674,0.065,0.123,-145.305,-79.085,-105.305,14_6_2.csv
2018-07-11T10:59:50.127063,-0.758,-0.443,-0.327,-341.768,-140.793,-90.122,14_6_2.csv
2018-07-11T10:59:50.183713,-0.584,-0.436,-0.04,-177.134,-62.561,-2.561,14_6_2.csv
2018-07-11T10:59:50.230839,-0.584,-0.436,-0.04,-37.317,16.402,43.11,14_6_2.csv
2018-07-11T10:59:50.278466,-0.917,-0.319,0.359,99.634,96.22,89.573,14_6_2.csv
2018-07-11T10:59:50.395275,-1.3,-0.627,0.107,-186.037,-59.329,64.695,14_6_2.csv
2018-07-11T10:59:50.439895,-1.178,-0.75,-0.29,278.171,-49.817,91.28,14_6_2.csv
2018-07-11T10:59:50.498551,-1.143,-0.004,0.152,271.524,-4.512,68.78,14_6_2.csv
2018-07-11T10:59:50.558209,-1.143,-0.004,0.152,49.39,12.195,-22.073,14_6_2.csv
2018-07-11T10:59:50.651457,-0.887,-0.241,0.042,-105.183,-19.573,-98.598,14_6_2.csv
2018-07-11T10:59:50.700588,-1.046,-0.46,-0.108,53.72,-50.305,-58.415,14_6_2.csv
2018-07-11T10:59:50.747212,-1.004,-0.279,0.004,82.683,-41.524,-35.732,14_6_2.csv
2018-07-11T10:59:50.799852,-1.004,-0.279,0.004,63.415,-13.659,-35.244,14_6_2.csv
2018-07-11T10:59:50.859510,-0.83,-0.222,0.011,15.0,6.402,-62.195,14_6_2.csv
2018-07-11T10:59:50.904129,-0.852,-0.235,-0.02,25.122,-2.439,-61.28,14_6_2.csv
2018-07-11T10:59:50.953761,-0.852,-0.235,-0.02,25.854,-7.927,-49.756,14_6_2.csv
2018-07-11T10:59:50.995873,-0.97,-0.193,0.002,-5.61,-6.829,-29.024,14_6_2.csv
2018-07-11T10:59:51.047009,-0.97,-0.193,0.002,-47.256,-5.793,-2.378,14_6_2.csv
2018-07-11T10:59:51.111180,-1.07,-0.264,0.015,-96.585,0.549,47.866,14_6_2.csv
2018-07-11T10:59:51.157803,-1.286,-0.399,0.132,-80.915,14.451,78.841,14_6_2.csv
2018-07-11T10:59:51.199915,-1.286,-0.399,0.132,-58.72,28.171,115.366,14_6_2.csv
2018-07-11T10:59:51.261579,-1.061,-0.528,0.183,7.927,34.146,121.098,14_6_2.csv
2018-07-11T10:59:51.380395,-0.915,-0.25,-0.01,91.037,-36.585,-7.927,14_6_2.csv
2018-07-11T10:59:51.438051,-1.119,-0.014,0.009,-214.634,-98.841,-108.72,14_6_2.csv
2018-07-11T10:59:51.481166,-0.803,-0.339,0.0,-288.049,-74.329,-113.293,14_6_2.csv
2018-07-11T10:59:51.544338,-0.739,-0.426,0.161,-113.781,-9.451,-36.037,14_6_2.csv
2018-07-11T10:59:51.610015,-0.739,-0.426,0.161,1.159,14.512,10.183,14_6_2.csv
2018-07-11T10:59:51.661656,-0.835,-0.331,0.168,23.11,29.268,55.427,14_6_2.csv
2018-07-11T10:59:51.733850,-1.09,-0.305,0.025,44.512,13.232,84.756,14_6_2.csv
2018-07-11T10:59:51.777466,-1.09,-0.305,0.025,23.049,-4.573,84.634,14_6_2.csv
2018-07-11T10:59:51.823090,-1.225,-0.36,0.11,-39.451,16.159,45.793,14_6_2.csv
2018-07-11T10:59:51.871218,-1.351,-0.478,0.091,-43.78,30.671,6.646,14_6_2.csv
2018-07-11T10:59:51.918349,-1.351,-0.478,0.091,-10.244,11.524,-9.817,14_6_2.csv
2018-07-11T10:59:51.964472,-0.879,-0.393,0.077,43.598,-16.829,-18.659,14_6_2.csv
2018-07-11T10:59:52.072261,-0.943,-0.267,0.011,108.963,-33.78,-49.573,14_6_2.csv
2018-07-11T10:59:52.125402,-1.112,-0.22,-0.026,82.317,-41.707,-36.768,14_6_2.csv
2018-07-11T10:59:52.170522,-1.112,-0.22,-0.026,12.012,-42.622,-38.049,14_6_2.csv
2018-07-11T10:59:52.216645,-0.836,-0.246,-0.026,-40.488,-40.549,-57.012,14_6_2.csv
2018-07-11T10:59:52.262269,-0.836,-0.246,-0.026,-49.756,-31.89,-77.073,14_6_2.csv
2018-07-11T10:59:52.310397,-0.888,-0.285,-0.069,6.585,-19.024,-63.11,14_6_2.csv
2018-07-11T10:59:52.379586,-0.879,-0.248,0.051,3.476,-6.646,-33.476,14_6_2.csv
2018-07-11T10:59:52.432729,-0.932,-0.255,0.142,-5.366,45.244,31.341,14_6_2.csv
2018-07-11T10:59:52.479857,-0.932,-0.255,0.142,-2.5,48.902,55.976,14_6_2.csv
2018-07-11T10:59:52.528990,-1.358,-0.24,0.014,-28.415,35.61,78.659,14_6_2.csv
2018-07-11T10:59:52.574112,-1.358,-0.24,0.014,-84.329,5.854,101.646,14_6_2.csv
2018-07-11T10:59:52.623747,-1.184,-0.52,0.159,-111.951,-3.049,119.878,14_6_2.csv
2018-07-11T10:59:52.746574,-0.822,-0.394,0.12,80.183,21.098,-4.939,14_6_2.csv
2018-07-11T10:59:52.797710,-1.187,-0.04,-0.057,-144.268,-94.024,-100.854,14_6_2.csv
2018-07-11T10:59:52.916024,-0.764,-0.424,0.115,-116.342,-0.244,-45.427,14_6_2.csv
2018-07-11T10:59:52.974680,-0.764,-0.424,0.115,2.439,17.744,5.183,14_6_2.csv
2018-07-11T10:59:53.033336,-0.884,-0.277,0.096,11.585,17.195,60.0,14_6_2.csv
2018-07-11T10:59:53.089485,-1.015,-0.37,0.073,8.049,21.89,68.78,14_6_2.csv
2018-07-11T10:59:53.136611,-1.015,-0.37,0.073,14.573,21.951,73.293,14_6_2.csv
2018-07-11T10:59:53.183736,-1.154,-0.306,0.121,29.207,13.659,61.768,14_6_2.csv
2018-07-11T10:59:53.246904,-1.36,-0.432,0.104,-119.573,11.829,-22.927,14_6_2.csv
2018-07-11T10:59:53.298541,-1.36,-0.432,0.104,-45.183,13.293,-21.89,14_6_2.csv
2018-07-11T10:59:53.346168,-0.993,-0.44,-0.015,76.646,-18.049,-5.0,14_6_2.csv
2018-07-11T10:59:53.407832,-0.932,-0.106,0.07,112.805,-32.927,-51.402,14_6_2.csv
2018-07-11T10:59:53.453955,-0.932,-0.106,0.07,20.061,-44.207,-73.171,14_6_2.csv
2018-07-11T10:59:53.500579,-1.162,-0.176,-0.074,-70.427,-64.817,-86.768,14_6_2.csv
2018-07-11T10:59:53.556229,-0.833,-0.311,-0.028,-127.012,-66.951,-76.829,14_6_2.csv
2018-07-11T10:59:53.605864,-0.833,-0.311,-0.028,-108.963,-37.988,-64.024,14_6_2.csv
2018-07-11T10:59:53.652491,-0.803,-0.293,0.013,-43.963,-11.037,-50.427,14_6_2.csv
2018-07-11T10:59:53.699616,-0.803,-0.293,0.013,10.122,-3.232,-30.0,14_6_2.csv
2018-07-11T10:59:53.747244,-0.798,-0.217,0.125,12.317,0.915,-0.244,14_6_2.csv
2018-07-11T10:59:53.831970,-1.03,-0.242,0.1,-5.549,13.354,77.378,14_6_2.csv
2018-07-11T10:59:53.882604,-1.337,-0.318,-0.009,-80.61,-17.744,131.281,14_6_2.csv
2018-07-11T10:59:53.933239,-1.337,-0.318,-0.009,-121.585,-27.5,127.5,14_6_2.csv
2018-07-11T10:59:53.981368,-1.441,-0.445,-0.015,-138.049,-30.427,105.122,14_6_2.csv
2018-07-11T10:59:54.028492,-1.441,-0.445,-0.015,-127.256,-19.817,67.927,14_6_2.csv
2018-07-11T10:59:54.102690,-0.748,-0.347,0.117,-85.61,0.915,-21.037,14_6_2.csv
2018-07-11T10:59:54.157838,-0.94,-0.201,-0.068,-108.049,-63.232,-60.488,14_6_2.csv
2018-07-11T10:59:54.213992,-1.036,-0.219,-0.083,-173.781,-102.317,-62.195,14_6_2.csv
2018-07-11T10:59:54.268136,-1.036,-0.219,-0.083,-232.561,-92.744,-55.366,14_6_2.csv
2018-07-11T10:59:54.308245,-0.76,-0.305,0.099,-233.598,-42.073,-40.366,14_6_2.csv
2018-07-11T10:59:54.357378,-0.776,-0.387,0.291,-143.415,1.646,-20.366,14_6_2.csv
2018-07-11T10:59:54.401497,-0.776,-0.387,0.291,-86.951,31.646,24.573,14_6_2.csv
2018-07-11T10:59:54.449401,-0.977,-0.45,0.167,-42.073,40.793,65.549,14_6_2.csv
2018-07-11T10:59:54.509062,-0.977,-0.45,0.167,-21.951,-23.049,72.195,14_6_2.csv
2018-07-11T10:59:54.562708,-1.062,-0.4,-0.019,22.012,-49.085,75.183,14_6_2.csv
2018-07-11T10:59:54.610837,-1.242,-0.311,0.144,0.793,-3.476,37.5,14_6_2.csv
2018-07-11T10:59:54.657965,-1.242,-0.311,0.144,-56.22,41.341,0.244,14_6_2.csv
2018-07-11T10:59:54.721135,-1.248,-0.487,0.095,-8.963,35.732,-12.012,14_6_2.csv
2018-07-11T10:59:54.761241,-0.898,-0.349,0.032,48.72,8.902,-28.72,14_6_2.csv
2018-07-11T10:59:54.817892,-0.898,-0.349,0.032,82.561,-20.122,-48.293,14_6_2.csv
2018-07-11T10:59:54.871534,-0.982,-0.163,-0.006,81.341,-58.049,-58.537,14_6_2.csv
2018-07-11T10:59:54.918158,-1.013,-0.232,0.012,30.61,-75.061,-61.524,14_6_2.csv
2018-07-11T10:59:54.965785,-1.013,-0.232,0.012,-56.341,-38.293,-56.829,14_6_2.csv
2018-07-11T10:59:55.010404,-0.828,-0.284,-0.004,-56.951,-14.756,-54.207,14_6_2.csv
2018-07-11T10:59:55.058030,-0.828,-0.284,-0.004,-27.378,-1.524,-44.024,14_6_2.csv
2018-07-11T10:59:55.111174,-0.799,-0.27,0.056,9.085,1.768,-22.5,14_6_2.csv
2018-07-11T10:59:55.167324,-0.939,-0.242,0.112,23.902,9.207,40.793,14_6_2.csv
2018-07-11T10:59:55.235511,-0.939,-0.242,0.112,2.195,9.512,61.646,14_6_2.csv
2018-07-11T10:59:55.281636,-1.139,-0.255,0.086,-58.537,4.024,68.11,14_6_2.csv
2018-07-11T10:59:55.323750,-1.354,-0.279,0.019,-77.256,1.951,62.256,14_6_2.csv
2018-07-11T10:59:55.374888,-1.354,-0.279,0.019,-110.427,-9.817,57.012,14_6_2.csv
2018-07-11T10:59:55.461618,-1.12,-0.358,0.077,-106.524,-0.488,43.232,14_6_2.csv
2018-07-11T10:59:55.574418,-1.018,-0.076,-0.054,-64.756,-29.268,-19.451,14_6_2.csv
2018-07-11T10:59:55.622045,-1.018,-0.076,-0.054,-131.89,-59.207,-30.244,14_6_2.csv
2018-07-11T10:59:55.668669,-0.891,-0.307,0.001,-138.293,-52.378,-30.915,14_6_2.csv
2018-07-11T10:59:55.713414,-0.891,-0.307,0.001,-84.451,-19.146,-19.451,14_6_2.csv
2018-07-11T10:59:55.761542,-0.827,-0.324,0.058,-23.232,11.037,-9.39,14_6_2.csv
2018-07-11T10:59:55.822711,-0.863,-0.286,0.1,10.488,28.476,-2.561,14_6_2.csv
2018-07-11T10:59:55.875855,-0.863,-0.286,0.1,20.854,29.756,17.073,14_6_2.csv
2018-07-11T10:59:55.920978,-1.037,-0.306,0.116,27.866,30.061,35.183,14_6_2.csv
2018-07-11T10:59:55.965095,-1.317,-0.323,0.07,11.524,25.793,32.561,14_6_2.csv
2018-07-11T10:59:56.013229,-1.317,-0.323,0.07,12.744,18.11,11.159,14_6_2.csv
2018-07-11T10:59:56.062360,-1.281,-0.279,0.042,-4.39,3.293,-18.963,14_6_2.csv
2018-07-11T10:59:56.118514,-1.281,-0.279,0.042,-30.366,-13.293,-39.451,14_6_2.csv
2018-07-11T10:59:56.166642,-0.918,-0.311,0.041,9.817,-22.439,-62.744,14_6_2.csv
2018-07-11T10:59:56.214776,-0.944,-0.298,0.022,36.159,-14.451,-60.732,14_6_2.csv
2018-07-11T10:59:56.261900,-0.944,-0.298,0.022,54.268,-18.537,-50.244,14_6_2.csv
2018-07-11T10:59:56.308526,-0.92,-0.243,-0.034,61.646,-27.927,-46.585,14_6_2.csv
2018-07-11T10:59:56.354648,-0.92,-0.243,-0.034,58.598,-25.732,-48.476,14_6_2.csv
2018-07-11T10:59:56.433859,-0.836,-0.227,-0.017,45.915,-8.72,-34.878,14_6_2.csv
2018-07-11T10:59:56.511566,-0.937,-0.247,-0.042,9.451,-9.085,11.646,14_6_2.csv
2018-07-11T10:59:56.558691,-1.012,-0.276,-0.039,-5.305,-2.561,25.244,14_6_2.csv
2018-07-11T10:59:56.606815,-1.012,-0.276,-0.039,-24.512,2.927,27.561,14_6_2.csv
2018-07-11T10:59:56.650932,-1.07,-0.282,-0.005,-45.244,15.122,14.756,14_6_2.csv
2018-07-11T10:59:56.700068,-1.25,-0.303,0.002,-51.829,20.549,22.927,14_6_2.csv
2018-07-11T10:59:56.753209,-1.25,-0.303,0.002,-57.622,17.317,49.329,14_6_2.csv
2018-07-11T10:59:56.874037,-0.964,-0.377,0.337,14.512,59.695,63.415,14_6_2.csv
2018-07-11T10:59:56.918658,-0.964,-0.377,0.337,44.756,3.537,11.829,14_6_2.csv
2018-07-11T10:59:56.969796,-1.167,-0.15,0.252,-120.305,-40.366,-88.476,14_6_2.csv
2018-07-11T10:59:57.014466,-0.868,-0.27,0.009,-115.061,-16.829,-80.671,14_6_2.csv
2018-07-11T10:59:57.075130,-0.868,-0.27,0.009,-91.524,-31.341,-67.561,14_6_2.csv
2018-07-11T10:59:57.131285,-0.752,-0.247,0.044,-66.951,-38.171,-19.878,14_6_2.csv
2018-07-11T10:59:57.184932,-0.764,-0.271,0.117,-74.695,-15.122,13.354,14_6_2.csv
2018-07-11T10:59:57.230052,-0.764,-0.271,0.117,-77.5,2.622,39.207,14_6_2.csv
2018-07-11T10:59:57.281193,-1.061,-0.383,0.008,-61.22,4.085,63.537,14_6_2.csv
2018-07-11T10:59:57.442625,-1.304,-0.469,0.026,-22.134,31.22,39.085,14_6_2.csv
2018-07-11T10:59:57.513815,-0.777,-0.313,0.09,38.354,9.329,-44.207,14_6_2.csv
2018-07-11T10:59:57.565953,-0.777,-0.313,0.09,46.159,-2.012,-69.39,14_6_2.csv
2018-07-11T10:59:57.615585,-1.047,-0.252,-0.011,30.732,-59.512,-60.061,14_6_2.csv
2018-07-11T10:59:57.730892,-1.017,-0.219,-0.003,-58.902,-45.793,-72.744,14_6_2.csv
2018-07-11T10:59:57.781025,-0.844,-0.27,-0.039,-25.061,-23.415,-68.598,14_6_2.csv
2018-07-11T10:59:57.824140,-0.838,-0.233,-0.022,-1.28,-18.78,-45.793,14_6_2.csv
2018-07-11T10:59:57.870766,-0.838,-0.233,-0.022,-2.744,-11.402,-13.415,14_6_2.csv
2018-07-11T10:59:57.930929,-0.858,-0.251,0.047,-20.976,0.183,23.659,14_6_2.csv
2018-07-11T10:59:57.999113,-1.058,-0.274,0.025,-13.232,17.378,87.012,14_6_2.csv
2018-07-11T10:59:58.055265,-1.546,-0.329,-0.044,-68.476,1.159,115.183,14_6_2.csv
2018-07-11T10:59:58.108406,-1.546,-0.329,-0.044,-110.854,-5.183,126.159,14_6_2.csv
2018-07-11T10:59:58.184107,-1.079,-0.708,0.191,-18.72,53.537,114.695,14_6_2.csv
2018-07-11T10:59:58.263318,-0.865,-0.291,0.044,171.22,11.341,-65.854,14_6_2.csv
2018-07-11T10:59:58.311947,-1.169,0.063,-0.108,8.598,-75.122,-110.854,14_6_2.csv
2018-07-11T10:59:58.356064,-1.169,0.063,-0.108,-170.976,-157.439,-136.585,14_6_2.csv
2018-07-11T10:59:58.418731,-0.818,-0.335,0.11,-205.305,-56.829,-138.781,14_6_2.csv
2018-07-11T10:59:58.480896,-0.819,-0.271,0.247,33.902,-10.183,-59.085,14_6_2.csv
2018-07-11T10:59:58.528022,-0.819,-0.271,0.247,148.415,5.854,-1.524,14_6_2.csv
2018-07-11T10:59:58.612246,-0.822,-0.044,0.159,-83.78,23.902,40.122,14_6_2.csv
2018-07-11T10:59:58.659371,-0.929,-0.299,0.064,-69.512,19.207,62.012,14_6_2.csv
2018-07-11T10:59:58.702485,-1.245,-0.38,0.151,-56.951,16.768,74.085,14_6_2.csv
2018-07-11T10:59:58.746102,-1.245,-0.38,0.151,-112.256,17.073,71.22,14_6_2.csv
2018-07-11T10:59:58.829323,-1.395,-0.621,0.018,-10.732,12.073,50.61,14_6_2.csv
2018-07-11T10:59:58.886976,-0.94,-0.377,-0.006,135.183,-25.366,30.305,14_6_2.csv
2018-07-11T10:59:59.012309,-0.974,-0.056,0.061,-82.012,-60.366,-95.244,14_6_2.csv
2018-07-11T10:59:59.063947,-1.073,-0.303,-0.084,-128.293,-70.976,-85.793,14_6_2.csv
2018-07-11T10:59:59.110570,-0.839,-0.337,-0.04,-88.049,-49.939,-75.976,14_6_2.csv
2018-07-11T10:59:59.157696,-0.839,-0.337,-0.04,-40.732,-23.293,-64.939,14_6_2.csv
2018-07-11T10:59:59.209835,-0.837,-0.244,-0.002,-6.707,-5.061,-48.354,14_6_2.csv
2018-07-11T10:59:59.261472,-0.849,-0.246,0.105,-0.671,6.951,-5.549,14_6_2.csv
2018-07-11T10:59:59.309600,-0.849,-0.246,0.105,14.756,20.732,26.768,14_6_2.csv
2018-07-11T10:59:59.358232,-1.005,-0.217,0.125,20.427,25.793,61.829,14_6_2.csv
2018-07-11T10:59:59.434938,-1.257,-0.271,0.063,-83.902,-1.951,115.244,14_6_2.csv
2018-07-11T10:59:59.480058,-1.257,-0.271,0.063,-119.939,-10.732,121.829,14_6_2.csv
2018-07-11T10:59:59.602888,-0.812,-0.379,0.114,-109.512,-23.902,50.183,14_6_2.csv
2018-07-11T10:59:59.652022,-0.812,-0.379,0.114,-91.28,-3.11,-15.549,14_6_2.csv
2018-07-11T10:59:59.698145,-0.84,-0.229,-0.037,-81.829,-7.317,-61.524,14_6_2.csv
2018-07-11T10:59:59.746776,-1.044,-0.238,-0.127,-142.317,-82.012,-85.305,14_6_2.csv
2018-07-11T10:59:59.792400,-1.044,-0.238,-0.127,-180.915,-86.829,-75.671,14_6_2.csv
2018-07-11T10:59:59.840529,-0.729,-0.367,0.131,-184.695,-47.561,-51.89,14_6_2.csv
2018-07-11T10:59:59.897684,-0.729,-0.367,0.131,-126.585,12.866,-29.207,14_6_2.csv
2018-07-11T10:59:59.980911,-0.936,-0.333,0.565,-65.305,22.134,15.244,14_6_2.csv
2018-07-11T11:00:00.027034,-0.874,-0.327,0.067,-5.915,-21.098,42.012,14_6_2.csv
2018-07-11T11:00:00.076169,-1.021,-0.315,-0.1,-19.085,-37.927,50.366,14_6_2.csv
2018-07-11T11:00:00.119284,-1.021,-0.315,-0.1,-25.793,-42.805,62.744,14_6_2.csv
2018-07-11T11:00:00.168420,-1.229,-0.411,0.092,-55.854,-11.524,69.878,14_6_2.csv
2018-07-11T11:00:00.323835,-0.881,-0.318,0.06,87.866,24.024,-13.171,14_6_2.csv
2018-07-11T11:00:00.424102,-0.988,-0.205,-0.02,77.012,-48.354,-69.024,14_6_2.csv
2018-07-11T11:00:00.489276,-1.112,-0.243,0.033,24.451,-84.512,-56.159,14_6_2.csv
2018-07-11T11:00:00.544424,-1.112,-0.243,0.033,-35.915,-50.488,-54.756,14_6_2.csv
2018-07-11T11:00:00.595560,-0.824,-0.259,-0.022,-65.427,-8.963,-70.671,14_6_2.csv
2018-07-11T11:00:00.639178,-0.809,-0.267,-0.053,-30.671,-8.354,-65.549,14_6_2.csv
2018-07-11T11:00:00.765514,-0.917,-0.204,0.017,-40.793,4.085,19.39,14_6_2.csv
2018-07-11T11:00:00.825172,-1.107,-0.266,0.037,-70.366,2.744,55.549,14_6_2.csv
2018-07-11T11:00:00.914911,-1.439,-0.264,0.026,-177.256,-23.049,122.134,14_6_2.csv
2018-07-11T11:00:00.966549,-1.007,-0.774,0.085,-251.22,-28.902,129.634,14_6_2.csv
2018-07-11T11:00:01.104920,-0.859,-0.401,-0.047,163.415,-22.866,-58.72,14_6_2.csv
2018-07-11T11:00:01.153550,-1.114,-0.076,-0.021,-160.0,-84.939,-109.939,14_6_2.csv
2018-07-11T11:00:01.199672,-0.781,-0.348,-0.014,-203.659,-57.744,-99.878,14_6_2.csv
2018-07-11T11:00:01.247800,-0.781,-0.348,-0.014,-150.427,-18.232,-72.683,14_6_2.csv
2018-07-11T11:00:01.294424,-0.707,-0.407,-0.011,-79.268,0.0,-35.61,14_6_2.csv
2018-07-11T11:00:01.359096,-0.848,-0.381,0.162,74.451,47.561,42.317,14_6_2.csv
2018-07-11T11:00:01.422765,-0.848,-0.381,0.162,107.622,72.439,70.061,14_6_2.csv
2018-07-11T11:00:01.464376,-1.121,-0.315,0.098,103.049,77.988,83.354,14_6_2.csv
2018-07-11T11:00:01.529048,-1.342,-0.245,0.059,30.427,12.744,34.695,14_6_2.csv
2018-07-11T11:00:01.607256,-1.218,-0.515,-0.019,-97.256,-10.549,-15.976,14_6_2.csv
2018-07-11T11:00:01.670424,-1.218,-0.515,-0.019,-22.012,-31.037,-15.427,14_6_2.csv
2018-07-11T11:00:01.727074,-0.788,-0.414,0.024,138.598,-9.451,-32.927,14_6_2.csv
2018-07-11T11:00:01.783725,-1.082,-0.236,-0.028,124.329,-9.817,-43.049,14_6_2.csv
2018-07-11T11:00:01.826840,-1.082,-0.236,-0.028,82.195,-25.061,-44.451,14_6_2.csv
2018-07-11T11:00:01.872461,-1.016,-0.218,-0.037,36.037,-29.207,-56.28,14_6_2.csv
2018-07-11T11:00:01.919085,-0.784,-0.235,-0.023,-18.659,-17.622,-75.427,14_6_2.csv
2018-07-11T11:00:01.964706,-0.784,-0.235,-0.023,-20.854,-12.622,-69.39,14_6_2.csv
2018-07-11T11:00:02.027874,-0.817,-0.224,-0.023,-11.707,-8.354,-51.768,14_6_2.csv
2018-07-11T11:00:02.079010,-0.932,-0.243,0.012,-38.841,4.573,20.366,14_6_2.csv
2018-07-11T11:00:02.122124,-0.932,-0.243,0.012,-60.793,12.378,59.634,14_6_2.csv
2018-07-11T11:00:02.168247,-1.079,-0.347,0.158,-55.427,26.22,92.866,14_6_2.csv
2018-07-11T11:00:02.214370,-1.079,-0.347,0.158,-31.402,46.037,125.305,14_6_2.csv
2018-07-11T11:00:02.321601,-1.128,-0.573,0.014,56.22,-3.659,134.451,14_6_2.csv
2018-07-11T11:00:02.448945,-0.76,0.134,0.099,-115.183,-82.5,-109.512,14_6_2.csv
2018-07-11T11:00:02.497576,-1.048,-0.167,-0.163,-305.915,-112.256,-159.634,14_6_2.csv
2018-07-11T11:00:02.545203,-1.048,-0.167,-0.163,-366.768,-112.073,-168.781,14_6_2.csv
2018-07-11T11:00:02.607368,-0.744,-0.527,-0.119,-158.842,-41.89,-75.549,14_6_2.csv
2018-07-11T11:00:02.663016,-0.647,-0.433,0.311,21.951,28.78,-22.012,14_6_2.csv
2018-07-11T11:00:02.742227,-0.934,-0.21,0.259,109.695,115.122,74.512,14_6_2.csv
2018-07-11T11:00:02.793363,-0.934,-0.21,0.259,20.427,23.354,76.89,14_6_2.csv
2018-07-11T11:00:02.839987,-1.094,-0.308,0.055,-61.098,-36.707,88.232,14_6_2.csv
2018-07-11T11:00:02.887613,-1.268,-0.49,0.076,-49.146,-16.22,91.159,14_6_2.csv
2018-07-11T11:00:02.933736,-1.268,-0.49,0.076,-17.256,17.927,78.78,14_6_2.csv
2018-07-11T11:00:03.000413,-1.31,-0.528,0.055,56.098,30.305,19.207,14_6_2.csv
2018-07-11T11:00:03.054557,-0.924,-0.254,0.083,90.732,-1.89,-23.171,14_6_2.csv
2018-07-11T11:00:03.114717,-0.924,-0.254,0.083,54.268,-25.305,-65.854,14_6_2.csv
2018-07-11T11:00:03.157330,-1.017,-0.204,-0.042,15.61,-58.049,-86.89,14_6_2.csv
2018-07-11T11:00:03.206962,-0.998,-0.269,0.002,-43.415,-90.244,-81.402,14_6_2.csv
2018-07-11T11:00:03.248573,-0.998,-0.269,0.002,-66.22,-50.915,-75.61,14_6_2.csv
2018-07-11T11:00:03.296199,-0.759,-0.292,0.012,-63.354,-7.317,-67.256,14_6_2.csv
2018-07-11T11:00:03.359869,-0.759,-0.292,0.012,-30.732,13.659,-54.817,14_6_2.csv
2018-07-11T11:00:03.418525,-0.835,-0.264,-0.062,33.354,4.817,-13.537,14_6_2.csv
2018-07-11T11:00:03.485703,-0.847,-0.353,0.116,138.659,85.183,73.171,14_6_2.csv
2018-07-11T11:00:03.546365,-1.085,-0.23,0.074,174.695,105.61,99.024,14_6_2.csv
2018-07-11T11:00:03.658162,-1.468,-0.042,0.023,-106.89,22.744,81.037,14_6_2.csv
2018-07-11T11:00:03.747399,-1.281,-0.263,0.09,-329.756,-22.317,26.89,14_6_2.csv
2018-07-11T11:00:03.835634,-0.764,-0.464,0.086,-103.842,-24.39,-68.354,14_6_2.csv
2018-07-11T11:00:03.892284,-1.11,-0.066,0.043,-28.476,-129.512,-73.78,14_6_2.csv
2018-07-11T11:00:03.937906,-0.867,-0.126,0.032,-180.061,-100.915,-90.366,14_6_2.csv
2018-07-11T11:00:03.984028,-0.867,-0.126,0.032,-281.463,-52.927,-67.988,14_6_2.csv
2018-07-11T11:00:04.030653,-0.698,-0.404,-0.023,-249.756,-23.963,-40.61,14_6_2.csv
2018-07-11T11:00:04.079783,-0.698,-0.404,-0.023,-93.293,-4.939,-21.463,14_6_2.csv
2018-07-11T11:00:04.127911,-0.774,-0.333,0.293,-3.293,37.012,58.537,14_6_2.csv
2018-07-11T11:00:04.188572,-1.063,-0.398,0.261,-80.793,43.293,61.402,14_6_2.csv
2018-07-11T11:00:04.231687,-1.063,-0.398,0.261,-77.317,3.049,56.646,14_6_2.csv
2018-07-11T11:00:04.280317,-1.16,-0.469,-0.026,2.561,-18.232,74.39,14_6_2.csv
2018-07-11T11:00:04.326940,-1.318,-0.415,0.089,39.329,-8.171,74.573,14_6_2.csv
2018-07-11T11:00:04.374065,-1.318,-0.415,0.089,2.256,33.78,15.305,14_6_2.csv
2018-07-11T11:00:04.442748,-1.063,-0.407,0.019,66.524,7.927,-2.683,14_6_2.csv
2018-07-11T11:00:04.496892,-1.065,-0.11,0.036,99.329,-40.976,-65.0,14_6_2.csv
2018-07-11T11:00:04.547526,-1.065,-0.11,0.036,1.951,-68.902,-90.488,14_6_2.csv
2018-07-11T11:00:04.592646,-1.047,-0.145,-0.024,-85.244,-87.988,-111.646,14_6_2.csv
2018-07-11T11:00:04.642279,-1.047,-0.145,-0.024,-129.817,-85.427,-119.878,14_6_2.csv
2018-07-11T11:00:04.687399,-0.82,-0.231,-0.073,-213.171,-52.256,-99.634,14_6_2.csv
2018-07-11T11:00:04.737030,-0.731,-0.36,-0.107,-195.854,-26.098,-75.61,14_6_2.csv
2018-07-11T11:00:04.794686,-0.731,-0.36,-0.107,-118.963,-11.524,-36.585,14_6_2.csv
2018-07-11T11:00:04.847827,-0.764,-0.339,-0.025,-45.732,-11.463,4.451,14_6_2.csv
2018-07-11T11:00:04.902977,-0.988,-0.284,0.133,33.293,14.939,93.354,14_6_2.csv
2018-07-11T11:00:04.999233,-1.458,-0.539,0.106,-105.793,-17.378,203.049,14_6_2.csv
2018-07-11T11:00:05.044353,-1.458,-0.539,0.106,-140.305,-17.256,209.939,14_6_2.csv
2018-07-11T11:00:05.110027,-1.457,-0.592,-0.1,129.268,-71.402,52.744,14_6_2.csv
2018-07-11T11:00:05.155147,-0.783,-0.041,0.14,18.841,-62.744,-27.927,14_6_2.csv
2018-07-11T11:00:05.214808,-0.921,-0.297,-0.159,-273.72,-61.707,-119.024,14_6_2.csv
2018-07-11T11:00:05.335130,-0.992,-0.395,-0.106,-55.0,-61.463,-82.195,14_6_2.csv
2018-07-11T11:00:05.402810,-0.72,-0.246,0.141,-33.598,-12.439,-48.232,14_6_2.csv
2018-07-11T11:00:05.450938,-0.72,-0.246,0.141,-20.976,26.402,-24.756,14_6_2.csv
2018-07-11T11:00:05.497060,-0.759,-0.2,0.11,-12.927,30.61,39.939,14_6_2.csv
2018-07-11T11:00:05.545691,-0.849,-0.267,0.165,-39.268,28.11,79.207,14_6_2.csv
2018-07-11T11:00:05.589809,-0.849,-0.267,0.165,-53.659,43.78,118.537,14_6_2.csv
2018-07-11T11:00:05.651979,-1.274,-0.482,0.158,-55.976,64.573,150.854,14_6_2.csv
2018-07-11T11:00:05.699105,-1.321,-0.584,-0.031,48.902,15.488,158.293,14_6_2.csv
2018-07-11T11:00:05.744228,-1.321,-0.584,-0.031,186.098,28.415,109.756,14_6_2.csv
2018-07-11T11:00:05.841991,-1.396,-0.14,0.081,-71.951,-14.573,-54.756,14_6_2.csv
2018-07-11T11:00:05.888614,-0.819,-0.371,0.037,-113.293,-50.732,-93.841,14_6_2.csv
2018-07-11T11:00:05.933233,-0.819,-0.371,0.037,-45.305,-48.659,-114.024,14_6_2.csv
2018-07-11T11:00:05.990386,-0.937,-0.38,-0.035,101.646,-24.268,-95.061,14_6_2.csv
2018-07-11T11:00:06.048039,-1.131,-0.227,-0.097,84.756,-29.207,-64.878,14_6_2.csv
2018-07-11T11:00:06.111207,-0.89,-0.273,-0.058,3.902,-34.207,-48.415,14_6_2.csv
2018-07-11T11:00:06.163347,-0.89,-0.273,-0.058,-6.159,-30.0,-56.341,14_6_2.csv
2018-07-11T11:00:06.214987,-1.038,-0.503,0.164,-17.317,-19.512,-66.646,14_6_2.csv
2018-07-11T11:00:06.262616,-1.185,-0.842,0.099,-129.207,4.878,-168.598,14_6_2.csv
2018-07-11T11:00:06.369905,-0.77,-1.017,-0.017,-60.366,-63.232,-232.317,14_6_2.csv
2018-07-11T11:00:06.442600,-0.409,-1.056,-0.097,-3.963,-88.415,-153.415,14_6_2.csv
2018-07-11T11:00:06.527826,-0.267,-1.4,-0.104,8.476,-60.915,-129.268,14_6_2.csv
2018-07-11T11:00:06.576456,-0.267,-1.4,-0.104,53.476,-3.902,-195.366,14_6_2.csv
2018-07-11T11:00:06.620576,-0.153,-1.094,0.005,96.89,52.134,-276.098,14_6_2.csv
2018-07-11T11:00:06.670709,0.147,-0.676,0.171,93.902,40.854,-280.0,14_6_2.csv
2018-07-11T11:00:06.735888,0.147,-0.676,0.171,103.842,43.049,-276.585,14_6_2.csv
2018-07-11T11:00:06.797055,0.342,-0.232,0.402,149.939,39.878,-249.39,14_6_2.csv
2018-07-11T11:00:06.919884,0.648,0.307,0.565,67.195,-19.512,-151.646,14_6_2.csv
2018-07-11T11:00:06.986061,0.789,0.349,0.478,54.695,12.927,-77.561,14_6_2.csv
2018-07-11T11:00:07.030177,0.789,0.349,0.478,42.622,21.585,-48.659,14_6_2.csv
2018-07-11T11:00:07.074294,0.876,0.301,0.627,48.598,12.927,-19.329,14_6_2.csv
2018-07-11T11:00:07.139969,0.876,0.301,0.627,39.695,9.207,7.683,14_6_2.csv
2018-07-11T11:00:07.245750,0.739,0.26,0.399,5.0,17.744,-14.207,14_6_2.csv
2018-07-11T11:00:07.293878,0.739,0.26,0.399,-12.317,8.476,-8.659,14_6_2.csv
2018-07-11T11:00:07.341505,0.757,0.166,0.505,-10.305,2.134,9.756,14_6_2.csv
2018-07-11T11:00:07.387126,0.679,0.28,0.533,51.098,19.695,18.902,14_6_2.csv
2018-07-11T11:00:07.432747,0.679,0.28,0.533,65.61,18.049,18.72,14_6_2.csv
2018-07-11T11:00:07.498432,0.728,0.298,0.485,25.244,14.695,13.171,14_6_2.csv
2018-07-11T11:00:07.549567,0.774,0.328,0.556,30.793,11.22,22.622,14_6_2.csv
2018-07-11T11:00:07.591183,0.774,0.328,0.556,56.89,17.744,24.451,14_6_2.csv
2018-07-11T11:00:07.639310,0.834,0.387,0.662,57.195,23.902,28.232,14_6_2.csv
2018-07-11T11:00:07.728553,0.824,0.446,0.666,92.317,33.963,43.78,14_6_2.csv
2018-07-11T11:00:07.777690,0.824,0.446,0.666,111.89,27.927,59.329,14_6_2.csv
2018-07-11T11:00:07.895004,0.275,0.467,0.298,172.012,120.854,162.012,14_6_2.csv
2018-07-11T11:00:07.980732,-0.023,0.307,0.609,-11.951,214.268,235.61,14_6_2.csv
2018-07-11T11:00:08.027356,-0.414,-0.196,0.777,-214.634,226.463,305.183,14_6_2.csv
2018-07-11T11:00:08.075484,-0.414,-0.196,0.777,-386.951,170.488,316.951,14_6_2.csv
2018-07-11T11:00:08.120604,-0.545,-1.142,0.547,-173.963,125.549,355.793,14_6_2.csv
2018-07-11T11:00:08.167729,-0.545,-1.142,0.547,245.732,137.683,395.366,14_6_2.csv
2018-07-11T11:00:08.216862,-0.89,-0.249,0.553,255.0,205.854,347.195,14_6_2.csv
2018-07-11T11:00:08.263987,-0.89,-0.249,0.553,-15.305,245.244,240.366,14_6_2.csv
2018-07-11T11:00:08.340195,-1.354,-0.241,0.11,-262.927,212.744,141.342,14_6_2.csv
2018-07-11T11:00:08.408880,-1.897,-0.594,0.139,-243.293,239.634,176.646,14_6_2.csv
2018-07-11T11:00:08.465029,-1.783,-0.541,-0.031,-184.817,210.305,142.927,14_6_2.csv
2018-07-11T11:00:08.512155,-1.219,-0.239,0.122,-69.146,65.366,-33.963,14_6_2.csv
2018-07-11T11:00:08.560283,-1.219,-0.239,0.122,-186.098,9.573,-88.902,14_6_2.csv
2018-07-11T11:00:08.605904,-0.785,-0.517,0.229,-235.366,0.427,-103.415,14_6_2.csv
2018-07-11T11:00:08.858074,-0.952,-0.044,0.103,19.207,-118.781,-132.012,14_6_2.csv
2018-07-11T11:00:08.919738,-0.837,-0.261,-0.043,-132.866,-92.805,-92.073,14_6_2.csv
2018-07-11T11:00:08.980901,-0.837,-0.261,-0.043,-134.207,-84.329,-60.915,14_6_2.csv
2018-07-11T11:00:09.027023,-0.818,-0.309,-0.042,-117.744,-74.817,-34.329,14_6_2.csv
2018-07-11T11:00:09.130799,-0.995,-0.335,0.054,-15.427,10.61,82.439,14_6_2.csv
2018-07-11T11:00:09.186447,-1.335,-0.334,-0.009,-21.585,18.78,127.073,14_6_2.csv
2018-07-11T11:00:09.229063,-1.335,-0.334,-0.009,-56.646,11.829,165.854,14_6_2.csv
2018-07-11T11:00:09.278195,-0.928,-0.495,0.153,-34.695,48.963,153.476,14_6_2.csv
2018-07-11T11:00:09.363425,-1.026,-0.307,0.043,49.756,30.793,17.683,14_6_2.csv
2018-07-11T11:00:09.424089,-1.089,-0.104,-0.022,-48.476,-24.268,-34.024,14_6_2.csv
2018-07-11T11:00:09.469711,-1.089,-0.104,-0.022,-178.049,-60.488,-57.012,14_6_2.csv
2018-07-11T11:00:09.512825,-0.761,-0.393,0.033,-226.951,-32.988,-35.793,14_6_2.csv
2018-07-11T11:00:09.574991,-0.81,-0.555,0.071,-117.134,-6.037,-4.329,14_6_2.csv
2018-07-11T11:00:09.625125,-0.81,-0.555,0.071,12.988,20.427,19.634,14_6_2.csv
2018-07-11T11:00:09.687291,-0.992,-0.334,0.168,78.11,49.451,18.232,14_6_2.csv
2018-07-11T11:00:09.745450,-1.194,-0.272,0.077,30.61,36.829,8.476,14_6_2.csv
2018-07-11T11:00:09.794581,-1.321,-0.325,0.088,3.78,-16.159,-20.976,14_6_2.csv
2018-07-11T11:00:09.844718,-1.321,-0.325,0.088,-10.549,-13.11,-22.561,14_6_2.csv
2018-07-11T11:00:09.892847,-1.089,-0.371,0.111,13.354,-10.366,-16.402,14_6_2.csv
2018-07-11T11:00:09.938974,-1.089,-0.371,0.111,68.902,-18.171,-34.573,14_6_2.csv
2018-07-11T11:00:09.995123,-1.048,-0.175,0.05,8.354,-63.72,-82.5,14_6_2.csv
2018-07-11T11:00:10.076343,-1.149,-0.179,-0.074,-51.098,-100.854,-117.073,14_6_2.csv
2018-07-11T11:00:10.125477,-0.778,-0.246,0.037,-76.28,-75.366,-107.439,14_6_2.csv
2018-07-11T11:00:10.172603,-0.778,-0.246,0.037,-95.915,-39.573,-84.878,14_6_2.csv
2018-07-11T11:00:10.215216,-0.71,-0.28,-0.003,-68.171,-16.585,-55.915,14_6_2.csv
2018-07-11T11:00:10.263845,-0.71,-0.28,-0.003,-17.561,-12.683,-18.902,14_6_2.csv
2018-07-11T11:00:10.319995,-0.839,-0.203,-0.015,-45.854,-17.012,58.659,14_6_2.csv
2018-07-11T11:00:10.400709,-0.979,-0.301,0.034,-76.524,5.244,129.756,14_6_2.csv
2018-07-11T11:00:10.495461,-1.301,-0.404,-0.007,-51.585,13.537,167.805,14_6_2.csv
2018-07-11T11:00:10.546096,-1.555,-0.495,-0.019,-65.244,14.268,159.878,14_6_2.csv
2018-07-11T11:00:10.595226,-1.555,-0.495,-0.019,-72.683,15.427,136.159,14_6_2.csv
2018-07-11T11:00:10.653381,-0.899,-0.447,0.161,-33.171,26.829,26.707,14_6_2.csv
2018-07-11T11:00:10.704517,-0.827,-0.237,0.017,-62.134,10.183,-38.72,14_6_2.csv
2018-07-11T11:00:10.762170,-1.057,-0.298,-0.119,-133.171,-70.183,-95.915,14_6_2.csv
2018-07-11T11:00:10.808293,-1.057,-0.298,-0.119,-156.402,-92.317,-106.159,14_6_2.csv
2018-07-11T11:00:10.856922,-0.841,-0.4,0.09,-156.524,-63.841,-106.159,14_6_2.csv
2018-07-11T11:00:10.900540,-0.841,-0.4,0.09,-110.488,-2.866,-86.89,14_6_2.csv
2018-07-11T11:00:10.949670,-0.927,-0.256,0.404,17.683,67.561,-55.793,14_6_2.csv
2018-07-11T11:00:11.013846,-0.91,0.109,0.305,124.939,-25.732,39.329,14_6_2.csv
2018-07-11T11:00:11.066487,-0.91,0.109,0.305,-47.439,3.354,9.451,14_6_2.csv
2018-07-11T11:00:11.125143,-1.041,-0.364,-0.027,-108.354,-4.451,47.317,14_6_2.csv
2018-07-11T11:00:11.169763,-1.22,-0.432,-0.029,-56.341,-12.744,41.037,14_6_2.csv
2018-07-11T11:00:11.221901,-1.22,-0.432,-0.029,-34.512,-1.89,29.207,14_6_2.csv
2018-07-11T11:00:11.263511,-1.26,-0.405,0.144,-43.841,29.451,14.268,14_6_2.csv
2018-07-11T11:00:11.464045,-0.969,-0.225,-0.023,77.744,-52.012,-29.024,14_6_2.csv
2018-07-11T11:00:11.530221,-0.997,-0.246,0.02,-28.476,-32.378,-29.939,14_6_2.csv
2018-07-11T11:00:11.578348,-0.807,-0.306,0.0,-28.354,-13.232,-37.317,14_6_2.csv
2018-07-11T11:00:11.627980,-0.807,-0.306,0.0,-8.232,-6.402,-39.146,14_6_2.csv
2018-07-11T11:00:11.670594,-0.826,-0.248,-0.021,13.293,-10.793,-34.451,14_6_2.csv
2018-07-11T11:00:11.720727,-0.826,-0.248,-0.021,11.89,-13.659,-23.232,14_6_2.csv
2018-07-11T11:00:11.812471,-1.142,-0.305,-0.048,-66.037,-4.634,30.366,14_6_2.csv
2018-07-11T11:00:11.863607,-1.142,-0.305,-0.048,-73.963,4.634,40.976,14_6_2.csv
2018-07-11T11:00:12.013505,-0.952,-0.529,0.351,4.695,72.256,84.512,14_6_2.csv
2018-07-11T11:00:12.077175,-0.927,-0.309,0.056,33.963,-9.085,10.549,14_6_2.csv
2018-07-11T11:00:12.122294,-0.927,-0.309,0.056,60.366,-99.939,-50.427,14_6_2.csv
2018-07-11T11:00:12.189473,-1.148,-0.111,0.041,-99.329,-98.598,-108.354,14_6_2.csv
2018-07-11T11:00:12.256652,-0.815,-0.239,0.059,-191.707,-20.427,-104.939,14_6_2.csv
2018-07-11T11:00:12.326839,-0.743,-0.353,0.068,-3.841,1.22,-27.561,14_6_2.csv
2018-07-11T11:00:12.374465,-0.779,-0.222,0.212,15.366,6.341,19.085,14_6_2.csv
2018-07-11T11:00:12.425100,-0.779,-0.222,0.212,-13.415,17.927,53.841,14_6_2.csv
2018-07-11T11:00:12.470220,-1.049,-0.319,0.08,-38.476,22.927,82.744,14_6_2.csv
2018-07-11T11:00:12.547425,-1.331,-0.462,-0.002,-29.634,-26.951,124.634,14_6_2.csv
2018-07-11T11:00:12.599062,-1.331,-0.462,-0.002,-20.976,-14.512,112.866,14_6_2.csv
2018-07-11T11:00:12.652203,-1.302,-0.534,0.042,29.512,29.451,42.073,14_6_2.csv
2018-07-11T11:00:12.700331,-0.831,-0.379,0.05,81.159,22.683,-0.854,14_6_2.csv
2018-07-11T11:00:12.826166,-1.018,-0.339,-0.009,107.195,-33.049,-42.439,14_6_2.csv
2018-07-11T11:00:12.870283,-1.064,-0.227,0.021,92.256,-41.463,-47.927,14_6_2.csv
2018-07-11T11:00:12.918412,-1.064,-0.227,0.021,37.439,-35.183,-72.988,14_6_2.csv
2018-07-11T11:00:12.970049,-0.924,-0.195,-0.009,-33.659,-35.976,-109.085,14_6_2.csv
2018-07-11T11:00:13.050262,-0.871,-0.207,-0.042,-63.354,-36.463,-83.78,14_6_2.csv
2018-07-11T11:00:13.105409,-0.855,-0.25,-0.005,-74.695,-25.549,-48.476,14_6_2.csv
2018-07-11T11:00:13.176598,-0.974,-0.313,0.131,-69.39,8.963,50.366,14_6_2.csv
2018-07-11T11:00:13.218208,-0.974,-0.313,0.131,-48.72,33.78,95.122,14_6_2.csv
2018-07-11T11:00:13.262827,-1.542,-0.594,0.316,-31.829,76.402,157.866,14_6_2.csv
2018-07-11T11:00:13.335019,-1.103,-0.547,-0.091,135.183,30.671,191.098,14_6_2.csv
2018-07-11T11:00:13.386656,-1.103,-0.547,-0.091,270.0,-73.659,128.842,14_6_2.csv
2018-07-11T11:00:13.434784,-0.749,0.295,-0.071,153.963,-80.122,46.829,14_6_2.csv
2018-07-11T11:00:13.498955,-1.114,-0.14,-0.228,-340.183,-169.268,-158.354,14_6_2.csv
2018-07-11T11:00:13.544576,-1.114,-0.14,-0.228,-500.0,-168.963,-167.622,14_6_2.csv
2018-07-11T11:00:13.593205,-0.628,-0.631,-0.247,-475.854,-109.024,-76.402,14_6_2.csv
2018-07-11T11:00:13.645344,-0.628,-0.631,-0.247,-296.951,-68.354,-16.22,14_6_2.csv
2018-07-11T11:00:13.701493,-0.578,-0.434,-0.019,77.927,43.598,48.293,14_6_2.csv
2018-07-11T11:00:13.747616,-0.938,-0.373,0.311,148.537,107.256,112.012,14_6_2.csv
2018-07-11T11:00:13.794240,-0.938,-0.373,0.311,129.512,168.598,149.268,14_6_2.csv
2018-07-11T11:00:13.846880,-1.307,-0.588,0.11,-137.927,93.963,100.976,14_6_2.csv
2018-07-11T11:00:13.894506,-1.237,-0.53,-0.118,233.049,-36.22,38.537,14_6_2.csv
2018-07-11T11:00:13.951157,-1.237,-0.53,-0.118,252.5,-28.11,19.268,14_6_2.csv
2018-07-11T11:00:14.012821,-1.239,-0.211,0.099,114.756,-17.195,-14.512,14_6_2.csv
2018-07-11T11:00:14.062453,-0.882,-0.328,0.037,34.573,-25.793,-47.256,14_6_2.csv
2018-07-11T11:00:14.108074,-0.882,-0.328,0.037,77.134,-26.707,-67.622,14_6_2.csv
2018-07-11T11:00:14.154698,-1.123,-0.201,-0.026,63.415,-35.427,-80.732,14_6_2.csv
2018-07-11T11:00:14.199317,-1.123,-0.201,-0.026,12.866,-59.329,-95.793,14_6_2.csv
2018-07-11T11:00:14.253962,-1.062,-0.153,-0.042,-33.598,-79.634,-103.902,14_6_2.csv
2018-07-11T11:00:14.313121,-0.782,-0.243,-0.035,-142.439,-59.268,-94.878,14_6_2.csv
2018-07-11T11:00:14.354230,-0.782,-0.243,-0.035,-129.512,-39.451,-85.976,14_6_2.csv
2018-07-11T11:00:14.409381,-0.764,-0.28,-0.03,-77.256,-24.329,-59.207,14_6_2.csv
2018-07-11T11:00:14.456506,-1.078,-0.39,0.228,-34.268,-14.695,-15.61,14_6_2.csv
2018-07-11T11:00:14.540737,-1.078,-0.39,0.228,60.793,62.866,151.585,14_6_2.csv
2018-07-11T11:00:14.603909,-1.078,-0.39,0.228,111.463,93.902,208.476,14_6_2.csv
2018-07-11T11:00:14.685128,-1.638,-0.257,-0.039,6.585,38.902,217.378,14_6_2.csv
2018-07-11T11:00:14.730248,-1.454,-0.251,0.091,-93.232,-30.244,146.585,14_6_2.csv
2018-07-11T11:00:14.778376,-1.454,-0.251,0.091,-158.537,-30.915,45.793,14_6_2.csv
2018-07-11T11:00:14.840541,-0.656,-0.146,0.063,-297.378,-27.256,-117.378,14_6_2.csv
2018-07-11T11:00:14.886664,-0.854,-0.341,-0.325,-280.732,-50.0,-143.049,14_6_2.csv
2018-07-11T11:00:14.943314,-0.817,-0.397,-0.179,-182.988,-136.342,-81.402,14_6_2.csv
2018-07-11T11:00:14.996957,-0.817,-0.397,-0.179,-194.146,-118.659,-26.037,14_6_2.csv
2018-07-11T11:00:15.046589,-0.676,-0.387,0.072,-209.268,-56.89,7.683,14_6_2.csv
2018-07-11T11:00:15.097223,-0.676,-0.387,0.072,-144.329,28.537,29.573,14_6_2.csv
2018-07-11T11:00:15.140839,-1.067,-0.426,0.627,7.134,213.963,83.72,14_6_2.csv
2018-07-11T11:00:15.187463,-1.143,-0.52,0.156,-96.341,-27.683,56.341,14_6_2.csv
2018-07-11T11:00:15.247123,-1.143,-0.52,0.156,100.0,-77.988,30.854,14_6_2.csv
2018-07-11T11:00:15.295751,-1.037,-0.321,-0.145,192.622,-36.707,36.89,14_6_2.csv
2018-07-11T11:00:15.341372,-1.265,-0.268,0.16,20.61,7.927,15.305,14_6_2.csv
2018-07-11T11:00:15.394015,-1.265,-0.268,0.16,-72.195,55.976,-4.817,14_6_2.csv
2018-07-11T11:00:15.456683,-1.075,-0.422,0.065,-52.927,46.28,-16.098,14_6_2.csv
2018-07-11T11:00:15.591542,-1.085,-0.035,0.043,-25.549,-110.915,-75.549,14_6_2.csv
2018-07-11T11:00:15.643179,-1.085,-0.035,0.043,-107.439,-104.573,-74.878,14_6_2.csv
2018-07-11T11:00:15.694315,-0.803,-0.232,0.012,-200.61,-77.439,-58.659,14_6_2.csv
2018-07-11T11:00:15.766008,-0.799,-0.327,-0.083,-149.939,-59.695,-52.317,14_6_2.csv
2018-07-11T11:00:15.812130,-0.799,-0.327,-0.083,-79.512,-58.415,-20.549,14_6_2.csv
2018-07-11T11:00:15.903377,-0.881,-0.246,-0.016,-78.659,-34.939,48.354,14_6_2.csv
2018-07-11T11:00:15.949504,-1.014,-0.304,-0.003,-92.317,-15.976,116.89,14_6_2.csv
2018-07-11T11:00:16.009665,-1.334,-0.436,-0.068,-83.11,-8.232,146.707,14_6_2.csv
2018-07-11T11:00:16.078853,-1.42,-0.618,-0.047,-53.659,-18.537,156.281,14_6_2.csv
2018-07-11T11:00:16.123973,-1.42,-0.618,-0.047,-3.415,1.951,129.268,14_6_2.csv
2018-07-11T11:00:16.168095,-0.687,-0.323,0.176,43.354,39.146,65.976,14_6_2.csv
2018-07-11T11:00:16.217226,-0.687,-0.323,0.176,26.524,44.085,-26.89,14_6_2.csv
2018-07-11T11:00:16.263352,-0.878,-0.149,-0.041,-34.268,22.256,-89.878,14_6_2.csv
2018-07-11T11:00:16.313486,-1.078,-0.267,0.011,-141.037,-75.61,-93.598,14_6_2.csv
2018-07-11T11:00:16.356604,-1.078,-0.267,0.011,-159.939,-92.683,-70.122,14_6_2.csv
2018-07-11T11:00:16.528063,-0.918,-0.303,0.125,26.098,14.939,61.707,14_6_2.csv
2018-07-11T11:00:16.576191,-0.857,-0.299,-0.046,42.988,15.549,47.622,14_6_2.csv
2018-07-11T11:00:16.621812,-0.857,-0.299,-0.046,5.671,15.122,38.902,14_6_2.csv
2018-07-11T11:00:16.669096,-1.089,-0.387,0.021,-15.488,32.561,36.768,14_6_2.csv
2018-07-11T11:00:16.727251,-1.435,-0.361,0.181,-2.256,46.768,15.976,14_6_2.csv
2018-07-11T11:00:16.797442,-1.196,-0.14,0.104,122.866,26.768,-16.646,14_6_2.csv
2018-07-11T11:00:16.848583,-1.196,-0.14,0.104,312.012,-42.317,38.537,14_6_2.csv
2018-07-11T11:00:16.903728,-0.891,0.218,0.177,273.293,-43.049,32.561,14_6_2.csv
2018-07-11T11:00:16.949856,-1.114,-0.108,-0.142,-244.695,-84.451,-102.805,14_6_2.csv
2018-07-11T11:00:16.995978,-1.114,-0.108,-0.142,-300.793,-108.537,-141.098,14_6_2.csv
2018-07-11T11:00:17.048122,-0.973,-0.473,-0.227,-258.963,-126.463,-125.183,14_6_2.csv
2018-07-11T11:00:17.089231,-0.973,-0.473,-0.227,-180.305,-120.0,-99.512,14_6_2.csv
2018-07-11T11:00:17.136860,-0.814,-0.322,-0.047,-105.366,-84.634,-85.732,14_6_2.csv
2018-07-11T11:00:17.208552,-0.798,-0.25,-0.016,-2.378,4.878,-39.207,14_6_2.csv
2018-07-11T11:00:17.309825,-0.818,-0.296,0.061,17.744,37.439,43.902,14_6_2.csv
2018-07-11T11:00:17.481288,-1.602,-0.313,-0.01,-40.427,22.622,152.073,14_6_2.csv
2018-07-11T11:00:17.542451,-0.914,-0.426,0.29,-51.037,44.146,111.037,14_6_2.csv
2018-07-11T11:00:17.644222,-0.833,-0.275,0.07,0.122,2.866,-39.634,14_6_2.csv
2018-07-11T11:00:17.699368,-1.081,-0.343,-0.063,-54.451,-62.561,-40.427,14_6_2.csv
2018-07-11T11:00:17.763539,-0.95,-0.482,0.098,-48.841,-73.78,-40.244,14_6_2.csv
2018-07-11T11:00:17.810165,-0.95,-0.482,0.098,28.476,-12.195,-43.78,14_6_2.csv
2018-07-11T11:00:17.860299,-0.977,-0.391,0.001,109.573,35.732,-45.732,14_6_2.csv
2018-07-11T11:00:17.922469,-1.04,-0.287,-0.059,152.378,25.793,-40.0,14_6_2.csv
2018-07-11T11:00:18.076883,-0.975,-0.338,-0.057,151.281,22.5,11.463,14_6_2.csv
2018-07-11T11:00:18.122003,-0.975,-0.338,-0.057,156.159,20.488,13.171,14_6_2.csv
2018-07-11T11:00:18.170130,-1.081,-0.372,-0.071,161.585,19.207,15.427,14_6_2.csv
2018-07-11T11:00:18.215250,-1.081,-0.372,-0.071,162.805,18.598,19.024,14_6_2.csv
2018-07-11T11:00:18.262376,-1.121,-0.41,-0.057,164.085,19.146,18.354,14_6_2.csv
2018-07-11T11:00:18.330557,-0.966,-0.255,-0.098,142.561,-4.695,-35.061,14_6_2.csv
2018-07-11T11:00:18.487976,-0.94,-0.359,-0.044,74.817,9.268,-44.329,14_6_2.csv
2018-07-11T11:00:18.527581,-0.94,-0.359,-0.044,108.293,37.744,-5.854,14_6_2.csv
2018-07-11T11:00:18.629351,-1.042,-0.333,-0.187,46.037,-6.037,34.207,14_6_2.csv
2018-07-11T11:00:18.780253,-1.039,-0.375,-0.159,188.354,45.549,-60.427,14_6_2.csv
2018-07-11T11:00:18.856956,-1.072,-0.256,-0.082,104.573,39.695,-87.927,14_6_2.csv
2018-07-11T11:00:18.919623,-1.051,-0.271,-0.076,66.159,34.512,-83.354,14_6_2.csv
2018-07-11T11:00:19.060498,-1.139,-0.337,0.0,55.305,53.902,-53.354,14_6_2.csv
2018-07-11T11:00:19.127175,-0.833,-0.35,0.172,132.073,138.659,-19.146,14_6_2.csv
2018-07-11T11:00:19.172295,-0.833,-0.35,0.172,189.207,153.171,-26.098,14_6_2.csv
2018-07-11T11:00:19.220925,-1.134,-0.174,0.095,216.89,135.305,-37.866,14_6_2.csv
2018-07-11T11:00:19.265042,-1.134,-0.174,0.095,194.756,94.146,-31.89,14_6_2.csv
2018-07-11T11:00:19.326706,-1.147,-0.026,0.255,63.171,35.122,-7.5,14_6_2.csv
2018-07-11T11:00:19.376839,-0.913,-0.062,0.307,-0.61,28.11,-6.585,14_6_2.csv
2018-07-11T11:00:19.436999,-0.913,-0.062,0.307,-30.976,13.78,10.0,14_6_2.csv
2018-07-11T11:00:19.506684,-0.92,-0.189,0.202,-47.927,-9.268,73.232,14_6_2.csv
2018-07-11T11:00:19.573361,-1.053,-0.299,0.104,-47.195,-17.317,126.524,14_6_2.csv
2018-07-11T11:00:19.622993,-1.195,-0.389,0.015,-49.695,-15.671,139.024,14_6_2.csv
2018-07-11T11:00:19.669617,-1.195,-0.389,0.015,-49.756,-14.268,130.488,14_6_2.csv
2018-07-11T11:00:19.715740,-1.361,-0.534,-0.013,-34.146,-9.268,107.5,14_6_2.csv
2018-07-11T11:00:19.762865,-1.361,-0.534,-0.013,2.256,2.988,72.195,14_6_2.csv
2018-07-11T11:00:19.823025,-0.966,-0.409,0.038,42.317,12.866,-40.366,14_6_2.csv
2018-07-11T11:00:19.875164,-0.879,-0.308,-0.049,20.732,-5.671,-82.683,14_6_2.csv
2018-07-11T11:00:19.921286,-0.879,-0.308,-0.049,10.305,-27.866,-88.902,14_6_2.csv
2018-07-11T11:00:19.989969,-1.035,-0.405,-0.058,82.561,-17.805,-61.829,14_6_2.csv
2018-07-11T11:00:20.044614,-1.01,-0.313,-0.024,105.671,6.646,-59.512,14_6_2.csv
2018-07-11T11:00:20.125329,-1.055,-0.267,-0.072,64.39,-12.805,-84.024,14_6_2.csv
2018-07-11T11:00:20.181979,-1.049,-0.237,-0.072,49.756,-20.793,-89.634,14_6_2.csv
2018-07-11T11:00:20.232614,-1.049,-0.237,-0.072,27.317,-14.756,-92.561,14_6_2.csv
2018-07-11T11:00:20.278235,-1.008,-0.235,-0.037,11.22,-2.378,-86.585,14_6_2.csv
2018-07-11T11:00:20.326363,-1.003,-0.241,0.08,10.793,24.756,-38.171,14_6_2.csv
2018-07-11T11:00:20.370982,-1.003,-0.241,0.08,21.89,47.439,8.841,14_6_2.csv
2018-07-11T11:00:20.421116,-1.075,-0.319,0.215,27.317,60.732,72.866,14_6_2.csv
2018-07-11T11:00:20.476262,-1.075,-0.319,0.215,27.683,66.463,130.0,14_6_2.csv
2018-07-11T11:00:20.527398,-0.707,-0.204,0.251,34.634,74.634,148.842,14_6_2.csv
2018-07-11T11:00:20.576528,-1.252,-0.331,0.025,-49.573,10.244,46.768,14_6_2.csv
2018-07-11T11:00:20.629670,-1.252,-0.331,0.025,-73.11,-118.598,13.537,14_6_2.csv
2018-07-11T11:00:20.688326,-1.047,-0.437,0.102,-75.061,-2.988,35.671,14_6_2.csv
2018-07-11T11:00:20.748486,-0.825,-0.408,0.035,-44.878,39.939,11.89,14_6_2.csv
2018-07-11T11:00:20.920944,-1.007,-0.409,0.073,58.841,10.549,34.39,14_6_2.csv
2018-07-11T11:00:21.028731,-1.068,-0.364,0.06,103.293,17.134,-30.549,14_6_2.csv
2018-07-11T11:00:21.073851,-1.169,-0.25,0.012,71.098,-0.488,-48.902,14_6_2.csv
2018-07-11T11:00:21.122981,-1.169,-0.25,0.012,27.5,-11.951,-51.159,14_6_2.csv
2018-07-11T11:00:21.167601,-1.136,-0.392,0.001,13.78,-13.11,-35.976,14_6_2.csv
2018-07-11T11:00:21.214725,-0.831,-0.309,-0.041,51.524,4.634,-22.805,14_6_2.csv
2018-07-11T11:00:21.271877,-0.831,-0.309,-0.041,15.061,-11.89,-47.439,14_6_2.csv
2018-07-11T11:00:21.355600,-1.061,-0.36,-0.185,21.341,-33.293,-67.622,14_6_2.csv
2018-07-11T11:00:21.484944,-0.883,-0.256,-0.131,119.207,42.378,-68.476,14_6_2.csv
2018-07-11T11:00:21.545103,-0.847,-0.253,-0.101,111.159,55.305,-47.866,14_6_2.csv
2018-07-11T11:00:21.605264,-0.847,-0.253,-0.101,111.037,55.0,-22.195,14_6_2.csv
2018-07-11T11:00:21.669434,-0.97,-0.283,-0.063,102.622,51.768,26.159,14_6_2.csv
2018-07-11T11:00:21.836378,-1.269,-0.339,0.049,6.951,77.439,72.5,14_6_2.csv
2018-07-11T11:00:21.919098,-0.916,-0.422,0.521,99.939,157.195,104.207,14_6_2.csv
2018-07-11T11:00:21.966223,-1.089,-0.6,0.502,-76.768,82.683,-0.183,14_6_2.csv
2018-07-11T11:00:22.012346,-1.089,-0.6,0.502,-144.695,-183.963,-109.329,14_6_2.csv
2018-07-11T11:00:22.059471,-1.146,-0.414,-0.073,77.866,-49.817,-43.11,14_6_2.csv
2018-07-11T11:00:22.106596,-0.9,-0.188,-0.059,37.988,-9.634,-63.598,14_6_2.csv
2018-07-11T11:00:22.155727,-0.9,-0.188,-0.059,3.232,7.805,-60.427,14_6_2.csv
2018-07-11T11:00:22.279556,-0.808,-0.273,-0.029,60.366,17.439,9.634,14_6_2.csv
2018-07-11T11:00:22.402884,-0.906,-0.392,0.036,47.988,61.22,87.134,14_6_2.csv
2018-07-11T11:00:22.456026,-1.184,-0.516,-0.025,62.927,66.89,92.561,14_6_2.csv
2018-07-11T11:00:22.517690,-1.343,-0.486,-0.059,113.902,65.915,31.829,14_6_2.csv
2018-07-11T11:00:22.577850,-1.056,-0.353,-0.023,165.305,48.476,-18.354,14_6_2.csv
2018-07-11T11:00:22.642020,-1.056,-0.353,-0.023,222.805,24.573,-43.354,14_6_2.csv
2018-07-11T11:00:22.714212,-0.89,-0.155,-0.006,47.927,0.305,-73.11,14_6_2.csv
2018-07-11T11:00:22.762342,-1.005,-0.318,-0.154,-17.012,1.098,-77.744,14_6_2.csv
2018-07-11T11:00:22.809967,-1.005,-0.318,-0.154,0.976,-7.317,-82.683,14_6_2.csv
2018-07-11T11:00:22.857593,-0.886,-0.279,-0.167,18.354,-19.573,-68.598,14_6_2.csv
2018-07-11T11:00:22.904718,-0.809,-0.291,-0.139,-64.634,-16.829,-46.585,14_6_2.csv
2018-07-11T11:00:22.998468,-0.854,-0.425,-0.104,-16.829,3.841,2.622,14_6_2.csv
2018-07-11T11:00:23.062139,-1.048,-0.375,-0.049,106.829,18.354,59.085,14_6_2.csv
2018-07-11T11:00:23.109264,-1.048,-0.375,-0.049,129.878,15.122,78.72,14_6_2.csv
2018-07-11T11:00:23.157397,-1.145,-0.23,0.028,100.0,13.171,85.671,14_6_2.csv
2018-07-11T11:00:23.204522,-1.145,-0.23,0.028,17.561,14.817,85.976,14_6_2.csv
2018-07-11T11:00:23.247137,-1.174,-0.407,0.052,-54.878,12.134,91.402,14_6_2.csv
2018-07-11T11:00:23.307799,-0.745,-0.506,0.131,1.829,30.305,81.646,14_6_2.csv
2018-07-11T11:00:23.354924,-0.745,-0.506,0.131,64.939,45.671,47.012,14_6_2.csv
2018-07-11T11:00:23.402551,-1.146,-0.273,-0.006,102.866,33.78,4.207,14_6_2.csv
2018-07-11T11:00:23.459703,-1.146,-0.273,-0.006,59.695,-11.646,-25.244,14_6_2.csv
2018-07-11T11:00:23.574508,-0.829,-0.403,0.075,-28.963,2.622,-45.244,14_6_2.csv
2018-07-11T11:00:23.625644,-0.941,-0.229,0.028,90.549,8.78,-14.634,14_6_2.csv
2018-07-11T11:00:23.680291,-0.941,-0.229,0.028,56.89,-0.61,-10.244,14_6_2.csv
2018-07-11T11:00:23.737947,-0.931,-0.237,0.048,9.573,-0.183,-9.329,14_6_2.csv
2018-07-11T11:00:23.783570,-0.931,-0.237,0.048,-1.768,6.463,0.305,14_6_2.csv
2018-07-11T11:00:23.840724,-1.004,-0.327,0.018,22.134,15.366,30.793,14_6_2.csv
2018-07-11T11:00:23.905396,-1.185,-0.39,0.022,31.707,30.183,44.634,14_6_2.csv
2018-07-11T11:00:23.958037,-1.113,-0.476,-0.011,72.256,29.329,48.354,14_6_2.csv
2018-07-11T11:00:24.013183,-1.113,-0.476,-0.011,125.061,17.073,24.085,14_6_2.csv
2018-07-11T11:00:24.082368,-1.061,-0.227,-0.034,113.049,-21.22,-70.61,14_6_2.csv
2018-07-11T11:00:24.123476,-1.004,-0.221,0.016,47.988,-32.256,-77.561,14_6_2.csv
2018-07-11T11:00:24.167594,-1.004,-0.221,0.016,4.817,-26.951,-73.598,14_6_2.csv
2018-07-11T11:00:24.216222,-0.821,-0.279,-0.001,-1.159,-14.085,-67.439,14_6_2.csv
2018-07-11T11:00:24.271369,-0.854,-0.25,-0.031,23.598,-8.841,-41.341,14_6_2.csv
2018-07-11T11:00:24.392692,-0.98,-0.237,-0.057,-27.439,-9.573,2.195,14_6_2.csv
2018-07-11T11:00:24.439316,-0.995,-0.282,-0.024,-45.488,-1.098,13.232,14_6_2.csv
2018-07-11T11:00:24.484937,-0.995,-0.282,-0.024,-50.976,12.195,24.39,14_6_2.csv
2018-07-11T11:00:24.530558,-1.016,-0.315,0.09,-37.439,27.256,41.951,14_6_2.csv
2018-07-11T11:00:24.576180,-1.016,-0.315,0.09,-14.573,38.841,70.244,14_6_2.csv
2018-07-11T11:00:24.630825,-1.404,-0.412,0.034,-35.366,10.122,138.415,14_6_2.csv
2018-07-11T11:00:24.747134,-0.917,-0.569,0.174,61.341,36.89,82.683,14_6_2.csv
2018-07-11T11:00:24.797268,-0.864,-0.125,0.071,-16.646,-14.146,-89.329,14_6_2.csv
2018-07-11T11:00:24.920094,-0.773,-0.427,0.127,-114.39,-47.439,-63.354,14_6_2.csv
2018-07-11T11:00:24.966217,-0.773,-0.427,0.127,-42.683,20.61,-36.463,14_6_2.csv
2018-07-11T11:00:25.012339,-0.857,-0.35,0.061,65.549,52.378,-7.866,14_6_2.csv
2018-07-11T11:00:25.074005,-0.933,-0.204,0.008,81.159,15.549,30.366,14_6_2.csv
2018-07-11T11:00:25.126142,-0.933,-0.204,0.008,33.293,-3.415,25.061,14_6_2.csv
2018-07-11T11:00:25.167753,-1.013,-0.341,0.062,-6.22,-1.768,26.402,14_6_2.csv
2018-07-11T11:00:25.221395,-1.013,-0.341,0.062,-3.354,13.171,36.341,14_6_2.csv
2018-07-11T11:00:25.312137,-1.343,-0.434,-0.016,13.293,22.195,14.512,14_6_2.csv
2018-07-11T11:00:25.360766,-1.343,-0.434,-0.016,34.024,10.915,29.024,14_6_2.csv
2018-07-11T11:00:25.447497,-0.854,-0.4,0.034,147.622,18.293,4.634,14_6_2.csv
2018-07-11T11:00:25.513173,-0.897,-0.297,0.04,139.268,11.28,-4.634,14_6_2.csv
2018-07-11T11:00:25.559302,-1.104,-0.308,-0.062,125.61,-16.89,8.049,14_6_2.csv
2018-07-11T11:00:25.614448,-1.104,-0.308,-0.062,92.927,-39.939,-1.585,14_6_2.csv
2018-07-11T11:00:25.658571,-0.963,-0.27,-0.061,47.927,-46.524,-30.915,14_6_2.csv
2018-07-11T11:00:25.706698,-0.963,-0.27,-0.061,12.378,-42.622,-62.988,14_6_2.csv
2018-07-11T11:00:25.773882,-0.963,-0.27,-0.105,-27.866,-33.354,-90.732,14_6_2.csv
2018-07-11T11:00:25.825018,-0.947,-0.284,-0.102,-28.537,-25.549,-83.11,14_6_2.csv
2018-07-11T11:00:25.900222,-1.029,-0.263,-0.06,-14.512,-2.927,-36.768,14_6_2.csv
2018-07-11T11:00:25.949356,-1.029,-0.263,-0.06,-27.5,8.659,-10.0,14_6_2.csv
2018-07-11T11:00:25.995480,-0.969,-0.303,0.1,13.171,52.866,41.951,14_6_2.csv
2018-07-11T11:00:26.042607,-1.106,-0.315,0.166,50.793,66.89,80.427,14_6_2.csv
2018-07-11T11:00:26.094748,-1.106,-0.315,0.166,44.512,63.354,125.061,14_6_2.csv
2018-07-11T11:00:26.156919,-0.866,-0.358,0.214,10.671,60.915,146.89,14_6_2.csv
2018-07-11T11:00:26.203041,-1.221,-0.498,0.122,61.463,47.5,114.756,14_6_2.csv
2018-07-11T11:00:26.247162,-1.221,-0.498,0.122,99.268,-10.915,58.598,14_6_2.csv
2018-07-11T11:00:26.295129,-1.122,-0.242,0.143,44.451,-35.183,-17.744,14_6_2.csv
2018-07-11T11:00:26.371337,-0.855,-0.347,0.043,-19.756,-15.732,-86.402,14_6_2.csv
2018-07-11T11:00:26.429492,-0.855,-0.347,0.043,7.5,-23.963,-66.098,14_6_2.csv
2018-07-11T11:00:26.479631,-0.906,-0.352,-0.03,115.0,-22.256,-19.024,14_6_2.csv
2018-07-11T11:00:26.529764,-0.947,-0.241,-0.035,91.463,-6.159,-17.378,14_6_2.csv
2018-07-11T11:00:26.605971,-0.943,-0.276,-0.042,60.793,11.951,-25.488,14_6_2.csv
2018-07-11T11:00:26.651595,-0.943,-0.276,-0.042,59.878,18.354,-21.585,14_6_2.csv
2018-07-11T11:00:26.697718,-1.027,-0.286,-0.042,43.902,22.439,-15.915,14_6_2.csv
2018-07-11T11:00:26.813029,-1.25,-0.424,-0.029,68.11,52.073,37.073,14_6_2.csv
2018-07-11T11:00:26.877702,-1.021,-0.454,-0.063,116.585,59.39,37.5,14_6_2.csv
2018-07-11T11:00:26.917307,-1.021,-0.454,-0.063,173.171,52.744,3.049,14_6_2.csv
2018-07-11T11:00:26.974963,-1.094,-0.247,-0.068,191.829,8.841,-65.488,14_6_2.csv
2018-07-11T11:00:27.027606,-0.978,-0.137,0.019,103.049,-5.915,-84.329,14_6_2.csv
2018-07-11T11:00:27.073229,-0.978,-0.137,0.019,26.402,-6.524,-94.329,14_6_2.csv
2018-07-11T11:00:27.127877,-0.918,-0.244,-0.033,-32.195,-6.89,-71.28,14_6_2.csv
2018-07-11T11:00:27.186535,-0.879,-0.291,-0.079,-39.085,-6.585,-51.585,14_6_2.csv
2018-07-11T11:00:27.230154,-0.879,-0.291,-0.079,-31.951,-0.488,-32.5,14_6_2.csv
2018-07-11T11:00:27.299840,-0.848,-0.318,-0.057,22.561,23.72,15.427,14_6_2.csv
2018-07-11T11:00:27.422169,-1.187,-0.328,0.12,88.659,59.695,98.72,14_6_2.csv
2018-07-11T11:00:27.481828,-1.187,-0.328,0.12,104.024,74.817,120.366,14_6_2.csv
2018-07-11T11:00:27.547502,-1.338,-0.27,0.261,-53.354,60.976,125.183,14_6_2.csv
2018-07-11T11:00:27.610169,-0.788,-0.446,0.123,-63.78,-59.878,4.817,14_6_2.csv
2018-07-11T11:00:27.655290,-1.051,-0.381,-0.033,115.915,-55.122,-18.11,14_6_2.csv
2018-07-11T11:00:27.701916,-1.051,-0.381,-0.033,83.171,-60.0,-14.939,14_6_2.csv
2018-07-11T11:00:27.749041,-1.021,-0.23,0.001,-23.232,-47.134,-20.732,14_6_2.csv
2018-07-11T11:00:27.792161,-1.021,-0.23,0.001,-89.451,-19.878,-34.207,14_6_2.csv
2018-07-11T11:00:27.850315,-0.833,-0.405,-0.071,-9.634,19.146,-38.049,14_6_2.csv
2018-07-11T11:00:27.909476,-0.955,-0.375,-0.035,93.598,29.878,-17.378,14_6_2.csv
2018-07-11T11:00:27.956602,-0.955,-0.375,-0.035,129.817,39.085,1.829,14_6_2.csv
2018-07-11T11:00:27.997716,-0.958,-0.272,0.081,113.963,47.927,7.256,14_6_2.csv
2018-07-11T11:00:28.043337,-0.958,-0.272,0.081,101.768,51.585,7.683,14_6_2.csv
2018-07-11T11:00:28.093972,-1.028,-0.307,0.059,117.439,32.256,15.915,14_6_2.csv
2018-07-11T11:00:28.226324,-1.152,-0.411,-0.035,98.476,7.256,26.707,14_6_2.csv
2018-07-11T11:00:28.276959,-1.152,-0.411,-0.035,117.683,-1.22,21.463,14_6_2.csv
2018-07-11T11:00:28.333610,-0.831,-0.308,0.004,134.146,2.683,-45.305,14_6_2.csv
2018-07-11T11:00:28.387753,-1.117,-0.282,-0.119,128.293,-13.902,-49.756,14_6_2.csv
2018-07-11T11:00:28.432876,-1.117,-0.282,-0.119,85.122,-48.232,-32.317,14_6_2.csv
2018-07-11T11:00:28.480000,-1.056,-0.268,-0.189,16.951,-75.061,-28.171,14_6_2.csv
2018-07-11T11:00:28.552198,-0.847,-0.308,-0.143,-74.817,-30.366,-78.476,14_6_2.csv
2018-07-11T11:00:28.667507,-0.875,-0.366,-0.163,34.939,40.427,-48.963,14_6_2.csv
2018-07-11T11:00:28.714632,-0.82,-0.318,-0.004,69.573,56.829,-31.037,14_6_2.csv
2018-07-11T11:00:28.761758,-0.82,-0.318,-0.004,94.451,74.146,-9.695,14_6_2.csv
2018-07-11T11:00:28.829939,-0.963,-0.318,0.065,111.402,76.524,45.183,14_6_2.csv
2018-07-11T11:00:28.938728,-1.366,-0.292,0.128,-8.293,35.61,65.854,14_6_2.csv
2018-07-11T11:00:29.009416,-0.817,-0.37,0.264,-40.305,37.866,52.256,14_6_2.csv
2018-07-11T11:00:29.062056,-0.817,-0.37,0.264,-13.78,41.707,32.256,14_6_2.csv
2018-07-11T11:00:29.109683,-0.968,-0.288,0.048,35.244,27.378,15.427,14_6_2.csv
2018-07-11T11:00:29.158813,-0.968,-0.288,0.048,47.561,-14.817,1.402,14_6_2.csv
2018-07-11T11:00:29.204435,-1.134,-0.199,0.014,-12.317,-63.963,-13.171,14_6_2.csv
2018-07-11T11:00:29.246045,-1.134,-0.199,0.014,-81.28,-68.049,-31.037,14_6_2.csv
2018-07-11T11:00:29.299186,-0.78,-0.33,0.138,-65.61,11.159,-34.207,14_6_2.csv
2018-07-11T11:00:29.345310,-0.824,-0.346,0.037,3.537,21.646,-12.5,14_6_2.csv
2018-07-11T11:00:29.434546,-0.935,-0.26,0.049,35.61,4.756,22.134,14_6_2.csv
2018-07-11T11:00:29.535314,-1.061,-0.328,0.068,3.171,17.683,22.012,14_6_2.csv
2018-07-11T11:00:29.594973,-1.139,-0.316,0.076,9.634,19.573,16.22,14_6_2.csv
2018-07-11T11:00:29.643101,-1.139,-0.316,0.076,-0.61,14.756,4.817,14_6_2.csv
2018-07-11T11:00:29.699250,-1.239,-0.375,0.067,-20.793,6.707,11.951,14_6_2.csv
2018-07-11T11:00:29.747879,-0.986,-0.409,0.002,26.402,-13.78,10.732,14_6_2.csv
2018-07-11T11:00:29.792498,-0.986,-0.409,0.002,70.488,-19.024,-9.634,14_6_2.csv
2018-07-11T11:00:29.842130,-0.923,-0.292,-0.002,83.232,-13.293,-31.951,14_6_2.csv
2018-07-11T11:00:29.885746,-0.923,-0.292,-0.002,79.573,-13.11,-40.671,14_6_2.csv
2018-07-11T11:00:29.932370,-0.978,-0.265,-0.038,58.598,-16.585,-38.293,14_6_2.csv
2018-07-11T11:00:29.996540,-0.877,-0.275,-0.042,-0.244,-16.707,-40.244,14_6_2.csv
2018-07-11T11:00:30.048178,-0.877,-0.275,-0.042,-23.232,-10.549,-48.11,14_6_2.csv
2018-07-11T11:00:30.091794,-0.873,-0.299,-0.062,-35.244,-6.585,-52.073,14_6_2.csv
2018-07-11T11:00:30.143433,-0.876,-0.307,0.036,-4.268,7.866,-37.256,14_6_2.csv
2018-07-11T11:00:30.185545,-0.876,-0.307,0.036,18.171,22.317,-14.817,14_6_2.csv
2018-07-11T11:00:30.234680,-1.037,-0.26,0.056,18.415,21.951,12.073,14_6_2.csv
2018-07-11T11:00:30.286819,-1.037,-0.26,0.056,-5.061,9.024,38.476,14_6_2.csv
2018-07-11T11:00:30.347986,-1.338,-0.307,-0.013,-77.195,-13.415,94.512,14_6_2.csv
2018-07-11T11:00:30.401127,-1.072,-0.553,0.1,-69.695,-3.537,111.524,14_6_2.csv
2018-07-11T11:00:30.450263,-1.072,-0.553,0.1,-2.195,27.439,98.171,14_6_2.csv
2018-07-11T11:00:30.495382,-0.849,-0.354,0.111,76.524,45.793,48.11,14_6_2.csv
2018-07-11T11:00:30.543513,-1.134,-0.067,0.059,26.951,-27.683,-68.72,14_6_2.csv
2018-07-11T11:00:30.595652,-1.134,-0.067,0.059,-129.634,-103.842,-94.268,14_6_2.csv
2018-07-11T11:00:30.652302,-0.802,-0.354,0.112,-169.512,-70.793,-90.793,14_6_2.csv
2018-07-11T11:00:30.699427,-0.919,-0.242,0.047,-19.756,29.573,-10.122,14_6_2.csv
2018-07-11T11:00:30.780643,-0.919,-0.242,0.047,98.537,20.061,47.866,14_6_2.csv
2018-07-11T11:00:30.824760,-0.919,-0.242,0.047,62.256,14.024,51.28,14_6_2.csv
2018-07-11T11:00:30.900963,-1.034,-0.277,0.077,-7.561,14.817,40.976,14_6_2.csv
2018-07-11T11:00:30.961624,-1.105,-0.37,0.047,-9.634,15.122,36.159,14_6_2.csv
2018-07-11T11:00:31.012760,-1.105,-0.37,0.047,-2.805,15.061,26.22,14_6_2.csv
2018-07-11T11:00:31.059886,-1.282,-0.409,0.032,0.488,17.927,18.354,14_6_2.csv
2018-07-11T11:00:31.106510,-0.979,-0.412,0.021,41.646,4.634,14.878,14_6_2.csv
2018-07-11T11:00:31.153635,-0.979,-0.412,0.021,85.366,2.073,-2.195,14_6_2.csv
2018-07-11T11:00:31.198755,-0.858,-0.305,0.013,99.146,3.232,-17.744,14_6_2.csv
2018-07-11T11:00:31.407811,-0.983,-0.316,-0.072,55.549,-17.988,-22.073,14_6_2.csv
2018-07-11T11:00:31.546680,-0.925,-0.286,-0.121,4.146,-12.378,-53.476,14_6_2.csv
2018-07-11T11:00:31.591800,-0.968,-0.288,-0.088,-1.22,-1.951,-44.939,14_6_2.csv
2018-07-11T11:00:31.640429,-0.968,-0.288,-0.088,0.976,12.805,-29.268,14_6_2.csv
2018-07-11T11:00:31.688557,-0.996,-0.331,0.046,6.829,31.159,-6.768,14_6_2.csv
2018-07-11T11:00:31.735682,-0.996,-0.331,0.046,32.561,53.841,17.195,14_6_2.csv
2018-07-11T11:00:31.785815,-1.123,-0.323,0.128,105.244,75.732,58.841,14_6_2.csv
2018-07-11T11:00:31.842968,-1.1,-0.18,0.192,57.134,45.732,63.78,14_6_2.csv
2018-07-11T11:00:31.923682,-0.884,-0.314,0.14,-48.232,21.463,42.317,14_6_2.csv
2018-07-11T11:00:31.981837,-0.884,-0.314,0.14,-33.476,-6.402,27.317,14_6_2.csv
2018-07-11T11:00:32.029463,-1.11,-0.379,0.054,9.756,-43.537,16.159,14_6_2.csv
2018-07-11T11:00:32.076112,-0.871,-0.342,0.03,-11.463,-5.244,5.61,14_6_2.csv
2018-07-11T11:00:32.128251,-0.871,-0.342,0.03,3.232,16.341,-1.585,14_6_2.csv
2018-07-11T11:00:32.184400,-0.925,-0.402,-0.053,59.512,20.427,7.988,14_6_2.csv
2018-07-11T11:00:32.262608,-0.974,-0.35,-0.004,126.951,27.378,32.561,14_6_2.csv
2018-07-11T11:00:32.310736,-1.015,-0.303,-0.001,120.793,29.146,4.268,14_6_2.csv
2018-07-11T11:00:32.372400,-1.015,-0.303,-0.001,114.512,15.793,-14.512,14_6_2.csv
2018-07-11T11:00:32.417520,-1.013,-0.231,0.033,85.122,5.061,-31.22,14_6_2.csv
2018-07-11T11:00:32.490213,-0.991,-0.28,0.019,22.439,4.573,-43.841,14_6_2.csv
2018-07-11T11:00:32.561904,-1.196,-0.345,-0.035,46.524,6.463,-13.598,14_6_2.csv
2018-07-11T11:00:32.606021,-1.196,-0.345,-0.035,56.951,8.659,12.988,14_6_2.csv
2018-07-11T11:00:32.673199,-0.997,-0.375,-0.027,77.012,19.268,7.744,14_6_2.csv
2018-07-11T11:00:32.825605,-1.069,-0.269,-0.095,79.695,-12.073,-46.341,14_6_2.csv
2018-07-11T11:00:32.871728,-0.912,-0.276,-0.126,3.72,-10.244,-41.159,14_6_2.csv
2018-07-11T11:00:32.926373,-0.912,-0.276,-0.126,-17.622,-0.732,-45.366,14_6_2.csv
2018-07-11T11:00:32.976506,-0.884,-0.326,-0.125,-9.085,16.037,-41.159,14_6_2.csv
2018-07-11T11:00:33.027141,-0.884,-0.326,-0.125,3.171,29.024,-26.829,14_6_2.csv
2018-07-11T11:00:33.074767,-0.89,-0.369,-0.118,46.341,42.622,5.305,14_6_2.csv
2018-07-11T11:00:33.122895,-0.933,-0.335,-0.063,73.232,44.695,12.805,14_6_2.csv
2018-07-11T11:00:33.168015,-0.933,-0.335,-0.063,81.098,42.744,21.22,14_6_2.csv
2018-07-11T11:00:33.215641,-1.035,-0.33,-0.029,72.927,35.671,34.756,14_6_2.csv
2018-07-11T11:00:33.270287,-1.035,-0.33,-0.029,59.878,38.659,50.915,14_6_2.csv
2018-07-11T11:00:33.387599,-1.089,-0.345,0.292,141.22,82.439,64.024,14_6_2.csv
2018-07-11T11:00:33.514938,-1.064,-0.175,0.073,-25.61,-162.073,-72.805,14_6_2.csv
2018-07-11T11:00:33.628742,-0.928,-0.361,-0.056,-178.171,-22.195,-75.976,14_6_2.csv
2018-07-11T11:00:33.668849,-0.928,-0.361,-0.056,-101.098,8.78,-54.878,14_6_2.csv
2018-07-11T11:00:33.722998,-0.769,-0.36,-0.038,101.463,21.829,1.89,14_6_2.csv
2018-07-11T11:00:33.796192,-0.797,-0.188,0.087,63.11,34.756,47.5,14_6_2.csv
2018-07-11T11:00:33.844824,-0.935,-0.287,0.111,12.073,39.573,69.512,14_6_2.csv
2018-07-11T11:00:33.890946,-0.935,-0.287,0.111,11.159,45.061,98.902,14_6_2.csv
2018-07-11T11:00:33.941079,-1.141,-0.478,0.064,49.268,49.573,126.402,14_6_2.csv
2018-07-11T11:00:34.011266,-1.327,-0.395,0.066,102.622,54.207,115.0,14_6_2.csv
2018-07-11T11:00:34.057890,-1.327,-0.395,0.066,-0.061,40.305,49.085,14_6_2.csv
2018-07-11T11:00:34.112034,-1.152,-0.43,-0.054,-121.402,18.537,-38.72,14_6_2.csv
2018-07-11T11:00:34.199767,-0.911,-0.339,0.015,110.305,-39.451,-91.646,14_6_2.csv
2018-07-11T11:00:34.246391,-0.954,-0.309,-0.034,20.427,-23.476,-57.317,14_6_2.csv
2018-07-11T11:00:34.294018,-0.954,-0.309,-0.034,-22.805,0.671,-47.744,14_6_2.csv
2018-07-11T11:00:34.340141,-0.946,-0.407,-0.201,10.122,9.939,-53.415,14_6_2.csv
2018-07-11T11:00:34.388770,-0.946,-0.407,-0.201,72.134,-4.207,-46.463,14_6_2.csv
2018-07-11T11:00:34.463468,-0.895,-0.27,-0.161,-19.634,-3.78,-56.037,14_6_2.csv
2018-07-11T11:00:34.513101,-0.883,-0.329,-0.208,-73.963,1.768,-65.244,14_6_2.csv
2018-07-11T11:00:34.559223,-0.858,-0.45,-0.154,-29.146,25.671,-45.183,14_6_2.csv
2018-07-11T11:00:34.608855,-0.858,-0.45,-0.154,32.927,36.463,-17.988,14_6_2.csv
2018-07-11T11:00:34.668012,-0.95,-0.398,-0.067,79.451,39.207,7.012,14_6_2.csv
2018-07-11T11:00:34.764268,-1.19,-0.331,-0.033,89.085,11.463,80.0,14_6_2.csv
2018-07-11T11:00:34.910657,-0.813,-0.271,0.139,92.012,58.537,98.78,14_6_2.csv
2018-07-11T11:00:35.044513,-0.886,-0.388,0.076,-74.817,-18.963,-7.378,14_6_2.csv
2018-07-11T11:00:35.091137,-0.886,-0.388,0.076,-47.378,23.598,0.427,14_6_2.csv
2018-07-11T11:00:35.153804,-0.831,-0.391,-0.018,31.159,30.366,13.171,14_6_2.csv
2018-07-11T11:00:35.199926,-0.831,-0.391,-0.018,82.195,17.866,26.463,14_6_2.csv
2018-07-11T11:00:35.245548,-0.94,-0.29,0.03,32.256,13.293,25.183,14_6_2.csv
2018-07-11T11:00:35.376897,-1.164,-0.338,0.077,34.573,22.378,-3.963,14_6_2.csv
2018-07-11T11:00:35.451094,-1.279,-0.292,0.074,31.098,12.012,-30.976,14_6_2.csv
2018-07-11T11:00:35.511254,-1.279,-0.292,0.074,30.732,6.159,-22.012,14_6_2.csv
2018-07-11T11:00:35.560886,-0.979,-0.31,-0.006,45.061,-17.012,-10.488,14_6_2.csv
2018-07-11T11:00:35.606507,-0.802,-0.279,0.004,45.488,-14.878,-28.537,14_6_2.csv
2018-07-11T11:00:35.656140,-0.802,-0.279,0.004,27.317,-10.0,-31.646,14_6_2.csv
2018-07-11T11:00:35.722316,-1.031,-0.323,-0.129,11.951,-16.707,-25.061,14_6_2.csv
2018-07-11T11:00:35.779467,-0.923,-0.331,-0.158,-30.488,-37.683,-29.634,14_6_2.csv
2018-07-11T11:00:35.827599,-0.923,-0.331,-0.158,-32.134,-23.11,-46.037,14_6_2.csv
2018-07-11T11:00:35.872719,-0.841,-0.333,-0.117,-19.329,4.085,-57.317,14_6_2.csv
2018-07-11T11:00:35.916841,-0.841,-0.333,-0.117,9.512,25.122,-51.098,14_6_2.csv
2018-07-11T11:00:35.968980,-0.881,-0.313,-0.087,54.878,35.0,-10.976,14_6_2.csv
2018-07-11T11:00:36.041175,-0.98,-0.307,-0.028,62.866,39.085,8.415,14_6_2.csv
2018-07-11T11:00:36.092311,-1.162,-0.304,0.041,54.268,32.012,36.646,14_6_2.csv
2018-07-11T11:00:36.136433,-1.162,-0.304,0.041,39.695,40.183,47.866,14_6_2.csv
2018-07-11T11:00:36.186566,-1.25,-0.358,0.162,42.134,55.0,65.0,14_6_2.csv
2018-07-11T11:00:36.235701,-1.25,-0.358,0.162,48.476,61.585,80.366,14_6_2.csv
2018-07-11T11:00:36.350009,-1.096,-0.218,0.029,1.829,-7.561,18.598,14_6_2.csv
2018-07-11T11:00:36.422205,-1.108,-0.279,0.002,-75.854,-108.293,-31.402,14_6_2.csv
2018-07-11T11:00:36.482365,-1.108,-0.279,0.002,-153.293,-67.378,-43.171,14_6_2.csv
2018-07-11T11:00:36.528989,-0.766,-0.357,-0.015,-79.695,14.634,-52.805,14_6_2.csv
2018-07-11T11:00:36.576115,-0.821,-0.318,-0.063,3.537,13.049,-24.451,14_6_2.csv
2018-07-11T11:00:36.620733,-0.821,-0.318,-0.063,25.488,4.024,5.854,14_6_2.csv
2018-07-11T11:00:36.668863,-0.902,-0.281,0.058,3.963,12.866,27.744,14_6_2.csv
2018-07-11T11:00:36.738551,-1.081,-0.416,0.176,6.89,51.707,71.159,14_6_2.csv
2018-07-11T11:00:36.777156,-1.081,-0.416,0.176,0.915,58.78,80.793,14_6_2.csv
2018-07-11T11:00:36.825285,-1.301,-0.473,0.047,54.207,47.378,76.463,14_6_2.csv
2018-07-11T11:00:36.871912,-1.301,-0.473,0.047,124.573,30.244,58.72,14_6_2.csv
2018-07-11T11:00:36.920541,-1.233,-0.293,-0.003,114.756,-2.988,34.085,14_6_2.csv
2018-07-11T11:00:36.965661,-1.233,-0.293,-0.003,61.22,-37.561,5.427,14_6_2.csv
2018-07-11T11:00:37.017799,-0.833,-0.276,0.064,18.78,-36.037,-47.744,14_6_2.csv
2018-07-11T11:00:37.079463,-0.931,-0.346,-0.042,16.89,-30.366,-52.805,14_6_2.csv
2018-07-11T11:00:37.132104,-1.1,-0.357,-0.142,60.854,-42.256,-29.939,14_6_2.csv
2018-07-11T11:00:37.198780,-1.1,-0.357,-0.142,61.829,-42.439,-25.366,14_6_2.csv
2018-07-11T11:00:37.264957,-0.917,-0.281,-0.084,26.402,-10.854,-63.72,14_6_2.csv
2018-07-11T11:00:37.320103,-0.885,-0.267,-0.105,19.207,-1.768,-73.354,14_6_2.csv
2018-07-11T11:00:37.386781,-0.938,-0.259,-0.081,15.122,2.622,-56.707,14_6_2.csv
2018-07-11T11:00:37.563250,-1.248,-0.313,0.083,59.207,60.61,42.622,14_6_2.csv
2018-07-11T11:00:37.624412,-1.034,-0.224,0.229,39.512,55.122,72.805,14_6_2.csv
2018-07-11T11:00:37.717660,-0.69,-0.294,0.181,-41.341,53.415,64.268,14_6_2.csv
2018-07-11T11:00:37.762780,-0.69,-0.294,0.181,-22.134,33.354,46.037,14_6_2.csv
2018-07-11T11:00:37.809404,-1.188,-0.432,0.08,20.854,-50.366,32.439,14_6_2.csv
2018-07-11T11:00:37.856028,-0.975,-0.381,0.082,3.049,2.195,34.695,14_6_2.csv
2018-07-11T11:00:38.038513,-0.996,-0.307,-0.001,42.561,-13.232,-7.683,14_6_2.csv
2018-07-11T11:00:38.093159,-0.996,-0.307,-0.001,15.488,-10.732,-3.78,14_6_2.csv
2018-07-11T11:00:38.136273,-0.945,-0.357,0.02,50.61,11.037,-16.037,14_6_2.csv
2018-07-11T11:00:38.185905,-1.051,-0.311,0.002,71.829,12.561,-15.793,14_6_2.csv
2018-07-11T11:00:38.231025,-1.051,-0.311,0.002,65.122,9.024,-16.22,14_6_2.csv
2018-07-11T11:00:38.298705,-1.223,-0.322,-0.032,36.463,6.463,-10.549,14_6_2.csv
2018-07-11T11:00:38.352348,-1.056,-0.397,-0.04,55.61,12.439,-0.793,14_6_2.csv
2018-07-11T11:00:38.401980,-1.056,-0.397,-0.04,84.512,15.732,-6.22,14_6_2.csv
2018-07-11T11:00:38.452113,-0.839,-0.317,-0.032,114.878,17.134,-25.244,14_6_2.csv
2018-07-11T11:00:38.497734,-1.073,-0.29,-0.088,103.476,2.683,-30.915,14_6_2.csv
2018-07-11T11:00:38.545361,-1.073,-0.29,-0.088,71.768,-3.476,-30.671,14_6_2.csv
2018-07-11T11:00:38.591484,-0.96,-0.281,-0.115,39.817,-6.22,-42.683,14_6_2.csv
2018-07-11T11:00:38.650641,-0.96,-0.281,-0.115,12.805,-3.415,-56.768,14_6_2.csv
2018-07-11T11:00:38.700774,-0.849,-0.286,-0.114,1.28,12.561,-62.683,14_6_2.csv
2018-07-11T11:00:38.763942,-0.87,-0.314,-0.068,20.366,21.463,-45.122,14_6_2.csv
2018-07-11T11:00:38.812571,-0.87,-0.314,-0.068,40.854,31.951,-16.646,14_6_2.csv
2018-07-11T11:00:38.861702,-0.96,-0.348,0.027,84.512,51.159,36.646,14_6_2.csv
2018-07-11T11:00:39.012603,-1.337,-0.28,0.103,19.573,29.939,71.037,14_6_2.csv
2018-07-11T11:00:39.128912,-0.698,-0.388,0.216,-6.707,41.402,50.549,14_6_2.csv
2018-07-11T11:00:39.170022,-1.07,-0.319,0.015,26.89,15.549,11.951,14_6_2.csv
2018-07-11T11:00:39.295856,-1.078,-0.308,0.085,-79.756,-14.451,-24.268,14_6_2.csv
2018-07-11T11:00:39.360027,-0.811,-0.432,0.023,54.878,28.354,-10.122,14_6_2.csv
