time,accel_x_list,accel_y_list,accel_z_list,gyro_x_list,gyro_y_list,gyro_z_list,filename
2018-07-11T11:03:27.908888,-0.546,-0.45,0.04,13.232,-173.11,-42.866,14_7_2.csv
2018-07-11T11:03:27.966541,-0.546,-0.45,0.04,39.39,-167.622,-63.354,14_7_2.csv
2018-07-11T11:03:28.012664,-0.57,-0.564,0.15,51.89,-99.817,-80.732,14_7_2.csv
2018-07-11T11:03:28.062798,-0.57,-0.564,0.15,-26.463,-41.037,-78.232,14_7_2.csv
2018-07-11T11:03:28.166076,-0.831,-0.87,0.127,-5.488,-1.829,14.512,14_7_2.csv
2018-07-11T11:03:28.222225,-0.831,-0.87,0.127,40.244,-11.037,-6.037,14_7_2.csv
2018-07-11T11:03:28.279383,-0.636,-0.763,0.16,53.78,23.537,-0.549,14_7_2.csv
2018-07-11T11:03:28.324503,-0.676,-0.732,0.277,76.402,41.524,-2.5,14_7_2.csv
2018-07-11T11:03:28.387677,-0.676,-0.732,0.277,64.756,56.951,-2.866,14_7_2.csv
2018-07-11T11:03:28.443827,-0.716,-0.658,0.063,25.915,67.561,17.256,14_7_2.csv
2018-07-11T11:03:28.500481,-0.901,-0.5,-0.102,-19.451,62.561,22.805,14_7_2.csv
2018-07-11T11:03:28.548107,-0.901,-0.5,-0.102,-71.28,45.061,38.902,14_7_2.csv
2018-07-11T11:03:28.591723,-0.86,-0.61,-0.03,-38.841,32.195,30.488,14_7_2.csv
2018-07-11T11:03:28.636345,-0.618,-0.301,0.113,51.402,23.598,-3.78,14_7_2.csv
2018-07-11T11:03:28.689487,-0.618,-0.301,0.113,69.634,53.78,-22.561,14_7_2.csv
2018-07-11T11:03:28.739628,-0.647,-0.805,0.012,66.037,71.463,-48.659,14_7_2.csv
2018-07-11T11:03:28.792769,-0.647,-0.805,0.012,-40.488,84.085,-37.866,14_7_2.csv
2018-07-11T11:03:28.841905,-1.015,-1.114,-0.241,105.183,37.012,14.451,14_7_2.csv
2018-07-11T11:03:28.889030,-0.767,-0.577,-0.113,88.78,42.012,13.354,14_7_2.csv
2018-07-11T11:03:28.933652,-0.767,-0.577,-0.113,77.5,38.049,11.098,14_7_2.csv
2018-07-11T11:03:28.982281,-0.714,-0.607,-0.094,57.195,41.707,5.244,14_7_2.csv
2018-07-11T11:03:29.037929,-0.846,-0.674,-0.14,20.427,40.732,2.378,14_7_2.csv
2018-07-11T11:03:29.092074,-0.846,-0.674,-0.14,8.354,29.512,5.732,14_7_2.csv
2018-07-11T11:03:29.137194,-0.782,-0.607,-0.202,-6.707,25.793,5.366,14_7_2.csv
2018-07-11T11:03:29.185322,-0.782,-0.607,-0.202,-24.512,17.805,3.11,14_7_2.csv
2018-07-11T11:03:29.231946,-0.782,-0.611,-0.189,-31.22,8.78,-2.561,14_7_2.csv
2018-07-11T11:03:29.280075,-0.813,-0.626,-0.226,-56.402,-3.78,-9.329,14_7_2.csv
2018-07-11T11:03:29.351265,-0.813,-0.626,-0.226,-64.085,-11.768,-9.878,14_7_2.csv
2018-07-11T11:03:29.403403,-0.822,-0.589,-0.275,-93.171,-13.963,-3.598,14_7_2.csv
2018-07-11T11:03:29.453537,-0.767,-0.584,-0.26,-80.305,-10.732,-1.402,14_7_2.csv
2018-07-11T11:03:29.528738,-0.724,-0.562,-0.408,-81.89,-15.061,0.305,14_7_2.csv
2018-07-11T11:03:29.580376,-0.724,-0.562,-0.408,-67.561,-7.988,-0.671,14_7_2.csv
2018-07-11T11:03:29.638530,-0.837,-0.447,-0.386,-55.244,-0.793,-0.976,14_7_2.csv
2018-07-11T11:03:29.692675,-0.87,-0.417,-0.555,-93.537,-18.415,0.915,14_7_2.csv
2018-07-11T11:03:29.748323,-0.87,-0.417,-0.555,-33.902,-17.073,25.366,14_7_2.csv
2018-07-11T11:03:29.792440,-0.768,-0.475,-0.604,61.341,0.244,60.427,14_7_2.csv
2018-07-11T11:03:29.845582,-0.717,-0.414,-0.419,85.244,-5.549,103.293,14_7_2.csv
2018-07-11T11:03:29.904238,-0.717,-0.414,-0.419,49.512,15.427,82.866,14_7_2.csv
2018-07-11T11:03:29.954873,-0.843,-0.428,-0.245,29.817,47.134,51.22,14_7_2.csv
2018-07-11T11:03:30.011524,-0.965,-0.376,-0.265,52.683,17.683,5.305,14_7_2.csv
2018-07-11T11:03:30.077200,-0.965,-0.376,-0.265,54.512,3.841,-21.829,14_7_2.csv
2018-07-11T11:03:30.121317,-0.772,-0.486,-0.348,86.707,2.317,-2.439,14_7_2.csv
2018-07-11T11:03:30.169445,-0.794,-0.382,-0.264,48.537,15.61,-0.671,14_7_2.csv
2018-07-11T11:03:30.215067,-0.794,-0.382,-0.264,23.171,9.878,4.756,14_7_2.csv
2018-07-11T11:03:30.262693,-0.875,-0.348,-0.372,-9.268,0.915,1.037,14_7_2.csv
2018-07-11T11:03:30.311825,-0.875,-0.348,-0.372,-33.902,4.085,1.159,14_7_2.csv
2018-07-11T11:03:30.355441,-0.903,-0.383,-0.384,-3.963,0.976,1.707,14_7_2.csv
2018-07-11T11:03:30.402567,-0.802,-0.397,-0.336,-39.756,-19.085,6.28,14_7_2.csv
2018-07-11T11:03:30.452199,-0.802,-0.397,-0.336,-22.5,-16.524,11.89,14_7_2.csv
2018-07-11T11:03:30.519378,-0.605,-0.552,-0.561,20.976,-2.073,40.122,14_7_2.csv
2018-07-11T11:03:30.567005,-0.787,-0.153,-0.361,113.598,71.159,72.134,14_7_2.csv
2018-07-11T11:03:30.617641,-0.787,-0.153,-0.361,-0.915,66.829,47.439,14_7_2.csv
2018-07-11T11:03:30.669778,-1.149,0.066,-0.18,-68.902,42.744,35.976,14_7_2.csv
2018-07-11T11:03:30.716904,-1.149,0.066,-0.18,-99.756,16.768,53.78,14_7_2.csv
2018-07-11T11:03:30.763027,-1.396,0.11,0.103,-110.488,-94.39,48.049,14_7_2.csv
2018-07-11T11:03:30.825194,-1.418,-0.104,0.232,-83.171,-122.256,65.854,14_7_2.csv
2018-07-11T11:03:30.912893,-1.436,-0.206,0.217,-47.683,-143.049,79.146,14_7_2.csv
2018-07-11T11:03:30.975560,-1.359,-0.313,0.047,-114.939,-165.183,-19.085,14_7_2.csv
2018-07-11T11:03:31.045747,-1.179,-0.395,-0.031,-73.537,-186.646,-99.451,14_7_2.csv
2018-07-11T11:03:31.092371,-1.179,-0.395,-0.031,-54.878,-179.024,-115.732,14_7_2.csv
2018-07-11T11:03:31.139998,-1.02,-0.255,0.136,-73.293,-141.89,-135.549,14_7_2.csv
2018-07-11T11:03:31.184116,-1.02,-0.255,0.136,-67.073,-93.293,-140.488,14_7_2.csv
2018-07-11T11:03:31.233246,-0.879,-0.135,0.286,-40.915,-53.232,-132.012,14_7_2.csv
2018-07-11T11:03:31.294911,-0.787,-0.083,0.504,-3.72,13.72,-71.463,14_7_2.csv
2018-07-11T11:03:31.341034,-0.787,-0.083,0.504,33.659,28.293,-43.171,14_7_2.csv
2018-07-11T11:03:31.387157,-0.731,-0.025,0.634,59.573,27.073,-39.817,14_7_2.csv
2018-07-11T11:03:31.434785,-0.731,-0.025,0.634,55.854,22.5,-38.11,14_7_2.csv
2018-07-11T11:03:31.482413,-0.675,-0.001,0.668,-4.695,16.89,-17.744,14_7_2.csv
2018-07-11T11:03:31.529035,-0.713,-0.31,0.625,-48.354,20.061,30.305,14_7_2.csv
2018-07-11T11:03:31.600726,-0.713,-0.31,0.625,-41.341,17.439,35.793,14_7_2.csv
2018-07-11T11:03:31.654369,-0.775,-0.429,0.438,-5.915,19.085,53.598,14_7_2.csv
2018-07-11T11:03:31.701996,-0.812,-0.275,0.052,-28.78,37.866,47.988,14_7_2.csv
2018-07-11T11:03:31.748119,-0.812,-0.275,0.052,-80.732,58.232,48.598,14_7_2.csv
2018-07-11T11:03:31.808780,-0.941,-0.413,-0.216,-111.707,58.598,66.524,14_7_2.csv
2018-07-11T11:03:31.861922,-1.259,-0.338,-0.039,172.622,111.159,90.793,14_7_2.csv
2018-07-11T11:03:31.919074,-1.259,-0.338,-0.039,123.963,167.866,58.902,14_7_2.csv
2018-07-11T11:03:31.965197,-1.671,0.139,1.077,-21.646,205.976,24.146,14_7_2.csv
2018-07-11T11:03:32.012323,-1.356,-1.285,0.032,-784.878,91.402,-72.561,14_7_2.csv
2018-07-11T11:03:32.064963,-1.356,-1.285,0.032,-20.854,-155.0,-81.524,14_7_2.csv
2018-07-11T11:03:32.136654,-0.761,-0.468,-0.335,273.781,-62.134,6.951,14_7_2.csv
2018-07-11T11:03:32.185785,-0.928,-0.231,0.097,262.317,17.866,18.902,14_7_2.csv
2018-07-11T11:03:32.286554,-1.071,-0.373,-0.106,163.049,50.183,46.341,14_7_2.csv
2018-07-11T11:03:32.344708,-0.973,-0.207,-0.187,15.366,-40.854,-20.366,14_7_2.csv
2018-07-11T11:03:32.388325,-0.973,-0.207,-0.187,-51.159,-62.256,-72.439,14_7_2.csv
2018-07-11T11:03:32.439461,-0.977,-0.313,-0.101,-100.793,-59.756,-104.268,14_7_2.csv
2018-07-11T11:03:32.483579,-0.977,-0.313,-0.101,-125.61,-29.329,-112.622,14_7_2.csv
2018-07-11T11:03:32.534214,-0.982,-0.405,-0.079,-35.305,58.049,-77.805,14_7_2.csv
2018-07-11T11:03:32.590865,-0.988,-0.35,-0.071,40.671,78.902,-59.268,14_7_2.csv
2018-07-11T11:03:32.638993,-0.988,-0.35,-0.071,94.451,87.744,-40.305,14_7_2.csv
2018-07-11T11:03:32.685617,-0.986,-0.297,0.048,134.756,94.024,-21.402,14_7_2.csv
2018-07-11T11:03:32.732744,-0.986,-0.297,0.048,161.768,99.512,-3.11,14_7_2.csv
2018-07-11T11:03:32.777363,-1.024,-0.177,0.386,70.122,137.073,50.0,14_7_2.csv
2018-07-11T11:03:32.825490,-1.073,-0.271,-0.075,-14.573,85.0,53.415,14_7_2.csv
2018-07-11T11:03:32.884648,-1.073,-0.271,-0.075,-19.451,-5.366,51.341,14_7_2.csv
2018-07-11T11:03:32.934782,-1.002,-0.306,-0.089,35.915,-107.683,66.829,14_7_2.csv
2018-07-11T11:03:32.980403,-1.021,-0.219,0.11,-62.073,-102.927,62.012,14_7_2.csv
2018-07-11T11:03:33.030537,-1.021,-0.219,0.11,-150.0,-66.951,48.963,14_7_2.csv
2018-07-11T11:03:33.074654,-1.019,-0.393,-0.083,-197.683,-32.561,35.976,14_7_2.csv
2018-07-11T11:03:33.122783,-1.019,-0.393,-0.083,-163.354,-19.817,22.805,14_7_2.csv
2018-07-11T11:03:33.176927,-0.97,-0.473,-0.158,25.732,-18.841,17.561,14_7_2.csv
2018-07-11T11:03:33.237087,-0.954,-0.311,-0.064,45.549,-9.329,17.683,14_7_2.csv
2018-07-11T11:03:33.293738,-0.954,-0.311,-0.064,16.402,2.378,12.805,14_7_2.csv
2018-07-11T11:03:33.342368,-0.969,-0.332,-0.074,-10.0,13.72,0.061,14_7_2.csv
2018-07-11T11:03:33.387488,-0.971,-0.363,-0.046,3.049,20.488,-4.268,14_7_2.csv
2018-07-11T11:03:33.452160,-0.971,-0.363,-0.046,12.317,29.329,-9.939,14_7_2.csv
2018-07-11T11:03:33.510817,-1.044,-0.358,0.028,48.72,37.744,-20.976,14_7_2.csv
2018-07-11T11:03:33.622614,-1.049,-0.104,0.151,6.098,-41.341,6.585,14_7_2.csv
2018-07-11T11:03:33.670743,-1.049,-0.104,0.151,-43.598,-23.659,23.72,14_7_2.csv
2018-07-11T11:03:33.718871,-0.943,-0.351,-0.028,-61.159,-12.195,19.756,14_7_2.csv
2018-07-11T11:03:33.762989,-0.943,-0.351,-0.028,-50.061,-16.89,2.988,14_7_2.csv
2018-07-11T11:03:33.809112,-0.997,-0.309,-0.062,-22.073,-35.244,-2.073,14_7_2.csv
2018-07-11T11:03:33.872280,-0.984,-0.243,-0.037,-81.951,-44.695,-20.61,14_7_2.csv
2018-07-11T11:03:33.936451,-0.984,-0.243,-0.037,-117.256,-36.341,-33.537,14_7_2.csv
2018-07-11T11:03:33.998116,-0.924,-0.346,-0.028,-64.329,-10.488,-17.988,14_7_2.csv
2018-07-11T11:03:34.046745,-0.954,-0.292,0.041,-29.146,0.122,-6.89,14_7_2.csv
2018-07-11T11:03:34.091364,-0.954,-0.292,0.041,-27.317,3.354,-0.061,14_7_2.csv
2018-07-11T11:03:34.138991,-1.002,-0.249,0.128,-49.329,4.024,5.915,14_7_2.csv
2018-07-11T11:03:34.192694,-1.049,-0.314,0.097,-85.549,3.415,13.354,14_7_2.csv
2018-07-11T11:03:34.266891,-1.029,-0.31,-0.043,-78.537,-40.183,7.927,14_7_2.csv
2018-07-11T11:03:34.314017,-1.029,-0.31,-0.043,-79.451,-63.232,-1.402,14_7_2.csv
2018-07-11T11:03:34.359137,-0.956,-0.31,-0.034,-92.378,-72.012,-0.549,14_7_2.csv
2018-07-11T11:03:34.418295,-0.956,-0.31,-0.034,-105.915,-64.756,6.098,14_7_2.csv
2018-07-11T11:03:34.468931,-0.939,-0.344,-0.033,-94.695,-28.659,16.89,14_7_2.csv
2018-07-11T11:03:34.528087,-0.945,-0.354,-0.048,-73.232,-15.549,23.11,14_7_2.csv
2018-07-11T11:03:34.590755,-0.965,-0.351,-0.002,-54.146,1.707,25.976,14_7_2.csv
2018-07-11T11:03:34.637880,-0.965,-0.351,-0.002,-45.61,9.756,27.012,14_7_2.csv
2018-07-11T11:03:34.686008,-1.03,-0.278,0.138,-94.207,10.122,19.451,14_7_2.csv
2018-07-11T11:03:34.737145,-1.03,-0.278,0.138,-241.585,-14.146,-4.329,14_7_2.csv
2018-07-11T11:03:34.793294,-0.977,-0.61,0.015,-50.305,-23.537,-1.768,14_7_2.csv
2018-07-11T11:03:34.848442,-0.975,-0.459,0.067,32.134,1.951,1.22,14_7_2.csv
2018-07-11T11:03:34.904591,-0.977,-0.311,0.034,64.451,5.122,-4.817,14_7_2.csv
2018-07-11T11:03:34.986309,-0.977,-0.311,0.034,117.378,12.134,2.561,14_7_2.csv
2018-07-11T11:03:35.028922,-0.977,-0.311,0.034,119.634,13.78,1.829,14_7_2.csv
2018-07-11T11:03:35.075046,-0.984,-0.265,0.02,103.902,16.585,0.488,14_7_2.csv
2018-07-11T11:03:35.122672,-0.984,-0.265,0.02,80.061,19.146,-3.354,14_7_2.csv
2018-07-11T11:03:35.181830,-0.991,-0.278,0.038,71.341,19.573,-2.134,14_7_2.csv
2018-07-11T11:03:35.231963,-0.997,-0.297,0.063,70.854,21.585,4.939,14_7_2.csv
2018-07-11T11:03:35.279089,-0.997,-0.297,0.063,81.585,24.39,7.866,14_7_2.csv
2018-07-11T11:03:35.326716,-0.994,-0.302,0.055,90.0,25.793,8.598,14_7_2.csv
2018-07-11T11:03:35.372839,-0.994,-0.302,0.055,93.171,26.098,5.671,14_7_2.csv
2018-07-11T11:03:35.418962,-0.975,-0.306,0.034,90.366,25.671,1.037,14_7_2.csv
2018-07-11T11:03:35.474610,-0.986,-0.327,0.002,78.293,22.378,-5.061,14_7_2.csv
2018-07-11T11:03:35.528253,-0.986,-0.327,0.002,78.902,19.39,-6.22,14_7_2.csv
2018-07-11T11:03:35.583902,-0.997,-0.331,-0.009,80.244,17.988,-8.902,14_7_2.csv
2018-07-11T11:03:35.639048,-0.99,-0.313,0.0,91.951,24.024,-16.768,14_7_2.csv
2018-07-11T11:03:35.685172,-0.99,-0.313,0.0,97.866,22.195,-20.793,14_7_2.csv
2018-07-11T11:03:35.733801,-1.037,-0.285,-0.007,95.366,17.5,-21.829,14_7_2.csv
2018-07-11T11:03:35.806494,-1.006,-0.27,-0.031,65.183,4.695,-24.268,14_7_2.csv
2018-07-11T11:03:35.887210,-0.94,-0.275,-0.051,32.683,6.341,-30.244,14_7_2.csv
2018-07-11T11:03:35.935338,-0.94,-0.275,-0.051,26.098,11.098,-26.159,14_7_2.csv
2018-07-11T11:03:35.982464,-0.99,-0.311,-0.045,29.207,18.78,-15.305,14_7_2.csv
2018-07-11T11:03:36.029088,-0.99,-0.311,-0.045,41.707,28.598,1.037,14_7_2.csv
2018-07-11T11:03:36.075712,-0.985,-0.314,-0.008,56.037,35.732,22.561,14_7_2.csv
2018-07-11T11:03:36.134368,-0.964,-0.304,0.024,59.146,33.415,28.537,14_7_2.csv
2018-07-11T11:03:36.187009,-0.964,-0.304,0.024,52.805,27.927,31.037,14_7_2.csv
2018-07-11T11:03:36.232129,-0.979,-0.308,0.021,15.61,14.024,22.927,14_7_2.csv
2018-07-11T11:03:36.349442,-1.018,-0.343,0.009,11.829,13.598,5.488,14_7_2.csv
2018-07-11T11:03:36.404088,-1.012,-0.321,0.035,14.268,16.524,-3.902,14_7_2.csv
2018-07-11T11:03:36.451213,-0.969,-0.314,0.063,14.451,13.598,2.683,14_7_2.csv
2018-07-11T11:03:36.509369,-0.969,-0.314,0.063,15.671,7.927,8.232,14_7_2.csv
2018-07-11T11:03:36.564014,-1.022,-0.326,0.03,12.134,-7.012,-0.915,14_7_2.csv
2018-07-11T11:03:36.614649,-1.021,-0.301,0.005,6.89,-9.512,-12.683,14_7_2.csv
2018-07-11T11:03:36.670296,-1.021,-0.301,0.005,0.305,-9.024,-21.22,14_7_2.csv
2018-07-11T11:03:36.731961,-0.959,-0.29,-0.001,-3.232,-6.585,-13.598,14_7_2.csv
2018-07-11T11:03:36.779088,-0.946,-0.302,0.002,1.28,-4.085,-1.768,14_7_2.csv
2018-07-11T11:03:36.829221,-0.946,-0.302,0.002,4.207,-2.195,6.951,14_7_2.csv
2018-07-11T11:03:36.905423,-0.988,-0.309,0.005,-5.183,-0.122,3.049,14_7_2.csv
2018-07-11T11:03:36.952549,-0.991,-0.309,0.027,-8.049,0.244,-1.951,14_7_2.csv
2018-07-11T11:03:37.000176,-0.978,-0.245,0.114,-19.878,-0.671,-4.939,14_7_2.csv
2018-07-11T11:03:37.043792,-0.978,-0.245,0.114,-62.073,-6.159,-7.805,14_7_2.csv
2018-07-11T11:03:37.095931,-1.037,-0.221,-0.003,-197.317,-20.915,-25.61,14_7_2.csv
2018-07-11T11:03:37.150076,-1.037,-0.221,-0.003,-369.39,-43.841,-64.939,14_7_2.csv
2018-07-11T11:03:37.201713,-0.953,-0.579,-0.335,-385.244,-42.683,-126.89,14_7_2.csv
2018-07-11T11:03:37.248338,-0.838,-0.75,-0.475,-279.39,-17.073,-105.671,14_7_2.csv
2018-07-11T11:03:37.297469,-0.838,-0.75,-0.475,-143.659,6.28,-76.585,14_7_2.csv
2018-07-11T11:03:37.341085,-0.907,-0.574,-0.627,-71.585,29.695,-65.305,14_7_2.csv
2018-07-11T11:03:37.387207,-0.907,-0.574,-0.627,-36.829,53.11,-62.012,14_7_2.csv
2018-07-11T11:03:37.442856,-0.99,-0.55,-0.854,72.866,120.0,-51.524,14_7_2.csv
2018-07-11T11:03:37.500510,-0.773,-0.542,-0.884,162.805,182.012,-65.061,14_7_2.csv
2018-07-11T11:03:37.550142,-0.773,-0.542,-0.884,190.061,225.915,-76.951,14_7_2.csv
2018-07-11T11:03:37.598772,-0.39,-0.616,-0.558,125.976,247.134,-82.927,14_7_2.csv
2018-07-11T11:03:37.714079,-0.281,-0.74,-0.276,94.451,182.378,-82.683,14_7_2.csv
2018-07-11T11:03:37.762207,-0.32,-0.705,-0.15,103.598,105.976,-52.378,14_7_2.csv
2018-07-11T11:03:37.819861,-0.1,-0.844,0.182,143.963,-15.488,-70.122,14_7_2.csv
2018-07-11T11:03:37.872501,-0.1,-0.844,0.182,157.317,-49.268,-78.476,14_7_2.csv
2018-07-11T11:03:37.922133,0.384,-0.813,0.104,117.622,-13.415,-36.22,14_7_2.csv
2018-07-11T11:03:37.971264,0.37,-0.735,0.291,156.281,-19.085,-29.939,14_7_2.csv
2018-07-11T11:03:38.017387,0.37,-0.735,0.291,129.085,-27.927,-21.524,14_7_2.csv
2018-07-11T11:03:38.068022,0.407,-0.767,0.399,45.854,-34.634,-20.427,14_7_2.csv
2018-07-11T11:03:38.155255,0.443,-0.977,0.302,-12.134,-39.878,-13.598,14_7_2.csv
2018-07-11T11:03:38.211404,0.492,-0.872,0.272,-24.756,-24.817,-23.232,14_7_2.csv
2018-07-11T11:03:38.264546,0.492,-0.872,0.272,-38.78,-23.354,-23.476,14_7_2.csv
2018-07-11T11:03:38.310669,0.485,-0.756,0.247,-33.293,-12.195,-15.244,14_7_2.csv
2018-07-11T11:03:38.359800,0.485,-0.756,0.247,-42.622,-11.89,-8.963,14_7_2.csv
2018-07-11T11:03:38.414946,0.492,-0.844,0.16,-25.061,-9.085,-3.171,14_7_2.csv
2018-07-11T11:03:38.478115,0.504,-0.899,0.099,-33.293,-16.646,0.549,14_7_2.csv
2018-07-11T11:03:38.533764,0.514,-0.86,0.087,-12.744,-6.463,-6.524,14_7_2.csv
2018-07-11T11:03:38.579887,0.514,-0.86,0.087,-14.268,-7.988,-2.561,14_7_2.csv
2018-07-11T11:03:38.623001,0.503,-0.829,0.071,-2.622,1.89,-2.073,14_7_2.csv
2018-07-11T11:03:38.670127,0.503,-0.829,0.071,-5.427,2.256,0.793,14_7_2.csv
2018-07-11T11:03:38.721764,0.496,-0.838,0.045,-20.854,-4.329,3.354,14_7_2.csv
2018-07-11T11:03:38.776410,0.512,-0.894,-0.002,-27.927,-12.622,-1.585,14_7_2.csv
2018-07-11T11:03:38.825040,0.512,-0.894,-0.002,-22.195,-10.061,-2.988,14_7_2.csv
2018-07-11T11:03:38.872666,0.506,-0.861,-0.008,-11.22,-6.098,-5.732,14_7_2.csv
2018-07-11T11:03:38.920795,0.506,-0.861,-0.008,-8.354,-3.902,-5.61,14_7_2.csv
2018-07-11T11:03:38.973936,0.53,-0.825,0.001,-10.427,-1.768,-3.049,14_7_2.csv
2018-07-11T11:03:39.081222,0.521,-0.828,-0.026,-10.0,-0.793,0.122,14_7_2.csv
2018-07-11T11:03:39.134503,0.525,-0.847,-0.033,-18.963,-3.293,0.244,14_7_2.csv
2018-07-11T11:03:39.187644,0.607,-0.849,-0.058,-11.768,13.902,1.646,14_7_2.csv
2018-07-11T11:03:39.231763,0.607,-0.849,-0.058,-16.951,31.402,10.305,14_7_2.csv
2018-07-11T11:03:39.280893,0.532,-0.87,-0.089,-44.512,34.695,30.366,14_7_2.csv
2018-07-11T11:03:39.329022,0.466,-0.946,-0.109,61.402,24.939,-7.622,14_7_2.csv
2018-07-11T11:03:39.388681,0.466,-0.946,-0.109,199.939,24.634,-50.61,14_7_2.csv
2018-07-11T11:03:39.450345,0.562,-0.782,0.175,142.195,-21.951,-70.366,14_7_2.csv
2018-07-11T11:03:39.529055,0.697,-0.728,0.424,237.805,-0.061,-90.061,14_7_2.csv
2018-07-11T11:03:39.576181,0.822,-0.509,0.558,161.89,20.427,-76.037,14_7_2.csv
2018-07-11T11:03:39.623807,0.822,-0.509,0.558,121.281,27.012,-68.659,14_7_2.csv
2018-07-11T11:03:39.670933,0.774,-0.349,0.656,130.976,26.22,-78.049,14_7_2.csv
2018-07-11T11:03:39.719063,0.774,-0.349,0.656,124.024,28.902,-83.415,14_7_2.csv
2018-07-11T11:03:39.772203,0.688,-0.111,0.688,13.659,22.439,-70.61,14_7_2.csv
2018-07-11T11:03:39.844395,0.675,-0.084,0.699,-5.366,23.171,-51.829,14_7_2.csv
2018-07-11T11:03:39.904555,0.65,-0.068,0.713,-17.317,25.732,-41.341,14_7_2.csv
2018-07-11T11:03:39.952183,0.65,-0.068,0.713,-35.183,24.878,-35.427,14_7_2.csv
2018-07-11T11:03:39.998807,0.662,-0.121,0.727,-17.683,22.622,-33.049,14_7_2.csv
2018-07-11T11:03:40.046434,0.662,-0.121,0.727,-3.171,19.024,-34.024,14_7_2.csv
2018-07-11T11:03:40.106093,0.577,-0.105,0.715,-10.427,-14.207,-20.671,14_7_2.csv
2018-07-11T11:03:40.154221,0.448,0.085,0.633,-8.049,-36.463,-13.537,14_7_2.csv
2018-07-11T11:03:40.203853,0.448,0.085,0.633,-6.524,-83.232,9.207,14_7_2.csv
2018-07-11T11:03:40.248974,0.604,0.185,0.659,-35.549,-80.976,56.89,14_7_2.csv
2018-07-11T11:03:40.293091,0.699,-0.636,0.422,-302.134,-27.317,187.012,14_7_2.csv
2018-07-11T11:03:40.340718,0.699,-0.636,0.422,-289.024,-4.634,181.768,14_7_2.csv
2018-07-11T11:03:40.459535,0.612,-0.789,-0.023,-257.134,1.768,107.012,14_7_2.csv
2018-07-11T11:03:40.511674,0.612,-0.789,-0.023,-166.402,16.89,88.78,14_7_2.csv
2018-07-11T11:03:40.563813,0.522,-1.208,0.024,-164.39,-3.902,66.524,14_7_2.csv
2018-07-11T11:03:40.607429,0.522,-1.208,0.024,-22.988,-43.11,-17.012,14_7_2.csv
2018-07-11T11:03:40.653050,0.442,-0.801,-0.34,-40.915,-45.305,-30.915,14_7_2.csv
2018-07-11T11:03:40.703184,0.44,-0.849,-0.299,26.22,-6.463,-13.902,14_7_2.csv
2018-07-11T11:03:40.765851,0.44,-0.849,-0.299,40.122,-7.744,-24.695,14_7_2.csv
2018-07-11T11:03:40.826011,0.46,-0.897,-0.083,34.573,-4.573,-24.268,14_7_2.csv
2018-07-11T11:03:40.884166,0.412,-0.778,-0.109,40.488,-13.049,-25.671,14_7_2.csv
2018-07-11T11:03:40.944327,0.505,-0.784,-0.131,13.171,-16.28,-17.988,14_7_2.csv
2018-07-11T11:03:41.006994,0.505,-0.784,-0.131,9.634,-15.61,-8.78,14_7_2.csv
2018-07-11T11:03:41.060637,0.597,-0.775,-0.146,-15.183,-5.732,-3.293,14_7_2.csv
2018-07-11T11:03:41.170931,0.557,-0.758,-0.169,-32.805,-11.037,0.732,14_7_2.csv
2018-07-11T11:03:41.216552,0.517,-0.8,-0.281,-27.622,-17.012,10.61,14_7_2.csv
2018-07-11T11:03:41.275710,0.479,-0.804,-0.301,-29.573,-16.89,8.72,14_7_2.csv
2018-07-11T11:03:41.349406,0.51,-0.792,-0.374,14.817,-30.732,-2.317,14_7_2.csv
2018-07-11T11:03:41.403049,0.51,-0.792,-0.374,69.39,-37.378,-4.024,14_7_2.csv
2018-07-11T11:03:41.451679,0.562,-0.609,-0.224,59.817,-19.329,2.439,14_7_2.csv
2018-07-11T11:03:41.509834,0.475,-0.795,-0.226,-26.646,18.841,27.561,14_7_2.csv
2018-07-11T11:03:41.563979,0.475,-0.795,-0.226,-16.89,20.0,21.89,14_7_2.csv
2018-07-11T11:03:41.623136,0.453,-0.946,-0.257,91.22,19.817,20.244,14_7_2.csv
2018-07-11T11:03:41.684800,0.414,-0.815,-0.06,107.317,18.476,35.61,14_7_2.csv
2018-07-11T11:03:41.734432,0.414,-0.815,-0.06,58.293,20.488,47.561,14_7_2.csv
2018-07-11T11:03:41.877313,0.337,-1.039,-0.107,137.439,28.598,47.073,14_7_2.csv
2018-07-11T11:03:41.918925,0.248,-0.955,0.146,125.976,37.866,43.232,14_7_2.csv
2018-07-11T11:03:41.967554,0.248,-0.955,0.146,55.244,23.476,28.354,14_7_2.csv
2018-07-11T11:03:42.043758,0.244,-1.003,0.201,107.988,44.512,17.622,14_7_2.csv
2018-07-11T11:03:42.089880,0.158,-0.85,0.494,109.512,20.122,14.207,14_7_2.csv
2018-07-11T11:03:42.158563,0.077,-0.894,0.517,22.317,15.122,16.585,14_7_2.csv
2018-07-11T11:03:42.202179,0.077,-0.894,0.517,28.902,8.476,18.476,14_7_2.csv
2018-07-11T11:03:42.249305,0.13,-0.924,0.517,23.293,8.78,14.451,14_7_2.csv
2018-07-11T11:03:42.315481,0.149,-0.899,0.505,-4.939,7.805,8.354,14_7_2.csv
2018-07-11T11:03:42.372132,0.149,-0.899,0.505,-7.012,3.841,3.293,14_7_2.csv
2018-07-11T11:03:42.421764,0.146,-0.95,0.432,-6.768,6.646,0.305,14_7_2.csv
2018-07-11T11:03:42.468893,0.108,-0.916,0.511,17.256,5.976,1.524,14_7_2.csv
2018-07-11T11:03:42.518021,0.108,-0.916,0.511,5.793,2.622,-2.012,14_7_2.csv
2018-07-11T11:03:42.562138,0.108,-0.899,0.534,1.463,0.427,-4.39,14_7_2.csv
2018-07-11T11:03:42.611771,0.108,-0.899,0.534,3.293,0.549,-4.634,14_7_2.csv
2018-07-11T11:03:42.678449,0.108,-0.899,0.529,-1.037,1.22,-4.573,14_7_2.csv
2018-07-11T11:03:42.732091,0.109,-0.89,0.519,-1.037,2.134,-3.78,14_7_2.csv
2018-07-11T11:03:42.781222,0.109,-0.89,0.519,-1.829,3.049,-3.354,14_7_2.csv
2018-07-11T11:03:42.826844,0.111,-0.879,0.51,-13.354,1.22,-2.073,14_7_2.csv
2018-07-11T11:03:42.887005,0.114,-0.916,0.502,-12.805,1.585,-0.671,14_7_2.csv
2018-07-11T11:03:42.939645,0.114,-0.916,0.502,-12.134,0.122,0.122,14_7_2.csv
2018-07-11T11:03:42.995794,0.121,-0.927,0.477,-5.793,-1.28,-0.671,14_7_2.csv
2018-07-11T11:03:43.044925,0.126,-0.902,0.468,-3.354,-1.524,0.0,14_7_2.csv
2018-07-11T11:03:43.094558,0.126,-0.902,0.468,-7.012,-1.89,1.829,14_7_2.csv
2018-07-11T11:03:43.233931,0.105,-0.82,0.395,-73.171,-12.439,21.951,14_7_2.csv
2018-07-11T11:03:43.278049,0.039,-0.9,0.293,-82.561,-14.024,31.159,14_7_2.csv
2018-07-11T11:03:43.327185,0.039,-0.9,0.293,-94.451,-8.293,31.707,14_7_2.csv
2018-07-11T11:03:43.388850,-0.163,-0.84,0.221,-159.817,-42.805,43.659,14_7_2.csv
2018-07-11T11:03:43.452520,-0.257,-0.717,0.054,-124.695,-86.341,75.366,14_7_2.csv
2018-07-11T11:03:43.501651,-0.257,-0.717,0.054,-115.976,-104.451,98.72,14_7_2.csv
2018-07-11T11:03:43.551283,-0.395,-0.827,-0.272,-160.976,-155.671,107.317,14_7_2.csv
2018-07-11T11:03:43.608436,-0.566,-0.912,-0.481,-97.134,-164.939,108.171,14_7_2.csv
2018-07-11T11:03:43.657065,-0.566,-0.912,-0.481,-57.622,-144.817,104.207,14_7_2.csv
2018-07-11T11:03:43.731263,-0.774,-0.766,-0.497,-44.573,-115.61,111.402,14_7_2.csv
2018-07-11T11:03:43.798442,-0.912,-0.734,-0.398,80.549,-93.598,130.549,14_7_2.csv
2018-07-11T11:03:43.841557,-0.996,-0.564,-0.28,169.756,-65.366,140.671,14_7_2.csv
2018-07-11T11:03:43.905728,-0.996,-0.564,-0.28,157.866,-37.988,134.817,14_7_2.csv
2018-07-11T11:03:43.955360,-1.005,-0.5,-0.091,39.39,53.354,60.061,14_7_2.csv
2018-07-11T11:03:43.998978,-0.995,-0.527,-0.085,69.329,97.622,16.829,14_7_2.csv
2018-07-11T11:03:44.063649,-0.995,-0.527,-0.085,83.598,109.878,-2.866,14_7_2.csv
2018-07-11T11:03:44.109772,-1.074,-0.345,0.358,55.793,89.878,-11.037,14_7_2.csv
2018-07-11T11:03:44.158903,-0.908,-0.453,0.093,-90.488,-62.805,-9.634,14_7_2.csv
2018-07-11T11:03:44.219063,-0.908,-0.453,0.093,9.512,-17.683,8.659,14_7_2.csv
2018-07-11T11:03:44.263180,-0.996,-0.477,-0.235,60.427,-4.329,9.146,14_7_2.csv
2018-07-11T11:03:44.312813,-1.004,-0.321,-0.065,129.024,15.183,-13.232,14_7_2.csv
2018-07-11T11:03:44.375480,-1.004,-0.321,-0.065,114.329,20.061,-18.72,14_7_2.csv
2018-07-11T11:03:44.530393,-0.957,-0.259,-0.032,28.598,5.732,-3.11,14_7_2.csv
2018-07-11T11:03:44.591556,-0.969,-0.296,0.028,13.232,11.707,8.537,14_7_2.csv
2018-07-11T11:03:44.638180,-0.996,-0.352,0.029,-8.049,15.671,19.878,14_7_2.csv
2018-07-11T11:03:44.691823,-0.996,-0.352,0.029,-15.183,9.268,21.524,14_7_2.csv
2018-07-11T11:03:44.735440,-0.985,-0.387,-0.01,-13.902,2.012,17.561,14_7_2.csv
2018-07-11T11:03:44.794095,-0.974,-0.373,-0.02,-4.878,-2.927,11.524,14_7_2.csv
2018-07-11T11:03:44.857765,-0.974,-0.373,-0.02,-2.927,-1.768,3.537,14_7_2.csv
2018-07-11T11:03:44.920936,-0.978,-0.353,-0.026,-10.61,0.122,-3.415,14_7_2.csv
2018-07-11T11:03:44.989616,-0.976,-0.321,-0.006,-8.598,0.61,-3.232,14_7_2.csv
2018-07-11T11:03:45.048774,-0.979,-0.327,0.003,-17.744,-0.488,1.28,14_7_2.csv
2018-07-11T11:03:45.109937,-0.979,-0.327,0.003,-20.976,-4.268,2.988,14_7_2.csv
2018-07-11T11:03:45.170098,-0.982,-0.362,-0.023,-11.463,-1.524,4.085,14_7_2.csv
2018-07-11T11:03:45.225746,-0.999,-0.365,-0.005,-8.415,-1.463,4.39,14_7_2.csv
2018-07-11T11:03:45.284402,-0.974,-0.306,0.011,6.098,-5.366,1.707,14_7_2.csv
2018-07-11T11:03:45.329523,-0.974,-0.306,0.011,7.988,-2.744,1.28,14_7_2.csv
2018-07-11T11:03:45.388680,-0.954,-0.293,-0.002,10.793,0.61,4.817,14_7_2.csv
2018-07-11T11:03:45.435806,-0.954,-0.293,-0.002,8.171,-0.549,10.671,14_7_2.csv
2018-07-11T11:03:45.485940,-0.993,-0.335,-0.039,-0.244,-4.634,9.939,14_7_2.csv
2018-07-11T11:03:45.544596,-0.99,-0.324,-0.025,-5.976,-3.963,1.341,14_7_2.csv
2018-07-11T11:03:45.591722,-0.99,-0.324,-0.025,-7.012,-0.793,-5.427,14_7_2.csv
2018-07-11T11:03:45.641855,-0.983,-0.28,0.015,-17.927,-3.415,-0.793,14_7_2.csv
2018-07-11T11:03:45.686976,-0.992,-0.287,0.01,-20.122,-3.415,2.622,14_7_2.csv
2018-07-11T11:03:45.735605,-0.992,-0.287,0.01,-17.744,-2.378,2.317,14_7_2.csv
2018-07-11T11:03:45.799275,-1.0,-0.294,0.026,-14.512,-1.159,3.72,14_7_2.csv
2018-07-11T11:03:45.890518,-0.985,-0.314,-0.025,7.256,-0.305,0.854,14_7_2.csv
2018-07-11T11:03:45.940150,-0.998,-0.279,-0.006,3.476,0.671,1.585,14_7_2.csv
2018-07-11T11:03:45.998807,-0.998,-0.279,-0.006,-4.268,0.305,4.024,14_7_2.csv
2018-07-11T11:03:46.061473,-1.035,-0.288,0.035,-9.756,3.902,5.793,14_7_2.csv
2018-07-11T11:03:46.108098,-1.074,-0.305,0.03,-15.305,15.122,8.598,14_7_2.csv
2018-07-11T11:03:46.155224,-1.074,-0.305,0.03,10.183,26.646,6.585,14_7_2.csv
2018-07-11T11:03:46.207863,-1.08,-0.188,0.001,21.646,32.134,-9.451,14_7_2.csv
2018-07-11T11:03:46.252482,-1.011,-0.082,-0.002,-6.402,26.829,-8.659,14_7_2.csv
2018-07-11T11:03:46.296099,-1.011,-0.082,-0.002,-35.793,20.366,3.902,14_7_2.csv
2018-07-11T11:03:46.343224,-0.967,-0.136,-0.21,-76.28,28.476,4.024,14_7_2.csv
2018-07-11T11:03:46.388846,-0.967,-0.136,-0.21,-94.085,31.585,2.317,14_7_2.csv
2018-07-11T11:03:46.434969,-0.922,-0.224,-0.37,-78.72,26.22,5.854,14_7_2.csv
2018-07-11T11:03:46.499140,-0.854,-0.268,-0.402,-40.244,0.854,-1.28,14_7_2.csv
2018-07-11T11:03:46.545262,-0.854,-0.268,-0.402,-22.073,-8.902,3.72,14_7_2.csv
2018-07-11T11:03:46.595396,-0.876,-0.295,-0.313,-10.427,-11.829,11.768,14_7_2.csv
2018-07-11T11:03:46.639013,-0.876,-0.295,-0.313,9.451,-8.902,28.537,14_7_2.csv
2018-07-11T11:03:46.686138,-0.984,-0.19,-0.164,-49.085,16.402,11.646,14_7_2.csv
2018-07-11T11:03:46.738277,-0.98,-0.103,-0.238,-103.598,22.622,-11.402,14_7_2.csv
2018-07-11T11:03:46.790416,-0.98,-0.103,-0.238,-160.366,39.634,-40.183,14_7_2.csv
2018-07-11T11:03:46.841051,-0.928,-0.374,-0.386,-177.134,43.78,-80.427,14_7_2.csv
2018-07-11T11:03:46.893692,-0.881,-0.192,-0.267,-21.89,-17.134,-55.671,14_7_2.csv
2018-07-11T11:03:46.951345,-0.881,-0.192,-0.267,-36.768,-11.463,-47.134,14_7_2.csv
2018-07-11T11:03:47.000476,-0.881,-0.254,-0.398,-85.915,1.951,-65.488,14_7_2.csv
2018-07-11T11:03:47.066652,-0.888,-0.32,-0.42,-5.976,-9.451,-32.988,14_7_2.csv
2018-07-11T11:03:47.134834,-0.967,-0.262,-0.211,52.5,-1.341,-2.317,14_7_2.csv
2018-07-11T11:03:47.185469,-0.967,-0.262,-0.211,20.488,-8.72,-7.927,14_7_2.csv
2018-07-11T11:03:47.299272,-0.917,-0.355,-0.346,8.049,-22.134,-8.902,14_7_2.csv
2018-07-11T11:03:47.346398,-0.917,-0.355,-0.346,10.122,-9.878,-6.28,14_7_2.csv
2018-07-11T11:03:47.405556,-0.895,-0.299,-0.305,16.951,-5.671,-3.598,14_7_2.csv
2018-07-11T11:03:47.455188,-0.871,-0.301,-0.295,-23.415,-17.988,-15.732,14_7_2.csv
2018-07-11T11:03:47.505823,-0.871,-0.301,-0.295,-29.573,-15.366,-17.5,14_7_2.csv
2018-07-11T11:03:47.559967,-0.901,-0.342,-0.282,-22.683,-6.768,-10.61,14_7_2.csv
2018-07-11T11:03:47.610100,-0.961,-0.322,-0.168,-14.329,-14.451,-4.207,14_7_2.csv
2018-07-11T11:03:47.656224,-0.961,-0.322,-0.168,-34.939,-24.756,-12.134,14_7_2.csv
2018-07-11T11:03:47.705856,-0.963,-0.358,-0.188,-54.268,-30.061,-15.061,14_7_2.csv
2018-07-11T11:03:47.769024,-0.951,-0.39,-0.192,-59.878,-34.939,-16.768,14_7_2.csv
2018-07-11T11:03:47.823168,-0.951,-0.39,-0.192,-57.256,-32.622,-15.854,14_7_2.csv
2018-07-11T11:03:47.872801,-0.934,-0.4,-0.171,-60.549,-44.268,-19.939,14_7_2.csv
2018-07-11T11:03:47.938476,-0.947,-0.384,-0.147,-41.463,-49.207,-21.829,14_7_2.csv
2018-07-11T11:03:47.984097,-0.947,-0.384,-0.147,-39.756,-48.598,-22.683,14_7_2.csv
2018-07-11T11:03:48.028215,-0.944,-0.391,-0.106,-41.585,-47.561,-21.829,14_7_2.csv
2018-07-11T11:03:48.076845,-0.944,-0.391,-0.106,-38.963,-35.183,-14.573,14_7_2.csv
2018-07-11T11:03:48.139512,-0.937,-0.361,-0.124,-46.037,-17.134,-14.329,14_7_2.csv
2018-07-11T11:03:48.201176,-0.913,-0.39,-0.104,-44.512,-15.915,-13.476,14_7_2.csv
2018-07-11T11:03:48.249304,-0.913,-0.39,-0.104,-34.146,-12.805,-11.341,14_7_2.csv
2018-07-11T11:03:48.296430,-0.895,-0.399,-0.056,-54.207,-22.988,-13.72,14_7_2.csv
2018-07-11T11:03:48.342052,-0.914,-0.438,-0.07,-58.659,-28.415,-14.573,14_7_2.csv
2018-07-11T11:03:48.388676,-0.914,-0.438,-0.07,-64.573,-37.439,-17.927,14_7_2.csv
2018-07-11T11:03:48.442319,-0.953,-0.474,-0.083,-49.573,-40.0,-13.171,14_7_2.csv
2018-07-11T11:03:48.498970,-0.957,-0.408,-0.112,24.085,-12.317,15.122,14_7_2.csv
2018-07-11T11:03:48.548101,-0.957,-0.408,-0.112,41.646,7.073,20.671,14_7_2.csv
2018-07-11T11:03:48.654384,-0.962,-0.355,-0.032,87.317,41.707,29.207,14_7_2.csv
2018-07-11T11:03:48.719056,-0.962,-0.355,-0.032,116.951,43.78,43.293,14_7_2.csv
2018-07-11T11:03:48.764176,-0.965,-0.31,-0.07,124.268,52.073,54.329,14_7_2.csv
2018-07-11T11:03:48.818823,-1.009,-0.319,-0.118,138.11,46.524,49.512,14_7_2.csv
2018-07-11T11:03:48.873468,-1.009,-0.319,-0.118,170.61,35.0,42.988,14_7_2.csv
2018-07-11T11:03:48.924604,-1.021,-0.239,-0.047,139.329,33.171,31.89,14_7_2.csv
2018-07-11T11:03:48.975239,-1.015,-0.218,-0.035,132.5,32.317,22.988,14_7_2.csv
2018-07-11T11:03:49.033895,-1.015,-0.218,-0.035,122.561,29.695,21.402,14_7_2.csv
2018-07-11T11:03:49.087539,-1.128,-0.224,0.073,72.317,28.78,29.268,14_7_2.csv
2018-07-11T11:03:49.151709,-0.961,-0.244,0.07,45.366,-12.561,23.902,14_7_2.csv
2018-07-11T11:03:49.201342,-0.961,-0.244,0.07,84.878,0.183,15.183,14_7_2.csv
2018-07-11T11:03:49.282057,-0.923,-0.167,-0.117,93.11,18.598,5.976,14_7_2.csv
2018-07-11T11:03:49.330686,-1.02,-0.158,-0.125,85.732,16.28,6.89,14_7_2.csv
2018-07-11T11:03:49.375807,-1.02,-0.158,-0.125,74.268,12.317,9.39,14_7_2.csv
2018-07-11T11:03:49.421428,-1.101,-0.139,-0.021,26.768,0.061,11.341,14_7_2.csv
2018-07-11T11:03:49.485099,-1.064,-0.083,0.032,30.671,-1.524,8.293,14_7_2.csv
2018-07-11T11:03:49.530720,-1.064,-0.083,0.032,21.524,4.451,10.793,14_7_2.csv
2018-07-11T11:03:49.589877,-0.984,-0.185,-0.041,17.439,7.988,13.049,14_7_2.csv
2018-07-11T11:03:49.637504,-0.989,-0.166,-0.092,27.378,1.341,12.683,14_7_2.csv
2018-07-11T11:03:49.688139,-0.989,-0.166,-0.092,19.146,-2.378,5.671,14_7_2.csv
2018-07-11T11:03:49.747798,-1.035,-0.112,-0.011,3.902,-10.0,0.549,14_7_2.csv
2018-07-11T11:03:49.795425,-1.005,-0.143,0.006,3.841,-5.0,0.366,14_7_2.csv
2018-07-11T11:03:49.852577,-1.005,-0.143,0.006,10.61,1.098,-1.951,14_7_2.csv
2018-07-11T11:03:49.904215,-1.006,-0.134,-0.05,7.744,-1.159,-15.671,14_7_2.csv
2018-07-11T11:03:50.021026,-1.021,-0.302,0.031,-11.341,-12.256,-46.463,14_7_2.csv
2018-07-11T11:03:50.081187,-1.021,-0.302,0.031,2.195,-7.317,-30.488,14_7_2.csv
2018-07-11T11:03:50.137838,-0.992,-0.224,0.043,14.878,-2.561,-10.732,14_7_2.csv
2018-07-11T11:03:50.184963,-0.99,-0.272,-0.009,-16.89,1.402,0.305,14_7_2.csv
2018-07-11T11:03:50.235097,-0.99,-0.272,-0.009,-12.317,5.122,1.646,14_7_2.csv
2018-07-11T11:03:50.281721,-1.0,-0.287,-0.001,-6.159,4.024,3.537,14_7_2.csv
2018-07-11T11:03:50.324836,-1.0,-0.287,-0.001,-8.293,1.402,2.134,14_7_2.csv
2018-07-11T11:03:50.374970,-1.0,-0.286,0.008,-8.659,1.28,0.183,14_7_2.csv
2018-07-11T11:03:50.440645,-0.995,-0.292,0.01,8.78,-0.671,-0.427,14_7_2.csv
2018-07-11T11:03:50.499802,-0.995,-0.292,0.01,13.354,0.549,0.0,14_7_2.csv
2018-07-11T11:03:50.546928,-0.99,-0.292,0.007,24.085,7.561,6.89,14_7_2.csv
2018-07-11T11:03:50.597061,-1.001,-0.26,-0.009,18.11,8.598,7.988,14_7_2.csv
2018-07-11T11:03:50.656219,-1.001,-0.26,-0.009,17.378,5.366,7.561,14_7_2.csv
2018-07-11T11:03:50.720390,-1.003,-0.223,-0.015,15.305,3.659,5.671,14_7_2.csv
2018-07-11T11:03:50.764006,-1.006,-0.217,-0.007,11.89,2.927,6.402,14_7_2.csv
2018-07-11T11:03:50.827175,-1.003,-0.241,0.008,10.061,-2.622,-2.256,14_7_2.csv
2018-07-11T11:03:50.904882,-0.996,-0.256,-0.013,7.5,7.439,-7.622,14_7_2.csv
2018-07-11T11:03:50.970056,-0.996,-0.256,-0.013,6.22,10.0,-11.402,14_7_2.csv
2018-07-11T11:03:51.016179,-1.012,-0.247,-0.023,3.902,5.366,-12.5,14_7_2.csv
2018-07-11T11:03:51.077843,-1.001,-0.25,-0.002,-12.256,-1.89,-8.232,14_7_2.csv
2018-07-11T11:03:51.127475,-1.001,-0.25,-0.002,-18.78,-2.805,-3.963,14_7_2.csv
2018-07-11T11:03:51.188638,-0.99,-0.285,-0.005,-38.72,-1.89,4.512,14_7_2.csv
2018-07-11T11:03:51.250303,-1.002,-0.295,-0.026,-17.866,-1.707,9.878,14_7_2.csv
2018-07-11T11:03:51.378645,-1.003,-0.266,-0.023,-8.354,1.341,7.378,14_7_2.csv
2018-07-11T11:03:51.420757,-0.99,-0.27,-0.017,9.817,2.5,11.098,14_7_2.csv
2018-07-11T11:03:51.468885,-1.005,-0.29,-0.034,16.159,1.402,11.646,14_7_2.csv
2018-07-11T11:03:51.519019,-1.005,-0.29,-0.034,31.159,0.488,12.256,14_7_2.csv
2018-07-11T11:03:51.565142,-1.027,-0.218,-0.004,49.573,-3.11,10.793,14_7_2.csv
2018-07-11T11:03:51.619788,-1.027,-0.218,-0.004,46.341,-5.183,11.707,14_7_2.csv
2018-07-11T11:03:51.670924,-1.006,-0.121,0.011,21.951,0.488,14.756,14_7_2.csv
2018-07-11T11:03:51.719052,-1.012,-0.187,0.011,-3.232,1.524,14.634,14_7_2.csv
2018-07-11T11:03:51.764673,-1.012,-0.187,0.011,-2.561,-7.134,18.11,14_7_2.csv
2018-07-11T11:03:51.809293,-1.036,-0.219,0.034,10.183,-9.695,15.915,14_7_2.csv
2018-07-11T11:03:51.860930,-1.036,-0.219,0.034,18.11,-14.817,19.146,14_7_2.csv
2018-07-11T11:03:51.909059,-1.023,-0.122,0.066,49.207,-0.061,21.768,14_7_2.csv
2018-07-11T11:03:51.967215,-1.015,-0.042,0.051,36.098,4.39,14.878,14_7_2.csv
2018-07-11T11:03:52.012835,-1.015,-0.042,0.051,10.549,5.976,3.049,14_7_2.csv
2018-07-11T11:03:52.063972,-1.027,-0.106,0.031,-0.793,14.512,-7.439,14_7_2.csv
2018-07-11T11:03:52.130649,-1.026,-0.139,0.03,-11.829,12.134,-3.049,14_7_2.csv
2018-07-11T11:03:52.190308,-1.026,-0.139,0.03,-4.329,18.537,-3.78,14_7_2.csv
2018-07-11T11:03:52.241444,-1.027,-0.132,0.006,-2.012,17.5,-2.744,14_7_2.csv
2018-07-11T11:03:52.294084,-1.011,-0.137,-0.055,-2.378,9.573,-1.89,14_7_2.csv
2018-07-11T11:03:52.346223,-1.011,-0.137,-0.055,8.11,-2.866,-4.207,14_7_2.csv
2018-07-11T11:03:52.392848,-0.994,-0.114,-0.074,-6.28,-20.793,-7.561,14_7_2.csv
2018-07-11T11:03:52.436464,-1.013,-0.135,0.038,-21.829,-26.28,-12.988,14_7_2.csv
2018-07-11T11:03:52.483088,-1.013,-0.135,0.038,-37.256,-29.634,-16.22,14_7_2.csv
2018-07-11T11:03:52.545755,-1.009,-0.206,0.108,-43.049,-16.22,-16.707,14_7_2.csv
2018-07-11T11:03:52.608422,-1.023,-0.214,0.051,-24.634,1.22,-7.012,14_7_2.csv
2018-07-11T11:03:52.704679,-1.023,-0.197,0.033,-13.963,-5.976,0.854,14_7_2.csv
2018-07-11T11:03:52.748295,-1.023,-0.197,0.033,-23.171,-2.195,-0.122,14_7_2.csv
2018-07-11T11:03:52.808957,-1.022,-0.213,0.047,-8.963,1.768,-2.927,14_7_2.csv
2018-07-11T11:03:52.857085,-1.01,-0.226,0.049,3.11,11.037,-8.354,14_7_2.csv
2018-07-11T11:03:52.942814,-1.011,-0.25,0.02,51.707,23.963,-4.817,14_7_2.csv
2018-07-11T11:03:53.020019,-1.023,-0.229,-0.003,79.573,23.902,-5.305,14_7_2.csv
2018-07-11T11:03:53.071657,-1.023,-0.229,-0.003,62.622,12.5,-1.159,14_7_2.csv
2018-07-11T11:03:53.124298,-1.012,-0.166,-0.008,14.756,-10.305,2.744,14_7_2.csv
2018-07-11T11:03:53.171423,-1.026,-0.188,-0.014,4.878,-10.549,-2.805,14_7_2.csv
2018-07-11T11:03:53.219050,-1.026,-0.188,-0.014,-0.122,-16.463,-3.963,14_7_2.csv
2018-07-11T11:03:53.275701,-1.024,-0.173,0.047,-20.061,-23.78,-0.61,14_7_2.csv
2018-07-11T11:03:53.326335,-0.998,-0.277,0.087,-39.878,-6.098,7.378,14_7_2.csv
2018-07-11T11:03:53.377472,-0.998,-0.277,0.087,-24.451,-4.939,10.976,14_7_2.csv
2018-07-11T11:03:53.420086,-0.999,-0.292,0.091,0.976,-1.341,11.463,14_7_2.csv
2018-07-11T11:03:53.465707,-0.999,-0.292,0.091,28.171,7.805,6.768,14_7_2.csv
2018-07-11T11:03:53.514838,-1.016,-0.219,0.083,58.598,21.28,5.793,14_7_2.csv
2018-07-11T11:03:53.574497,-1.01,-0.184,0.002,72.134,17.805,-4.451,14_7_2.csv
2018-07-11T11:03:53.632151,-1.01,-0.184,0.002,71.159,4.085,-8.841,14_7_2.csv
2018-07-11T11:03:53.686796,-1.023,-0.11,-0.028,-9.573,-36.341,-29.756,14_7_2.csv
2018-07-11T11:03:53.735927,-0.997,-0.251,0.153,-27.317,-46.28,-25.976,14_7_2.csv
2018-07-11T11:03:53.782050,-0.997,-0.251,0.153,-9.39,-10.976,-10.122,14_7_2.csv
2018-07-11T11:03:53.826669,-0.984,-0.281,0.165,-5.732,-3.476,0.122,14_7_2.csv
2018-07-11T11:03:53.881315,-0.992,-0.281,0.136,-12.805,-2.988,4.573,14_7_2.csv
2018-07-11T11:03:53.935459,-0.992,-0.281,0.136,-5.061,2.012,9.573,14_7_2.csv
2018-07-11T11:03:54.001135,-1.002,-0.227,0.132,-17.073,8.476,14.939,14_7_2.csv
2018-07-11T11:03:54.086863,-1.009,-0.28,0.136,17.134,13.415,1.951,14_7_2.csv
2018-07-11T11:03:54.142511,-1.03,-0.303,0.099,66.098,18.902,-1.037,14_7_2.csv
2018-07-11T11:03:54.188634,-1.03,-0.303,0.099,93.841,6.037,-6.28,14_7_2.csv
2018-07-11T11:03:54.239770,-1.017,-0.116,0.066,86.585,-4.939,-10.122,14_7_2.csv
2018-07-11T11:03:54.292912,-1.005,-0.183,0.105,7.683,-0.244,-3.841,14_7_2.csv
2018-07-11T11:03:54.346053,-1.005,-0.183,0.105,3.476,-9.207,-9.756,14_7_2.csv
2018-07-11T11:03:54.390171,-0.988,-0.27,0.166,15.549,-30.366,-25.488,14_7_2.csv
2018-07-11T11:03:54.436294,-0.988,-0.27,0.166,20.732,-38.78,-30.671,14_7_2.csv
2018-07-11T11:03:54.484422,-0.959,-0.292,0.276,0.793,-10.854,-15.305,14_7_2.csv
2018-07-11T11:03:54.539068,-0.935,-0.387,0.297,19.329,-11.524,-20.305,14_7_2.csv
2018-07-11T11:03:54.593212,-0.935,-0.387,0.297,30.671,-13.232,-24.817,14_7_2.csv
2018-07-11T11:03:54.660391,-0.936,-0.395,0.295,40.915,6.341,-21.585,14_7_2.csv
2018-07-11T11:03:54.704509,-0.992,-0.293,0.168,62.256,10.122,-10.427,14_7_2.csv
2018-07-11T11:03:54.748125,-0.992,-0.293,0.168,37.561,16.646,-0.366,14_7_2.csv
2018-07-11T11:03:54.804275,-0.984,-0.243,0.174,-31.098,15.61,14.39,14_7_2.csv
2018-07-11T11:03:54.881480,-0.959,-0.283,0.258,-62.683,14.817,22.134,14_7_2.csv
2018-07-11T11:03:54.936126,-1.008,-0.353,0.16,-71.22,10.915,25.976,14_7_2.csv
2018-07-11T11:03:54.982249,-1.008,-0.353,0.16,-49.817,5.427,26.341,14_7_2.csv
2018-07-11T11:03:55.034889,-1.005,-0.345,0.083,-16.829,2.012,25.061,14_7_2.csv
2018-07-11T11:03:55.090539,-0.994,-0.214,0.194,15.122,18.049,13.293,14_7_2.csv
2018-07-11T11:03:55.138666,-0.994,-0.214,0.194,1.951,16.28,21.22,14_7_2.csv
2018-07-11T11:03:55.188799,-1.013,-0.211,0.158,-19.451,-0.549,20.122,14_7_2.csv
2018-07-11T11:03:55.246453,-1.023,-0.234,-0.001,-8.902,0.915,9.756,14_7_2.csv
2018-07-11T11:03:55.296085,-1.023,-0.234,-0.001,-4.085,9.573,-0.976,14_7_2.csv
2018-07-11T11:03:55.342208,-1.029,-0.199,0.136,23.598,18.11,-3.963,14_7_2.csv
2018-07-11T11:03:55.427436,-1.021,-0.174,0.18,27.744,22.073,-5.732,14_7_2.csv
2018-07-11T11:03:55.466541,-1.021,-0.174,0.18,11.646,17.195,-2.317,14_7_2.csv
2018-07-11T11:03:55.531718,-0.984,-0.246,0.027,3.72,24.817,10.488,14_7_2.csv
2018-07-11T11:03:55.624966,-0.992,-0.201,-0.003,21.037,24.939,15.549,14_7_2.csv
2018-07-11T11:03:55.671089,-1.048,-0.194,0.032,8.537,15.244,5.427,14_7_2.csv
2018-07-11T11:03:55.718716,-1.048,-0.194,0.032,13.476,7.622,2.378,14_7_2.csv
2018-07-11T11:03:55.764338,-1.032,-0.206,-0.035,25.488,-0.732,1.646,14_7_2.csv
2018-07-11T11:03:55.810460,-0.994,-0.159,-0.009,21.159,-3.598,-5.488,14_7_2.csv
2018-07-11T11:03:55.864605,-0.994,-0.159,-0.009,13.78,1.463,-2.988,14_7_2.csv
2018-07-11T11:03:55.920253,-1.03,-0.208,0.033,13.476,6.89,-0.793,14_7_2.csv
2018-07-11T11:03:55.973394,-1.015,-0.214,-0.016,40.671,2.073,3.232,14_7_2.csv
2018-07-11T11:03:56.018014,-1.015,-0.214,-0.016,62.073,3.354,4.207,14_7_2.csv
2018-07-11T11:03:56.067145,-0.995,-0.113,0.005,56.463,11.159,3.11,14_7_2.csv
2018-07-11T11:03:56.114271,-0.995,-0.113,0.005,28.232,17.317,0.793,14_7_2.csv
2018-07-11T11:03:56.177439,-0.993,-0.149,-0.016,-13.049,11.037,-6.037,14_7_2.csv
2018-07-11T11:03:56.233088,-1.003,-0.227,-0.033,-4.207,8.171,1.463,14_7_2.csv
2018-07-11T11:03:56.283221,-1.003,-0.227,-0.033,10.427,6.037,7.866,14_7_2.csv
2018-07-11T11:03:56.327338,-1.008,-0.135,-0.058,2.439,3.963,6.098,14_7_2.csv
2018-07-11T11:03:56.378475,-1.022,-0.185,-0.051,-25.793,-2.012,-3.78,14_7_2.csv
2018-07-11T11:03:56.420085,-1.022,-0.185,-0.051,-39.695,-4.817,-9.695,14_7_2.csv
2018-07-11T11:03:56.480246,-0.996,-0.21,-0.089,-42.866,-5.549,-1.524,14_7_2.csv
2018-07-11T11:03:56.532385,-1.023,-0.13,-0.102,-66.951,0.671,-9.634,14_7_2.csv
2018-07-11T11:03:56.585526,-1.023,-0.13,-0.102,-99.146,-2.805,-8.841,14_7_2.csv
2018-07-11T11:03:56.655213,-1.032,-0.297,0.02,-161.951,-12.927,-17.927,14_7_2.csv
2018-07-11T11:03:56.700834,-1.014,-0.392,-0.002,-82.683,-11.098,-10.427,14_7_2.csv
2018-07-11T11:03:56.792076,-1.013,-0.24,-0.001,-5.671,4.512,-9.634,14_7_2.csv
2018-07-11T11:03:56.851234,-1.013,-0.24,-0.001,-18.049,0.732,-5.122,14_7_2.csv
2018-07-11T11:03:56.904376,-0.971,-0.293,-0.062,91.159,-0.915,16.707,14_7_2.csv
2018-07-11T11:03:56.954008,-0.988,-0.23,-0.092,91.646,8.171,10.976,14_7_2.csv
2018-07-11T11:03:57.003139,-0.988,-0.23,-0.092,99.878,6.585,15.793,14_7_2.csv
2018-07-11T11:03:57.048761,-1.002,-0.1,-0.083,97.622,-3.963,11.463,14_7_2.csv
2018-07-11T11:03:57.090371,-1.002,-0.1,-0.083,75.671,-7.622,-4.756,14_7_2.csv
2018-07-11T11:03:57.148025,-1.025,-0.006,-0.049,-21.341,-2.988,-13.476,14_7_2.csv
2018-07-11T11:03:57.201167,-1.055,-0.143,-0.061,-68.415,0.854,-12.622,14_7_2.csv
2018-07-11T11:03:57.251300,-1.055,-0.143,-0.061,-61.585,14.207,-6.89,14_7_2.csv
2018-07-11T11:03:57.297925,-1.058,-0.251,-0.007,-29.695,30.915,16.402,14_7_2.csv
2018-07-11T11:03:57.342544,-1.018,-0.327,-0.065,-10.244,23.049,19.817,14_7_2.csv
2018-07-11T11:03:57.388166,-1.018,-0.327,-0.065,21.098,11.829,20.915,14_7_2.csv
2018-07-11T11:03:57.447824,-0.997,-0.249,-0.177,56.341,1.463,23.354,14_7_2.csv
2018-07-11T11:03:57.518513,-0.965,-0.066,-0.141,83.476,1.463,16.28,14_7_2.csv
2018-07-11T11:03:57.563132,-0.965,-0.066,-0.141,76.463,4.878,15.244,14_7_2.csv
2018-07-11T11:03:57.623292,-0.971,0.017,-0.122,12.012,10.305,6.28,14_7_2.csv
2018-07-11T11:03:57.673426,-1.014,-0.086,-0.161,-31.037,6.159,-4.634,14_7_2.csv
2018-07-11T11:03:57.717042,-1.014,-0.086,-0.161,-53.598,-1.646,-11.707,14_7_2.csv
2018-07-11T11:03:57.776200,-1.022,-0.154,-0.112,-57.561,-8.293,-15.366,14_7_2.csv
2018-07-11T11:03:57.836861,-1.008,-0.164,-0.07,-65.61,-13.78,-17.622,14_7_2.csv
2018-07-11T11:03:57.889000,-1.008,-0.164,-0.07,-73.354,-23.11,-19.207,14_7_2.csv
2018-07-11T11:03:57.951667,-0.994,-0.238,-0.049,-79.39,-39.024,-30.0,14_7_2.csv
2018-07-11T11:03:58.001299,-1.013,-0.244,-0.013,-64.207,-37.378,-24.939,14_7_2.csv
2018-07-11T11:03:58.062966,-1.025,-0.193,-0.027,-47.561,-35.427,-11.707,14_7_2.csv
2018-07-11T11:03:58.161729,-0.994,-0.262,0.005,-42.256,-19.756,-11.89,14_7_2.csv
2018-07-11T11:03:58.219884,-0.994,-0.262,0.005,-18.659,-4.756,0.488,14_7_2.csv
2018-07-11T11:03:58.283055,-0.993,-0.251,0.043,-16.707,1.585,5.0,14_7_2.csv
2018-07-11T11:03:58.328178,-1.052,-0.275,0.025,-16.22,-1.89,-0.244,14_7_2.csv
2018-07-11T11:03:58.392850,-0.989,-0.175,0.066,-4.756,-19.756,-3.659,14_7_2.csv
2018-07-11T11:03:58.439475,-0.989,-0.175,0.066,-3.902,-17.134,-1.707,14_7_2.csv
2018-07-11T11:03:58.503645,-0.962,-0.212,0.083,-23.049,0.366,5.915,14_7_2.csv
2018-07-11T11:03:58.562302,-1.026,-0.252,0.024,-19.451,-3.476,-1.768,14_7_2.csv
2018-07-11T11:03:58.611934,-1.026,-0.252,0.024,-26.89,-6.28,-8.902,14_7_2.csv
2018-07-11T11:03:58.670089,-1.006,-0.214,0.086,-34.39,-0.122,-0.183,14_7_2.csv
2018-07-11T11:03:58.722729,-0.972,-0.272,0.057,-32.134,3.963,5.305,14_7_2.csv
2018-07-11T11:03:58.765343,-0.972,-0.272,0.057,-19.024,6.524,8.415,14_7_2.csv
2018-07-11T11:03:58.837535,-1.0,-0.271,0.008,-10.366,7.5,3.354,14_7_2.csv
2018-07-11T11:03:58.888672,-1.061,-0.213,0.045,0.122,10.61,3.598,14_7_2.csv
2018-07-11T11:03:58.969888,-1.022,-0.198,0.032,17.073,1.829,2.561,14_7_2.csv
2018-07-11T11:03:59.015511,-1.022,-0.198,0.032,16.951,-0.976,0.854,14_7_2.csv
2018-07-11T11:03:59.065643,-0.991,-0.227,-0.007,2.195,-0.976,-2.073,14_7_2.csv
2018-07-11T11:03:59.120289,-1.014,-0.208,-0.002,7.927,-4.39,-3.659,14_7_2.csv
2018-07-11T11:03:59.188972,-1.017,-0.19,0.053,5.488,-4.085,-6.159,14_7_2.csv
2018-07-11T11:03:59.232588,-1.017,-0.19,0.053,-3.902,-7.134,-4.756,14_7_2.csv
2018-07-11T11:03:59.282722,-1.001,-0.26,0.039,-8.049,-3.598,-4.329,14_7_2.csv
2018-07-11T11:03:59.329346,-1.001,-0.26,0.039,-2.744,0.61,-4.634,14_7_2.csv
2018-07-11T11:03:59.376471,-1.0,-0.264,0.027,4.939,-0.732,-2.5,14_7_2.csv
2018-07-11T11:03:59.422093,-1.0,-0.264,0.027,10.061,0.366,-2.317,14_7_2.csv
2018-07-11T11:03:59.520355,-1.011,-0.222,0.036,7.134,-0.305,0.61,14_7_2.csv
2018-07-11T11:03:59.583022,-1.011,-0.222,0.036,4.329,1.585,1.707,14_7_2.csv
2018-07-11T11:03:59.643684,-1.0,-0.224,0.029,15.732,4.024,4.329,14_7_2.csv
2018-07-11T11:03:59.689807,-1.004,-0.207,0.016,1.707,5.549,0.488,14_7_2.csv
2018-07-11T11:03:59.748964,-1.004,-0.207,0.016,-9.451,8.354,-0.488,14_7_2.csv
2018-07-11T11:03:59.810128,-1.021,-0.221,0.024,-5.122,3.902,2.256,14_7_2.csv
2018-07-11T11:03:59.863770,-1.017,-0.217,0.014,-5.183,1.524,1.707,14_7_2.csv
2018-07-11T11:03:59.914406,-1.002,-0.207,0.022,-3.11,2.256,0.549,14_7_2.csv
2018-07-11T11:04:00.003643,-1.01,-0.288,0.042,-16.585,8.902,10.671,14_7_2.csv
2018-07-11T11:04:00.063803,-1.01,-0.288,0.042,3.171,5.366,10.0,14_7_2.csv
2018-07-11T11:04:00.113436,-1.023,-0.223,-0.029,21.159,-5.732,-9.085,14_7_2.csv
2018-07-11T11:04:00.159559,-0.985,-0.115,0.011,-5.061,-3.11,-15.671,14_7_2.csv
2018-07-11T11:04:00.203175,-0.985,-0.115,0.011,-14.939,5.366,-10.549,14_7_2.csv
2018-07-11T11:04:00.263335,-1.021,-0.21,-0.001,-37.195,5.732,2.561,14_7_2.csv
2018-07-11T11:04:00.309960,-1.021,-0.21,-0.001,-47.378,0.549,7.5,14_7_2.csv
2018-07-11T11:04:00.359091,-1.03,-0.308,-0.054,-10.061,-4.634,0.915,14_7_2.csv
2018-07-11T11:04:00.411229,-0.987,-0.222,0.025,-3.415,-2.134,2.073,14_7_2.csv
2018-07-11T11:04:00.499966,-1.003,-0.246,0.019,3.354,5.427,12.5,14_7_2.csv
2018-07-11T11:04:00.567646,-1.024,-0.216,-0.03,16.585,3.902,8.049,14_7_2.csv
2018-07-11T11:04:00.622794,-1.024,-0.216,-0.03,14.207,-0.549,5.183,14_7_2.csv
2018-07-11T11:04:00.670922,-1.014,-0.171,-0.011,13.171,-5.305,5.793,14_7_2.csv
2018-07-11T11:04:00.718047,-1.02,-0.122,0.033,19.268,0.244,4.573,14_7_2.csv
2018-07-11T11:04:00.763669,-1.02,-0.122,0.033,19.024,-1.707,3.11,14_7_2.csv
2018-07-11T11:04:00.878477,-1.012,-0.183,-0.058,7.805,-4.207,-2.195,14_7_2.csv
2018-07-11T11:04:00.954681,-1.012,-0.183,-0.058,7.561,-4.39,-8.902,14_7_2.csv
2018-07-11T11:04:00.997800,-1.024,-0.117,0.012,-18.598,-0.854,-16.707,14_7_2.csv
2018-07-11T11:04:01.045929,-1.012,-0.208,0.039,-32.988,-1.098,-13.232,14_7_2.csv
2018-07-11T11:04:01.092556,-1.012,-0.208,0.039,-24.817,-0.549,-8.232,14_7_2.csv
2018-07-11T11:04:01.139180,-1.005,-0.261,0.007,-14.939,0.854,-5.61,14_7_2.csv
2018-07-11T11:04:01.191821,-1.005,-0.261,0.007,-16.585,-0.61,-7.561,14_7_2.csv
2018-07-11T11:04:01.247970,-1.011,-0.249,0.035,-19.756,-2.195,-10.427,14_7_2.csv
2018-07-11T11:04:01.294594,-1.005,-0.258,0.004,-10.61,-4.39,-10.061,14_7_2.csv
2018-07-11T11:04:01.343224,-1.005,-0.258,0.004,-8.72,-6.707,-9.451,14_7_2.csv
2018-07-11T11:04:01.388344,-1.0,-0.234,-0.001,-15.366,-5.244,-9.939,14_7_2.csv
2018-07-11T11:04:01.434968,-1.0,-0.234,-0.001,-25.549,-2.561,-11.159,14_7_2.csv
2018-07-11T11:04:01.492622,-1.0,-0.258,0.017,-28.78,1.768,0.427,14_7_2.csv
2018-07-11T11:04:01.545764,-0.999,-0.29,-0.005,-13.963,3.659,2.683,14_7_2.csv
2018-07-11T11:04:01.597401,-0.999,-0.29,-0.005,-2.317,1.646,1.341,14_7_2.csv
2018-07-11T11:04:01.672101,-0.997,-0.258,-0.006,-9.085,0.061,-3.293,14_7_2.csv
2018-07-11T11:04:01.717722,-0.995,-0.27,0.001,-13.72,-2.134,-3.78,14_7_2.csv
2018-07-11T11:04:01.767354,-0.995,-0.288,0.001,-20.0,-5.366,-7.012,14_7_2.csv
2018-07-11T11:04:01.820496,-0.995,-0.288,0.001,-22.988,-5.427,-8.659,14_7_2.csv
2018-07-11T11:04:01.877649,-1.0,-0.277,-0.011,-30.427,-7.073,-9.939,14_7_2.csv
2018-07-11T11:04:01.926278,-0.991,-0.322,-0.009,-34.329,-2.988,-2.439,14_7_2.csv
2018-07-11T11:04:01.974406,-0.991,-0.322,-0.009,-18.232,-1.402,5.244,14_7_2.csv
2018-07-11T11:04:02.032561,-0.99,-0.345,-0.019,1.524,-3.354,7.866,14_7_2.csv
2018-07-11T11:04:02.079687,-0.99,-0.345,-0.019,14.024,-5.732,5.427,14_7_2.csv
2018-07-11T11:04:02.137340,-1.001,-0.289,-0.005,27.805,-9.268,-2.256,14_7_2.csv
2018-07-11T11:04:02.242621,-0.985,-0.24,0.019,-12.622,-14.024,-10.061,14_7_2.csv
2018-07-11T11:04:02.304787,-0.985,-0.24,0.019,-25.976,-8.171,-4.817,14_7_2.csv
2018-07-11T11:04:02.360936,-0.991,-0.278,0.028,-30.854,-8.537,0.549,14_7_2.csv
2018-07-11T11:04:02.408062,-1.001,-0.285,0.033,-43.476,-17.622,-6.159,14_7_2.csv
2018-07-11T11:04:02.476244,-1.001,-0.285,0.033,-50.366,-19.329,-8.72,14_7_2.csv
2018-07-11T11:04:02.605087,-0.984,-0.304,0.028,-65.061,-17.073,-4.451,14_7_2.csv
2018-07-11T11:04:02.669759,-0.986,-0.322,0.018,-71.524,-17.134,-3.11,14_7_2.csv
2018-07-11T11:04:02.766518,-0.979,-0.352,0.022,-90.183,-18.293,-4.756,14_7_2.csv
2018-07-11T11:04:02.812640,-0.963,-0.393,0.024,-85.366,-21.463,-6.585,14_7_2.csv
2018-07-11T11:04:02.865281,-0.963,-0.393,0.024,-76.89,-21.951,-6.098,14_7_2.csv
2018-07-11T11:04:02.925441,-0.953,-0.426,0.031,-36.402,-13.293,0.122,14_7_2.csv
2018-07-11T11:04:02.989111,-0.962,-0.41,0.03,-16.22,-11.037,1.951,14_7_2.csv
2018-07-11T11:04:03.048268,-0.971,-0.344,0.039,5.915,-6.829,-0.671,14_7_2.csv
2018-07-11T11:04:03.094892,-0.971,-0.344,0.039,4.451,-4.695,-0.61,14_7_2.csv
2018-07-11T11:04:03.170093,-0.972,-0.33,0.062,-9.817,-2.866,2.683,14_7_2.csv
2018-07-11T11:04:03.219726,-1.0,-0.354,0.124,-9.39,-0.793,1.098,14_7_2.csv
2018-07-11T11:04:03.268856,-1.0,-0.354,0.124,-11.28,2.805,-4.268,14_7_2.csv
2018-07-11T11:04:03.338044,-1.074,-0.293,0.25,-53.598,4.512,-33.72,14_7_2.csv
2018-07-11T11:04:03.389181,-1.163,-0.541,-0.003,-201.585,-21.28,-63.537,14_7_2.csv
2018-07-11T11:04:03.437313,-1.163,-0.541,-0.003,-287.5,-60.976,-120.305,14_7_2.csv
2018-07-11T11:04:03.488451,-1.045,-1.19,-0.367,-147.5,-58.537,-227.805,14_7_2.csv
2018-07-11T11:04:03.534073,-0.793,-1.348,-0.514,-44.756,27.622,-234.695,14_7_2.csv
2018-07-11T11:04:03.642864,-0.512,-1.422,-0.747,20.0,155.122,-307.744,14_7_2.csv
2018-07-11T11:04:03.699017,-0.142,-0.947,-0.337,32.378,258.598,-374.451,14_7_2.csv
2018-07-11T11:04:03.751657,-0.142,-0.947,-0.337,38.171,292.378,-368.781,14_7_2.csv
2018-07-11T11:04:03.793271,0.069,-0.198,0.155,3.72,278.11,-331.22,14_7_2.csv
2018-07-11T11:04:03.844407,0.069,-0.198,0.155,-43.354,231.342,-263.781,14_7_2.csv
2018-07-11T11:04:03.892541,0.259,-0.192,0.316,-39.024,129.878,-117.317,14_7_2.csv
2018-07-11T11:04:03.935655,0.411,-0.313,0.411,-25.915,85.0,-78.11,14_7_2.csv
2018-07-11T11:04:03.997826,0.411,-0.313,0.411,-15.183,43.537,-60.244,14_7_2.csv
2018-07-11T11:04:04.052475,0.673,-0.249,0.519,6.22,-6.524,-15.732,14_7_2.csv
2018-07-11T11:04:04.109128,0.903,-0.14,0.525,23.72,-8.902,-8.841,14_7_2.csv
2018-07-11T11:04:04.154251,0.903,-0.14,0.525,6.037,2.317,-4.024,14_7_2.csv
2018-07-11T11:04:04.200376,0.887,-0.117,0.479,-12.012,7.927,0.427,14_7_2.csv
2018-07-11T11:04:04.248007,0.887,-0.117,0.479,-18.11,10.549,4.634,14_7_2.csv
2018-07-11T11:04:04.310254,0.834,-0.079,0.511,-70.427,7.073,14.573,14_7_2.csv
2018-07-11T11:04:04.376934,0.866,-0.189,0.511,-122.744,6.89,9.878,14_7_2.csv
2018-07-11T11:04:04.419547,0.911,-0.308,0.436,-141.585,13.78,5.915,14_7_2.csv
2018-07-11T11:04:04.472188,0.911,-0.308,0.436,-160.305,23.963,-4.146,14_7_2.csv
2018-07-11T11:04:04.512295,0.854,-0.403,0.324,-192.195,25.366,-10.732,14_7_2.csv
2018-07-11T11:04:04.567943,0.854,-0.403,0.324,-187.988,23.659,-13.354,14_7_2.csv
2018-07-11T11:04:04.635623,0.817,-0.46,0.221,-135.061,28.232,-19.756,14_7_2.csv
2018-07-11T11:04:04.702301,0.813,-0.431,0.177,-144.878,32.195,-11.28,14_7_2.csv
2018-07-11T11:04:04.749928,0.811,-0.535,0.122,-139.512,36.768,-13.293,14_7_2.csv
2018-07-11T11:04:04.804072,0.811,-0.535,0.122,-130.671,37.134,-19.573,14_7_2.csv
2018-07-11T11:04:04.860723,0.794,-0.493,0.132,-117.683,37.805,-21.951,14_7_2.csv
2018-07-11T11:04:04.972023,0.73,-0.565,0.125,-79.878,-6.463,-34.512,14_7_2.csv
2018-07-11T11:04:05.027169,0.858,-0.559,-0.034,174.39,-14.451,10.732,14_7_2.csv
2018-07-11T11:04:05.091345,0.979,-0.381,0.066,159.024,6.341,19.512,14_7_2.csv
2018-07-11T11:04:05.136465,0.851,-0.409,0.335,163.232,62.134,1.402,14_7_2.csv
2018-07-11T11:04:05.185600,0.851,-0.409,0.335,61.951,81.463,-15.488,14_7_2.csv
2018-07-11T11:04:05.232727,0.772,-0.407,0.55,50.366,75.122,-24.146,14_7_2.csv
2018-07-11T11:04:05.280857,0.772,-0.407,0.55,22.378,56.951,-25.122,14_7_2.csv
2018-07-11T11:04:05.338009,0.785,-0.345,0.604,31.768,34.207,-26.28,14_7_2.csv
2018-07-11T11:04:05.392654,0.779,-0.317,0.625,33.476,34.512,-22.5,14_7_2.csv
2018-07-11T11:04:05.435268,0.779,-0.317,0.625,71.707,30.732,-24.695,14_7_2.csv
2018-07-11T11:04:05.482394,0.759,-0.17,0.707,93.78,25.671,-24.39,14_7_2.csv
2018-07-11T11:04:05.533029,0.759,-0.17,0.707,57.256,20.732,-23.72,14_7_2.csv
2018-07-11T11:04:05.600709,0.74,-0.11,0.718,74.512,11.463,-26.707,14_7_2.csv
2018-07-11T11:04:05.683432,0.711,-0.025,0.714,115.244,19.024,-3.841,14_7_2.csv
2018-07-11T11:04:05.736576,0.704,0.094,0.735,154.085,26.22,3.537,14_7_2.csv
2018-07-11T11:04:05.794733,0.715,0.309,0.757,176.463,18.72,12.439,14_7_2.csv
2018-07-11T11:04:05.842868,0.715,0.309,0.757,131.707,7.744,14.146,14_7_2.csv
2018-07-11T11:04:05.890994,0.718,0.344,0.711,88.171,2.256,10.61,14_7_2.csv
2018-07-11T11:04:05.936116,0.718,0.344,0.711,55.305,2.683,9.878,14_7_2.csv
2018-07-11T11:04:06.001941,0.671,0.339,0.62,59.207,2.073,13.963,14_7_2.csv
2018-07-11T11:04:06.062606,0.678,0.366,0.582,61.402,9.146,22.195,14_7_2.csv
2018-07-11T11:04:06.122264,0.719,0.358,0.6,50.915,2.683,17.927,14_7_2.csv
2018-07-11T11:04:06.169891,0.719,0.358,0.6,42.805,-1.524,12.317,14_7_2.csv
2018-07-11T11:04:06.217518,0.733,0.434,0.556,43.659,-7.378,9.878,14_7_2.csv
2018-07-11T11:04:06.270159,0.744,0.478,0.512,54.39,-9.146,11.707,14_7_2.csv
2018-07-11T11:04:06.409530,0.715,0.463,0.446,37.683,-3.232,5.915,14_7_2.csv
2018-07-11T11:04:06.450138,0.694,0.461,-0.036,212.073,45.427,-0.549,14_7_2.csv
2018-07-11T11:04:06.497765,0.694,0.461,-0.036,27.927,120.976,-48.354,14_7_2.csv
2018-07-11T11:04:06.545392,0.297,0.649,0.427,-26.037,143.293,18.476,14_7_2.csv
2018-07-11T11:04:06.597030,0.034,0.621,0.593,-62.744,150.305,53.598,14_7_2.csv
2018-07-11T11:04:06.640145,0.034,0.621,0.593,-115.0,177.073,99.634,14_7_2.csv
2018-07-11T11:04:06.694289,-0.075,0.271,0.685,-89.268,199.634,142.561,14_7_2.csv
2018-07-11T11:04:06.764978,-0.338,-0.237,0.754,-124.512,254.695,209.634,14_7_2.csv
2018-07-11T11:04:06.810098,-0.338,-0.237,0.754,-128.537,257.622,221.098,14_7_2.csv
2018-07-11T11:04:06.857725,-0.712,-0.49,0.686,-141.22,256.402,213.232,14_7_2.csv
2018-07-11T11:04:06.919890,-1.125,-0.358,0.277,-202.012,242.378,162.744,14_7_2.csv
2018-07-11T11:04:06.971029,-1.125,-0.358,0.277,-320.122,226.22,143.11,14_7_2.csv
2018-07-11T11:04:07.023168,-1.9,-0.687,-0.314,-491.22,182.5,163.476,14_7_2.csv
2018-07-11T11:04:07.079324,-1.702,-1.451,-0.341,-413.72,37.012,259.329,14_7_2.csv
2018-07-11T11:04:07.122438,-1.702,-1.451,-0.341,21.22,13.598,187.256,14_7_2.csv
2018-07-11T11:04:07.171252,-1.268,-0.094,0.498,129.451,106.22,14.878,14_7_2.csv
2018-07-11T11:04:07.220383,-1.268,-0.094,0.498,-143.781,152.988,-110.305,14_7_2.csv
2018-07-11T11:04:07.267512,-1.008,-0.804,0.432,-114.695,-85.549,-51.829,14_7_2.csv
2018-07-11T11:04:07.329179,-0.796,-0.657,-0.263,204.756,4.573,-5.488,14_7_2.csv
2018-07-11T11:04:07.386835,-0.796,-0.657,-0.263,167.195,9.512,9.451,14_7_2.csv
2018-07-11T11:04:07.435466,-1.011,-0.372,-0.126,135.732,0.61,11.159,14_7_2.csv
2018-07-11T11:04:07.484098,-1.043,-0.33,-0.071,146.707,-9.024,-13.537,14_7_2.csv
2018-07-11T11:04:07.530726,-1.043,-0.33,-0.071,118.902,-18.963,-40.122,14_7_2.csv
2018-07-11T11:04:07.579358,-0.994,-0.238,-0.01,39.146,-19.756,-62.134,14_7_2.csv
2018-07-11T11:04:07.631999,-0.981,-0.364,-0.026,-60.488,-10.427,-77.195,14_7_2.csv
2018-07-11T11:04:07.735780,-0.942,-0.308,0.059,33.293,15.427,-52.073,14_7_2.csv
2018-07-11T11:04:07.801956,-0.935,-0.271,0.135,40.854,46.28,-12.988,14_7_2.csv
2018-07-11T11:04:07.842565,-0.935,-0.271,0.135,44.207,55.061,7.988,14_7_2.csv
2018-07-11T11:04:07.892197,-0.988,-0.292,0.135,28.415,56.585,34.634,14_7_2.csv
2018-07-11T11:04:07.938822,-0.988,-0.292,0.135,-10.976,41.707,47.561,14_7_2.csv
2018-07-11T11:04:08.001491,-1.024,-0.381,0.007,-82.134,-42.744,12.256,14_7_2.csv
2018-07-11T11:04:08.065665,-0.957,-0.424,-0.014,-17.073,-61.951,22.744,14_7_2.csv
2018-07-11T11:04:08.111790,-0.972,-0.361,0.017,-22.012,-21.341,34.451,14_7_2.csv
2018-07-11T11:04:08.160422,-0.972,-0.361,0.017,-20.854,-0.915,27.805,14_7_2.csv
2018-07-11T11:04:08.206565,-1.015,-0.413,0.012,-12.744,-0.366,17.744,14_7_2.csv
2018-07-11T11:04:08.248678,-1.015,-0.413,0.012,-2.256,-5.305,11.402,14_7_2.csv
2018-07-11T11:04:08.312353,-0.976,-0.394,0.046,-6.098,0.671,5.915,14_7_2.csv
2018-07-11T11:04:08.373518,-0.96,-0.367,0.073,4.756,-1.098,-1.524,14_7_2.csv
2018-07-11T11:04:08.419139,-0.96,-0.367,0.073,21.646,-5.244,1.098,14_7_2.csv
2018-07-11T11:04:08.467268,-0.99,-0.309,0.104,24.024,-4.024,1.646,14_7_2.csv
2018-07-11T11:04:08.512889,-0.99,-0.309,0.104,15.549,-0.366,-2.805,14_7_2.csv
2018-07-11T11:04:08.565530,-1.006,-0.309,0.091,12.439,2.805,-10.976,14_7_2.csv
2018-07-11T11:04:08.615162,-0.997,-0.302,0.063,9.207,3.72,-12.805,14_7_2.csv
2018-07-11T11:04:08.668805,-0.997,-0.302,0.063,3.049,2.683,-12.744,14_7_2.csv
2018-07-11T11:04:08.720944,-0.973,-0.302,0.047,-3.11,-2.927,-6.341,14_7_2.csv
2018-07-11T11:04:08.767067,-0.971,-0.3,0.055,-2.5,-3.415,-2.5,14_7_2.csv
2018-07-11T11:04:08.817702,-0.971,-0.3,0.055,-3.72,-3.293,1.341,14_7_2.csv
2018-07-11T11:04:08.877862,-1.02,-0.308,0.045,-30.0,-5.915,2.927,14_7_2.csv
2018-07-11T11:04:08.930502,-1.138,-0.31,-0.047,-67.622,-23.049,7.622,14_7_2.csv
2018-07-11T11:04:09.059346,-0.967,-0.495,0.169,-47.622,-20.671,39.573,14_7_2.csv
2018-07-11T11:04:09.108477,-0.828,-0.298,0.185,42.744,-8.476,17.744,14_7_2.csv
2018-07-11T11:04:09.155602,-0.828,-0.298,0.185,71.463,14.207,-6.159,14_7_2.csv
2018-07-11T11:04:09.209245,-0.967,-0.123,0.053,18.415,7.683,-29.756,14_7_2.csv
2018-07-11T11:04:09.264392,-1.028,-0.217,0.072,-9.329,-1.89,-10.549,14_7_2.csv
2018-07-11T11:04:09.318541,-0.973,-0.304,0.083,-63.415,-13.659,-3.293,14_7_2.csv
2018-07-11T11:04:09.388226,-0.973,-0.304,0.083,-58.598,-9.329,-6.098,14_7_2.csv
2018-07-11T11:04:09.436355,-1.008,-0.366,0.046,-54.695,-2.561,-6.646,14_7_2.csv
2018-07-11T11:04:09.486488,-0.996,-0.369,0.022,-24.329,-2.561,-2.256,14_7_2.csv
2018-07-11T11:04:09.541134,-0.996,-0.369,0.022,-5.915,-4.756,-2.073,14_7_2.csv
2018-07-11T11:04:09.598788,-0.967,-0.303,0.076,1.402,-4.939,-0.793,14_7_2.csv
2018-07-11T11:04:09.649924,-0.983,-0.307,0.051,-6.585,-2.866,0.671,14_7_2.csv
2018-07-11T11:04:09.704570,-0.983,-0.307,0.051,-10.61,-3.598,-2.439,14_7_2.csv
2018-07-11T11:04:09.750692,-0.992,-0.301,0.051,-10.244,-2.988,-3.171,14_7_2.csv
2018-07-11T11:04:09.800826,-0.982,-0.348,0.071,-20.793,-4.268,2.5,14_7_2.csv
2018-07-11T11:04:09.847450,-0.982,-0.348,0.071,-11.646,-3.049,2.378,14_7_2.csv
2018-07-11T11:04:09.898085,-0.976,-0.324,0.035,-0.366,-2.683,-0.488,14_7_2.csv
2018-07-11T11:04:09.963259,-0.992,-0.292,0.065,-2.256,-2.683,-2.073,14_7_2.csv
2018-07-11T11:04:10.013894,-0.992,-0.292,0.065,-9.878,-3.963,0.061,14_7_2.csv
2018-07-11T11:04:10.063025,-0.987,-0.334,0.067,-17.134,-4.634,1.646,14_7_2.csv
2018-07-11T11:04:10.107644,-0.987,-0.334,0.067,-15.061,-5.244,0.61,14_7_2.csv
2018-07-11T11:04:10.155270,-0.981,-0.323,0.062,-7.927,-3.476,-1.524,14_7_2.csv
2018-07-11T11:04:10.206407,-0.985,-0.305,0.072,-11.28,-3.354,-1.341,14_7_2.csv
2018-07-11T11:04:10.277096,-0.985,-0.305,0.072,-12.134,-3.293,0.122,14_7_2.csv
2018-07-11T11:04:10.329234,-0.979,-0.333,0.072,-14.329,-3.354,-0.732,14_7_2.csv
2018-07-11T11:04:10.425491,-0.976,-0.35,0.068,-12.073,-2.5,-3.293,14_7_2.csv
2018-07-11T11:04:10.493673,-0.98,-0.339,0.087,-5.671,-0.122,0.427,14_7_2.csv
2018-07-11T11:04:10.544809,-0.973,-0.349,0.068,-3.354,2.561,0.366,14_7_2.csv
2018-07-11T11:04:10.599455,-0.973,-0.349,0.068,3.354,4.573,-1.524,14_7_2.csv
2018-07-11T11:04:10.685684,-0.993,-0.311,0.043,-2.378,5.305,-5.671,14_7_2.csv
2018-07-11T11:04:10.735818,-0.993,-0.311,0.043,-11.159,2.683,-1.22,14_7_2.csv
2018-07-11T11:04:10.792469,-0.969,-0.399,0.028,-15.244,0.915,1.524,14_7_2.csv
2018-07-11T11:04:10.842603,-0.969,-0.399,0.028,-6.037,1.89,1.402,14_7_2.csv
2018-07-11T11:04:10.893238,-0.967,-0.37,0.037,19.695,5.61,-2.5,14_7_2.csv
2018-07-11T11:04:10.935350,-0.903,-0.336,0.084,21.402,6.159,-3.171,14_7_2.csv
2018-07-11T11:04:10.982476,-0.903,-0.336,0.084,26.951,8.537,-5.61,14_7_2.csv
2018-07-11T11:04:11.034113,-0.798,-0.385,0.106,53.354,14.024,-11.159,14_7_2.csv
2018-07-11T11:04:11.075223,-0.798,-0.385,0.106,79.878,18.11,-16.159,14_7_2.csv
2018-07-11T11:04:11.137889,-1.143,-0.326,-0.02,44.39,15.122,-0.976,14_7_2.csv
2018-07-11T11:04:11.196044,-1.155,-0.375,-0.034,-7.012,0.61,10.305,14_7_2.csv
2018-07-11T11:04:11.253197,-0.845,-0.461,0.12,1.402,6.037,7.622,14_7_2.csv
2018-07-11T11:04:11.298819,-0.845,-0.461,0.12,62.256,19.085,0.0,14_7_2.csv
2018-07-11T11:04:11.347950,-0.969,-0.336,0.072,73.659,17.439,0.061,14_7_2.csv
2018-07-11T11:04:11.400590,-0.969,-0.336,0.072,36.402,7.073,0.793,14_7_2.csv
2018-07-11T11:04:11.469774,-0.995,-0.348,-0.002,-8.476,-3.72,4.451,14_7_2.csv
2018-07-11T11:04:11.527929,-0.969,-0.355,0.037,19.146,3.171,1.646,14_7_2.csv
2018-07-11T11:04:11.627194,-0.974,-0.314,0.067,-8.415,0.488,-3.537,14_7_2.csv
2018-07-11T11:04:11.670309,-0.979,-0.363,0.084,-8.11,-1.037,0.061,14_7_2.csv
2018-07-11T11:04:11.718437,-0.979,-0.363,0.084,-2.256,-1.585,2.073,14_7_2.csv
2018-07-11T11:04:11.833744,-0.97,-0.353,0.055,7.378,1.28,0.305,14_7_2.csv
2018-07-11T11:04:11.878363,-0.97,-0.353,0.055,6.524,0.976,0.732,14_7_2.csv
2018-07-11T11:04:11.945542,-0.976,-0.336,0.046,1.524,0.122,1.585,14_7_2.csv
2018-07-11T11:04:12.001692,-0.973,-0.34,0.082,-1.159,-0.305,1.098,14_7_2.csv
2018-07-11T11:04:12.065863,-0.974,-0.367,0.07,-11.402,-0.122,1.89,14_7_2.csv
2018-07-11T11:04:12.112487,-0.974,-0.367,0.07,-6.829,-0.732,0.488,14_7_2.csv
2018-07-11T11:04:12.163623,-0.972,-0.359,0.055,-2.073,-1.037,0.244,14_7_2.csv
2018-07-11T11:04:12.226291,-0.969,-0.338,0.051,-2.988,-1.585,-0.183,14_7_2.csv
2018-07-11T11:04:12.294472,-0.974,-0.342,0.064,-10.122,-3.598,-0.793,14_7_2.csv
2018-07-11T11:04:12.344605,-0.974,-0.342,0.064,-13.415,-5.549,-1.402,14_7_2.csv
2018-07-11T11:04:12.399251,-0.973,-0.36,0.081,-15.061,-6.646,-1.89,14_7_2.csv
2018-07-11T11:04:12.452894,-0.965,-0.372,0.079,-13.963,-6.28,-0.427,14_7_2.csv
2018-07-11T11:04:12.503530,-0.965,-0.372,0.079,-13.476,-4.512,-0.244,14_7_2.csv
2018-07-11T11:04:12.550153,-0.958,-0.388,0.067,-11.89,-2.927,-0.366,14_7_2.csv
2018-07-11T11:04:12.605301,-0.958,-0.388,0.067,-8.354,-1.707,-0.122,14_7_2.csv
2018-07-11T11:04:12.668970,-0.964,-0.391,0.085,5.976,1.707,1.646,14_7_2.csv
2018-07-11T11:04:12.724117,-0.979,-0.355,0.105,14.268,3.293,1.951,14_7_2.csv
2018-07-11T11:04:12.766230,-0.979,-0.355,0.105,14.695,4.085,2.378,14_7_2.csv
2018-07-11T11:04:12.812352,-0.982,-0.337,0.079,11.89,3.841,2.805,14_7_2.csv
2018-07-11T11:04:12.875019,-0.979,-0.335,0.076,5.61,1.707,1.524,14_7_2.csv
2018-07-11T11:04:12.936319,-0.981,-0.331,0.092,2.805,0.488,1.646,14_7_2.csv
2018-07-11T11:04:13.001994,-0.981,-0.331,0.092,0.915,-0.305,1.402,14_7_2.csv
2018-07-11T11:04:13.052629,-0.981,-0.333,0.083,-1.159,-0.305,1.402,14_7_2.csv
2018-07-11T11:04:13.153901,-0.979,-0.346,0.077,-2.683,-0.244,1.159,14_7_2.csv
2018-07-11T11:04:13.203032,-0.981,-0.338,0.097,-1.89,-0.793,1.646,14_7_2.csv
2018-07-11T11:04:13.250160,-0.981,-0.338,0.097,-2.866,-1.22,1.829,14_7_2.csv
2018-07-11T11:04:13.308317,-0.979,-0.339,0.089,-5.427,-2.012,1.098,14_7_2.csv
2018-07-11T11:04:13.362465,-0.98,-0.344,0.082,-5.915,-3.415,0.366,14_7_2.csv
2018-07-11T11:04:13.405580,-0.98,-0.344,0.082,-2.5,-3.659,0.488,14_7_2.csv
2018-07-11T11:04:13.452207,-0.988,-0.326,0.083,-1.951,-1.707,1.159,14_7_2.csv
2018-07-11T11:04:13.504346,-1.005,-0.324,0.087,-7.073,-4.817,0.732,14_7_2.csv
2018-07-11T11:04:13.562001,-1.005,-0.324,0.087,-15.549,-6.646,2.073,14_7_2.csv
2018-07-11T11:04:13.624169,-1.029,-0.355,0.121,-13.293,-12.5,0.549,14_7_2.csv
2018-07-11T11:04:13.717422,-1.002,-0.318,0.167,-16.646,-19.817,-3.293,14_7_2.csv
2018-07-11T11:04:13.762542,-0.975,-0.303,0.154,-13.598,-17.561,0.549,14_7_2.csv
2018-07-11T11:04:13.810169,-0.975,-0.303,0.154,-11.28,-14.817,6.829,14_7_2.csv
2018-07-11T11:04:13.861810,-0.945,-0.333,0.128,1.037,-8.415,13.841,14_7_2.csv
2018-07-11T11:04:13.902919,-0.91,-0.332,0.129,-0.732,-5.122,10.671,14_7_2.csv
2018-07-11T11:04:13.960077,-0.91,-0.332,0.129,-6.829,-5.61,5.61,14_7_2.csv
2018-07-11T11:04:14.017733,-0.948,-0.359,0.145,-15.122,-7.073,0.793,14_7_2.csv
2018-07-11T11:04:14.064359,-1.001,-0.354,0.189,-7.134,-1.037,-3.598,14_7_2.csv
2018-07-11T11:04:14.115502,-1.001,-0.354,0.189,14.268,1.829,-7.134,14_7_2.csv
2018-07-11T11:04:14.168643,-0.987,-0.251,0.168,15.915,2.805,-9.329,14_7_2.csv
2018-07-11T11:04:14.227806,-0.978,-0.235,0.125,-11.829,-3.841,-10.183,14_7_2.csv
2018-07-11T11:04:14.293982,-0.978,-0.235,0.125,-30.61,-8.293,-8.354,14_7_2.csv
2018-07-11T11:04:14.343119,-0.998,-0.297,0.159,-73.232,-14.695,-6.585,14_7_2.csv
2018-07-11T11:04:14.395257,-0.995,-0.415,0.184,-79.756,-14.573,-6.402,14_7_2.csv
2018-07-11T11:04:14.513074,-0.957,-0.388,0.164,-40.366,-16.768,-1.646,14_7_2.csv
2018-07-11T11:04:14.561203,-0.957,-0.369,0.136,-37.988,-15.488,1.28,14_7_2.csv
2018-07-11T11:04:14.608328,-0.957,-0.369,0.136,-34.695,-13.049,5.183,14_7_2.csv
2018-07-11T11:04:14.661470,-0.95,-0.391,0.15,-33.537,-10.0,7.683,14_7_2.csv
2018-07-11T11:04:14.718121,-0.943,-0.389,0.139,-27.561,-8.354,8.11,14_7_2.csv
2018-07-11T11:04:14.768254,-0.943,-0.389,0.139,-29.268,-9.573,6.037,14_7_2.csv
2018-07-11T11:04:14.832260,-0.952,-0.386,0.133,-36.159,-9.512,0.183,14_7_2.csv
2018-07-11T11:04:14.877381,-0.983,-0.401,0.182,-36.098,-9.39,-0.488,14_7_2.csv
2018-07-11T11:04:14.923508,-0.983,-0.401,0.182,-30.793,-8.537,0.244,14_7_2.csv
2018-07-11T11:04:14.977652,-0.992,-0.354,0.182,-21.341,-5.549,-0.427,14_7_2.csv
2018-07-11T11:04:15.029793,-0.95,-0.35,0.138,-44.817,-7.805,-1.585,14_7_2.csv
2018-07-11T11:04:15.078924,-0.95,-0.35,0.138,-42.744,-12.561,1.402,14_7_2.csv
2018-07-11T11:04:15.125047,-0.918,-0.379,0.1,-41.829,-13.476,4.573,14_7_2.csv
2018-07-11T11:04:15.174680,-0.918,-0.379,0.1,-40.305,-13.293,6.402,14_7_2.csv
2018-07-11T11:04:15.218296,-0.938,-0.393,0.003,-23.72,-16.585,10.305,14_7_2.csv
2018-07-11T11:04:15.291994,-0.913,-0.382,-0.006,5.854,-11.89,24.146,14_7_2.csv
2018-07-11T11:04:15.357667,-0.87,-0.39,0.042,15.0,27.561,24.085,14_7_2.csv
2018-07-11T11:04:15.405294,-0.87,-0.39,0.042,27.195,35.61,13.598,14_7_2.csv
2018-07-11T11:04:15.452921,-1.046,-0.317,0.164,11.159,33.659,-3.841,14_7_2.csv
2018-07-11T11:04:15.503556,-1.046,-0.317,0.164,-31.646,36.037,-20.976,14_7_2.csv
2018-07-11T11:04:15.565721,-1.185,-0.373,0.114,23.415,6.28,3.293,14_7_2.csv
2018-07-11T11:04:15.626885,-0.861,-0.28,0.07,36.402,-8.72,2.622,14_7_2.csv
2018-07-11T11:04:15.685039,-0.909,-0.391,-0.015,-12.744,-1.768,-3.537,14_7_2.csv
2018-07-11T11:04:15.754224,-0.979,-0.403,-0.018,54.695,17.195,27.5,14_7_2.csv
2018-07-11T11:04:15.798843,-0.979,-0.403,-0.018,54.512,27.744,17.439,14_7_2.csv
2018-07-11T11:04:15.874548,-1.056,-0.364,-0.022,51.585,27.927,-5.61,14_7_2.csv
2018-07-11T11:04:15.919670,-1.048,-0.152,0.137,53.11,29.207,-0.244,14_7_2.csv
2018-07-11T11:04:15.980835,-1.048,-0.152,0.137,-21.768,28.11,-17.744,14_7_2.csv
2018-07-11T11:04:16.031473,-0.976,0.134,-0.292,-784.512,-116.463,-197.866,14_7_2.csv
2018-07-11T11:04:16.080104,-0.723,-0.852,-0.76,-723.903,-136.098,-252.073,14_7_2.csv
2018-07-11T11:04:16.127230,-0.723,-0.852,-0.76,-463.476,-104.329,-221.646,14_7_2.csv
2018-07-11T11:04:16.173358,-0.824,-0.66,-0.326,-272.805,-67.012,-144.207,14_7_2.csv
2018-07-11T11:04:16.221486,-0.824,-0.66,-0.326,-222.683,-43.963,-93.232,14_7_2.csv
2018-07-11T11:04:16.273630,-0.902,-0.344,-0.388,-104.512,-48.232,-94.329,14_7_2.csv
2018-07-11T11:04:16.341812,-0.908,-0.252,-0.292,-51.341,-23.598,-66.585,14_7_2.csv
2018-07-11T11:04:16.387937,-0.908,-0.252,-0.292,-40.122,16.098,-34.695,14_7_2.csv
2018-07-11T11:04:16.436567,-0.88,-0.26,-0.249,-15.305,27.683,-4.024,14_7_2.csv
2018-07-11T11:04:16.481187,-0.851,-0.337,-0.297,1.463,11.951,4.756,14_7_2.csv
2018-07-11T11:04:16.529316,-0.851,-0.337,-0.297,10.915,-21.402,8.415,14_7_2.csv
2018-07-11T11:04:16.583465,-0.834,-0.433,-0.399,8.841,-45.793,7.988,14_7_2.csv
2018-07-11T11:04:16.641619,-0.75,-0.464,-0.404,2.744,-48.171,7.622,14_7_2.csv
2018-07-11T11:04:16.684736,-0.75,-0.464,-0.404,-4.207,-23.354,6.28,14_7_2.csv
2018-07-11T11:04:16.731362,-0.808,-0.479,-0.402,-18.171,13.171,4.695,14_7_2.csv
2018-07-11T11:04:16.784001,-0.808,-0.479,-0.402,-9.146,39.207,0.427,14_7_2.csv
2018-07-11T11:04:16.827617,-0.918,-0.404,-0.542,-18.78,21.159,-16.585,14_7_2.csv
2018-07-11T11:04:16.882262,-0.8,-0.377,-0.493,-35.305,-27.927,-33.598,14_7_2.csv
2018-07-11T11:04:16.935906,-0.8,-0.377,-0.493,-16.463,-18.841,-23.232,14_7_2.csv
2018-07-11T11:04:16.982031,-0.773,-0.369,-0.461,22.622,-0.61,-4.146,14_7_2.csv
2018-07-11T11:04:17.035172,-0.773,-0.369,-0.461,73.72,17.683,27.927,14_7_2.csv
2018-07-11T11:04:17.076287,-0.81,-0.457,-0.54,554.085,97.378,149.756,14_7_2.csv
2018-07-11T11:04:17.121408,-0.811,-0.231,-0.86,812.683,189.39,162.805,14_7_2.csv
2018-07-11T11:04:17.240731,-1.039,-0.035,-0.497,375.244,220.488,66.22,14_7_2.csv
2018-07-11T11:04:17.296887,-1.151,-0.112,-0.07,151.159,173.11,22.744,14_7_2.csv
2018-07-11T11:04:17.343009,-1.151,-0.112,-0.07,31.768,118.354,-0.793,14_7_2.csv
2018-07-11T11:04:17.395150,-1.36,-0.033,0.753,50.0,79.634,-27.805,14_7_2.csv
2018-07-11T11:04:17.435257,-1.36,-0.033,0.753,88.537,18.049,-30.305,14_7_2.csv
2018-07-11T11:04:17.488401,-0.991,-0.489,0.035,73.171,-61.341,82.683,14_7_2.csv
2018-07-11T11:04:17.556586,-0.976,-0.157,-0.085,152.195,-29.085,31.402,14_7_2.csv
2018-07-11T11:04:17.606721,-1.017,-0.325,-0.107,-90.549,-52.439,-14.939,14_7_2.csv
2018-07-11T11:04:17.652847,-1.017,-0.325,-0.107,-130.488,-50.305,18.659,14_7_2.csv
2018-07-11T11:04:17.701979,-0.93,-0.479,-0.136,-104.268,-36.22,32.561,14_7_2.csv
2018-07-11T11:04:17.746096,-0.93,-0.479,-0.136,-47.439,-25.671,12.683,14_7_2.csv
2018-07-11T11:04:17.793824,-0.901,-0.34,-0.108,12.317,-7.683,-16.341,14_7_2.csv
2018-07-11T11:04:17.849976,-0.982,-0.312,-0.055,11.951,30.793,-29.939,14_7_2.csv
2018-07-11T11:04:17.902118,-0.982,-0.312,-0.055,4.268,38.963,-19.573,14_7_2.csv
2018-07-11T11:04:17.950752,-0.995,-0.341,0.154,18.659,49.817,-4.451,14_7_2.csv
2018-07-11T11:04:18.012417,-1.085,-0.303,0.046,59.024,91.829,11.098,14_7_2.csv
2018-07-11T11:04:18.065563,-1.085,-0.303,0.046,55.488,50.0,23.293,14_7_2.csv
2018-07-11T11:04:18.112689,-1.0,-0.322,-0.1,40.427,-13.476,35.488,14_7_2.csv
2018-07-11T11:04:18.177867,-0.939,-0.388,0.035,54.024,-42.927,54.39,14_7_2.csv
2018-07-11T11:04:18.236021,-0.939,-0.388,0.035,56.768,-23.659,47.378,14_7_2.csv
2018-07-11T11:04:18.282149,-1.004,-0.266,-0.01,-39.329,-6.585,-24.939,14_7_2.csv
2018-07-11T11:04:18.331280,-0.913,-0.363,-0.034,-63.537,-3.659,-43.049,14_7_2.csv
2018-07-11T11:04:18.379413,-0.913,-0.363,-0.034,-39.756,-3.232,-36.037,14_7_2.csv
2018-07-11T11:04:18.436565,-0.966,-0.33,-0.092,1.402,-8.78,-24.268,14_7_2.csv
2018-07-11T11:04:18.491213,-1.012,-0.291,-0.024,-37.866,-15.0,-27.744,14_7_2.csv
2018-07-11T11:04:18.608025,-0.944,-0.312,0.076,43.598,40.732,-3.354,14_7_2.csv
2018-07-11T11:04:18.656654,-1.003,-0.269,0.005,55.122,31.585,7.378,14_7_2.csv
2018-07-11T11:04:18.701273,-1.003,-0.269,0.005,23.476,0.183,17.5,14_7_2.csv
2018-07-11T11:04:18.752410,-1.036,-0.272,-0.043,-31.768,-30.976,15.915,14_7_2.csv
2018-07-11T11:04:18.794521,-1.036,-0.272,-0.043,-80.488,-43.293,8.902,14_7_2.csv
2018-07-11T11:04:18.853679,-0.965,-0.415,-0.03,-57.866,-21.646,8.72,14_7_2.csv
2018-07-11T11:04:18.909829,-0.959,-0.396,-0.041,-6.402,-4.634,8.841,14_7_2.csv
2018-07-11T11:04:18.969990,-0.966,-0.332,-0.017,2.744,0.61,5.732,14_7_2.csv
2018-07-11T11:04:19.014608,-0.966,-0.332,-0.017,-11.646,1.341,3.232,14_7_2.csv
2018-07-11T11:04:19.059728,-0.978,-0.354,0.01,-14.817,2.805,0.549,14_7_2.csv
2018-07-11T11:04:19.106854,-0.978,-0.354,0.01,-9.939,2.561,-2.195,14_7_2.csv
2018-07-11T11:04:19.164006,-0.989,-0.338,0.017,-8.78,1.037,-4.939,14_7_2.csv
2018-07-11T11:04:19.217148,-0.982,-0.323,-0.006,-8.598,-6.098,-5.488,14_7_2.csv
2018-07-11T11:04:19.266780,-0.982,-0.323,-0.006,-9.878,-8.841,-3.11,14_7_2.csv
2018-07-11T11:04:19.316412,-0.972,-0.329,-0.024,-10.183,-8.11,-0.427,14_7_2.csv
2018-07-11T11:04:19.358024,-0.972,-0.329,-0.024,-7.561,-5.061,2.195,14_7_2.csv
2018-07-11T11:04:19.407655,-0.976,-0.337,-0.024,-9.451,-4.756,3.232,14_7_2.csv
2018-07-11T11:04:19.479848,-0.967,-0.338,-0.014,-12.744,-5.183,0.793,14_7_2.csv
2018-07-11T11:04:19.530483,-0.988,-0.332,-0.006,-13.537,-3.72,-3.78,14_7_2.csv
2018-07-11T11:04:19.575604,-0.988,-0.332,-0.006,-12.805,-3.902,-3.902,14_7_2.csv
2018-07-11T11:04:19.622729,-0.995,-0.327,0.006,-13.841,-4.695,-2.927,14_7_2.csv
2018-07-11T11:04:19.688405,-0.995,-0.327,0.006,-16.159,-5.549,-1.341,14_7_2.csv
2018-07-11T11:04:19.736532,-1.055,-0.43,0.111,-2.622,-0.732,-3.963,14_7_2.csv
2018-07-11T11:04:19.787668,-1.119,-0.518,0.161,-36.22,-7.744,-22.5,14_7_2.csv
2018-07-11T11:04:19.847829,-1.119,-0.518,0.161,-124.207,-22.256,-64.024,14_7_2.csv
2018-07-11T11:04:19.964618,-0.937,-1.037,-0.264,-119.207,-45.305,-192.378,14_7_2.csv
2018-07-11T11:04:20.016757,-0.843,-1.134,-0.353,-46.037,-32.378,-188.842,14_7_2.csv
2018-07-11T11:04:20.064890,-0.843,-1.134,-0.353,-1.585,15.732,-212.866,14_7_2.csv
2018-07-11T11:04:20.109007,-0.623,-1.17,-0.556,-8.293,67.805,-250.366,14_7_2.csv
2018-07-11T11:04:20.168167,-0.623,-1.17,-0.556,-71.829,125.549,-272.5,14_7_2.csv
2018-07-11T11:04:20.217800,-0.105,-1.03,-0.529,-76.098,265.122,-265.61,14_7_2.csv
2018-07-11T11:04:20.271943,0.214,-0.616,-0.145,-42.012,320.549,-250.0,14_7_2.csv
2018-07-11T11:04:20.325586,0.214,-0.616,-0.145,-62.805,338.049,-229.085,14_7_2.csv
2018-07-11T11:04:20.373213,0.24,-0.362,0.128,-178.415,247.683,-121.281,14_7_2.csv
2018-07-11T11:04:20.419837,0.163,-0.457,0.261,-125.732,172.256,-64.512,14_7_2.csv
2018-07-11T11:04:20.476990,0.163,-0.457,0.261,-91.098,100.366,-48.78,14_7_2.csv
2018-07-11T11:04:20.528126,0.505,-0.458,0.447,-34.451,41.463,-28.841,14_7_2.csv
2018-07-11T11:04:20.577257,0.947,-0.421,0.393,11.159,-1.768,-17.073,14_7_2.csv
2018-07-11T11:04:20.628895,0.947,-0.421,0.393,28.476,18.354,-12.622,14_7_2.csv
2018-07-11T11:04:20.673513,0.836,-0.353,0.333,63.841,21.524,-18.232,14_7_2.csv
2018-07-11T11:04:20.718132,0.836,-0.353,0.333,64.756,29.085,-14.573,14_7_2.csv
2018-07-11T11:04:20.776287,0.814,-0.359,0.374,43.537,39.817,-7.927,14_7_2.csv
2018-07-11T11:04:20.833440,0.874,-0.232,0.441,8.902,36.28,-10.793,14_7_2.csv
2018-07-11T11:04:20.876053,0.874,-0.232,0.441,-37.5,34.329,-13.78,14_7_2.csv
2018-07-11T11:04:20.935712,0.817,-0.353,0.452,-73.171,41.89,-7.683,14_7_2.csv
2018-07-11T11:04:20.981835,0.811,-0.446,0.46,-50.793,37.683,-14.268,14_7_2.csv
2018-07-11T11:04:21.033473,0.811,-0.446,0.46,-24.512,31.829,-17.988,14_7_2.csv
2018-07-11T11:04:21.086614,0.737,-0.345,0.46,-32.073,27.744,-15.671,14_7_2.csv
2018-07-11T11:04:21.143266,0.767,-0.284,0.601,-61.22,14.512,-14.024,14_7_2.csv
2018-07-11T11:04:21.203426,0.767,-0.284,0.601,-42.256,10.61,-27.439,14_7_2.csv
2018-07-11T11:04:21.253560,0.881,-0.452,0.625,-33.232,8.902,-33.415,14_7_2.csv
2018-07-11T11:04:21.330766,0.704,-0.334,0.518,-16.402,-0.549,-16.524,14_7_2.csv
2018-07-11T11:04:21.396440,0.736,-0.199,0.328,-90.366,-20.122,-13.354,14_7_2.csv
2018-07-11T11:04:21.460110,0.905,-0.402,0.083,-194.695,-76.402,-13.902,14_7_2.csv
2018-07-11T11:04:21.518265,0.905,-0.402,0.083,-201.585,-56.28,-12.744,14_7_2.csv
2018-07-11T11:04:21.575919,0.78,-0.519,0.132,-155.183,-28.476,-3.293,14_7_2.csv
2018-07-11T11:04:21.628058,0.479,-0.531,0.118,-19.024,-31.585,0.915,14_7_2.csv
2018-07-11T11:04:21.674180,0.479,-0.531,0.118,134.695,-41.341,-3.354,14_7_2.csv
2018-07-11T11:04:21.720805,0.476,-0.378,0.375,206.585,-37.683,55.305,14_7_2.csv
2018-07-11T11:04:21.780965,0.307,-0.488,0.336,270.244,-43.963,201.463,14_7_2.csv
2018-07-11T11:04:21.826587,0.307,-0.488,0.336,283.902,-51.646,246.646,14_7_2.csv
2018-07-11T11:04:21.873211,0.106,-0.813,0.241,366.707,-15.366,319.634,14_7_2.csv
2018-07-11T11:04:21.935878,0.106,-0.813,0.241,461.829,83.963,420.061,14_7_2.csv
2018-07-11T11:04:21.984508,-0.348,-0.046,0.271,344.817,349.878,408.659,14_7_2.csv
2018-07-11T11:04:22.033640,-1.97,0.65,-0.32,-112.866,392.622,283.537,14_7_2.csv
2018-07-11T11:04:22.091798,-1.97,0.65,-0.32,-459.024,309.207,203.72,14_7_2.csv
2018-07-11T11:04:22.145945,-2.91,-1.8,-0.566,-520.244,105.732,300.427,14_7_2.csv
2018-07-11T11:04:22.203600,-1.057,-0.676,-0.087,311.098,113.415,258.72,14_7_2.csv
2018-07-11T11:04:22.247218,-1.057,-0.676,-0.087,494.695,189.756,25.427,14_7_2.csv
2018-07-11T11:04:22.293845,-1.24,0.402,0.091,150.488,186.707,-118.232,14_7_2.csv
2018-07-11T11:04:22.349496,-1.092,-0.629,0.025,-358.902,-28.537,-25.0,14_7_2.csv
2018-07-11T11:04:22.417682,-1.092,-0.629,0.025,-270.366,-41.037,1.402,14_7_2.csv
2018-07-11T11:04:22.481854,-0.917,-0.583,0.049,-86.646,-3.659,-32.012,14_7_2.csv
2018-07-11T11:04:22.528480,-1.085,-0.483,0.068,-28.841,24.085,-55.427,14_7_2.csv
2018-07-11T11:04:22.578113,-1.085,-0.483,0.068,55.427,33.11,-75.427,14_7_2.csv
2018-07-11T11:04:22.621729,-1.267,0.202,-0.031,214.573,2.073,-59.634,14_7_2.csv
2018-07-11T11:04:22.734532,-1.102,0.641,0.098,-135.854,-34.756,28.476,14_7_2.csv
2018-07-11T11:04:24.334913,-1.121,-0.119,-0.17,-44.512,48.049,-28.537,14_7_2.csv
2018-07-11T11:04:24.392069,-1.194,-0.254,-0.182,-121.463,23.963,-114.817,14_7_2.csv
2018-07-11T11:04:24.436187,-1.104,-0.307,0.053,-40.183,-32.561,-94.024,14_7_2.csv
2018-07-11T11:04:24.490336,-1.104,-0.307,0.053,27.073,-69.39,-57.683,14_7_2.csv
2018-07-11T11:04:24.543477,-0.92,-0.271,0.15,-81.524,-41.707,-45.549,14_7_2.csv
2018-07-11T11:04:24.592612,-0.92,-0.271,0.15,-163.537,-10.549,-33.902,14_7_2.csv
2018-07-11T11:04:24.649765,-0.732,-0.471,-0.01,-137.378,9.939,-5.183,14_7_2.csv
2018-07-11T11:04:24.700906,-0.664,-0.449,-0.191,-139.939,0.671,1.28,14_7_2.csv
2018-07-11T11:04:24.751039,-0.664,-0.449,-0.191,-126.402,2.256,1.707,14_7_2.csv
2018-07-11T11:04:24.798171,-0.941,-0.304,-0.161,35.0,8.841,20.366,14_7_2.csv
2018-07-11T11:04:24.842288,-1.183,-0.173,-0.108,47.744,-1.098,11.89,14_7_2.csv
2018-07-11T11:04:24.892427,-1.183,-0.173,-0.108,60.122,-8.293,-11.098,14_7_2.csv
2018-07-11T11:04:24.958604,-0.966,-0.348,-0.187,-25.488,-11.463,-26.768,14_7_2.csv
2018-07-11T11:04:25.012753,-0.857,-0.409,-0.225,-53.476,-12.561,-31.28,14_7_2.csv
2018-07-11T11:04:25.058876,-0.857,-0.409,-0.225,-38.72,0.61,-31.707,14_7_2.csv
2018-07-11T11:04:25.109013,-0.954,-0.257,-0.209,-2.256,4.695,-19.512,14_7_2.csv
2018-07-11T11:04:25.152127,-0.954,-0.257,-0.209,7.195,1.402,-2.622,14_7_2.csv
2018-07-11T11:04:25.201259,-0.95,-0.25,-0.177,-15.488,-5.793,-5.793,14_7_2.csv
2018-07-11T11:04:25.249387,-0.869,-0.44,-0.248,-82.561,0.732,-19.39,14_7_2.csv
2018-07-11T11:04:25.311051,-0.869,-0.44,-0.248,-105.366,20.488,-16.89,14_7_2.csv
2018-07-11T11:04:25.408812,-0.925,-0.232,-0.333,-81.159,65.183,-12.134,14_7_2.csv
2018-07-11T11:04:25.453431,-0.925,-0.232,-0.333,-52.561,3.78,-4.268,14_7_2.csv
2018-07-11T11:04:25.502562,-1.035,-0.138,-0.241,-65.061,-56.22,-0.244,14_7_2.csv
2018-07-11T11:04:25.550690,-1.035,-0.138,-0.241,-84.695,-44.695,-1.28,14_7_2.csv
2018-07-11T11:04:25.603832,-0.934,-0.283,-0.294,-6.402,-2.866,13.049,14_7_2.csv
2018-07-11T11:04:25.662488,-0.896,-0.27,-0.344,-15.976,11.463,7.866,14_7_2.csv
2018-07-11T11:04:25.715128,-0.896,-0.27,-0.344,-10.549,6.646,5.793,14_7_2.csv
2018-07-11T11:04:25.764259,-0.929,-0.249,-0.426,25.793,-7.195,8.841,14_7_2.csv
2018-07-11T11:04:25.810884,-0.997,-0.094,-0.414,21.098,-15.122,6.524,14_7_2.csv
2018-07-11T11:04:25.858510,-0.997,-0.094,-0.414,10.183,-18.11,5.183,14_7_2.csv
2018-07-11T11:04:25.913156,-0.969,-0.036,-0.319,-28.293,-31.89,-4.207,14_7_2.csv
2018-07-11T11:04:25.968303,-0.908,-0.341,-0.196,-113.354,-42.012,-19.207,14_7_2.csv
2018-07-11T11:04:26.013924,-0.908,-0.341,-0.196,-86.037,-26.341,-11.463,14_7_2.csv
2018-07-11T11:04:26.065562,-0.976,-0.324,-0.261,-45.0,-20.0,-7.622,14_7_2.csv
2018-07-11T11:04:26.113691,-0.976,-0.324,-0.261,-11.402,-14.146,-4.146,14_7_2.csv
2018-07-11T11:04:26.159813,-0.985,-0.167,-0.236,10.732,1.037,5.61,14_7_2.csv
2018-07-11T11:04:26.210448,-0.971,-0.156,-0.265,-0.061,16.524,19.634,14_7_2.csv
2018-07-11T11:04:26.267601,-0.971,-0.156,-0.265,-4.024,13.476,18.11,14_7_2.csv
2018-07-11T11:04:26.311718,-0.974,-0.145,-0.303,-2.866,19.085,18.476,14_7_2.csv
2018-07-11T11:04:26.362854,-0.92,-0.119,-0.306,-3.78,17.5,16.707,14_7_2.csv
2018-07-11T11:04:26.407474,-0.92,-0.119,-0.306,-1.341,14.085,14.329,14_7_2.csv
2018-07-11T11:04:26.454599,-0.858,-0.11,-0.318,7.378,7.378,7.5,14_7_2.csv
2018-07-11T11:04:26.525789,-0.958,-0.087,-0.299,16.159,-6.524,-14.512,14_7_2.csv
2018-07-11T11:04:26.581939,-0.958,-0.087,-0.299,-1.829,-7.195,-20.732,14_7_2.csv
2018-07-11T11:04:26.626056,-0.968,-0.164,-0.287,-2.866,8.049,-8.902,14_7_2.csv
2018-07-11T11:04:26.686217,-0.933,-0.147,-0.367,4.634,14.756,-4.817,14_7_2.csv
2018-07-11T11:04:26.782473,-0.949,-0.123,-0.361,1.89,4.329,-13.11,14_7_2.csv
2018-07-11T11:04:26.830601,-0.949,-0.123,-0.361,-8.171,0.305,-11.463,14_7_2.csv
2018-07-11T11:04:26.883743,-0.959,-0.124,-0.356,-6.585,-1.707,-8.11,14_7_2.csv
2018-07-11T11:04:26.934378,-0.938,-0.162,-0.313,-28.598,-21.768,-12.195,14_7_2.csv
2018-07-11T11:04:26.981003,-0.938,-0.162,-0.313,-25.183,-21.829,-9.146,14_7_2.csv
2018-07-11T11:04:27.030135,-0.947,-0.199,-0.283,-15.305,-7.378,-7.073,14_7_2.csv
2018-07-11T11:04:27.076263,-0.947,-0.199,-0.283,-4.878,3.963,-6.463,14_7_2.csv
2018-07-11T11:04:27.122385,-0.943,-0.183,-0.316,0.671,4.329,-3.171,14_7_2.csv
2018-07-11T11:04:27.195585,-0.928,-0.183,-0.32,12.866,4.878,0.244,14_7_2.csv
2018-07-11T11:04:27.248727,-0.909,-0.188,-0.336,12.256,6.646,-0.976,14_7_2.csv
2018-07-11T11:04:27.309392,-0.909,-0.188,-0.336,9.695,5.061,-0.671,14_7_2.csv
2018-07-11T11:04:27.368048,-0.922,-0.213,-0.331,10.915,4.207,5.671,14_7_2.csv
2018-07-11T11:04:27.436231,-0.958,-0.204,-0.333,17.683,7.073,5.854,14_7_2.csv
2018-07-11T11:04:27.499403,-0.994,-0.145,-0.338,12.927,5.0,0.671,14_7_2.csv
2018-07-11T11:04:27.565580,-0.994,-0.145,-0.338,8.171,2.805,1.951,14_7_2.csv
2018-07-11T11:04:27.626745,-0.969,-0.158,-0.32,5.915,3.598,2.866,14_7_2.csv
2018-07-11T11:04:27.668857,-0.952,-0.164,-0.324,5.793,3.537,2.744,14_7_2.csv
2018-07-11T11:04:27.719493,-0.952,-0.164,-0.324,4.146,2.561,3.049,14_7_2.csv
2018-07-11T11:04:27.768122,-0.961,-0.171,-0.336,1.28,0.976,3.049,14_7_2.csv
2018-07-11T11:04:27.811237,-0.964,-0.147,-0.333,0.061,-2.317,3.354,14_7_2.csv
2018-07-11T11:04:27.865381,-0.964,-0.147,-0.333,-5.61,-5.915,2.927,14_7_2.csv
