time,accel_x_list,accel_y_list,accel_z_list,gyro_x_list,gyro_y_list,gyro_z_list,filename
2018-07-11T18:11:40.411953,-1.04,-0.135,0.099,15.183,7.622,8.415,15_10_1.csv
2018-07-11T18:11:40.473116,-0.992,-0.123,0.125,2.317,7.683,-2.988,15_10_1.csv
2018-07-11T18:11:40.523750,-0.992,-0.123,0.125,-3.72,6.22,-6.951,15_10_1.csv
2018-07-11T18:11:40.577895,-1.013,-0.129,0.126,-3.537,4.573,-5.61,15_10_1.csv
2018-07-11T18:11:40.696713,-1.056,-0.11,0.14,-1.037,5.0,-7.317,15_10_1.csv
2018-07-11T18:11:40.747351,-1.039,-0.1,0.148,-4.024,2.378,-8.598,15_10_1.csv
2018-07-11T18:11:40.792975,-0.99,-0.141,0.141,-17.012,-13.171,-11.707,15_10_1.csv
2018-07-11T18:11:40.847123,-0.99,-0.141,0.141,-13.841,-17.378,-10.122,15_10_1.csv
2018-07-11T18:11:40.899264,-0.92,-0.182,0.15,-9.024,-21.341,-11.463,15_10_1.csv
2018-07-11T18:11:40.946390,-0.92,-0.182,0.15,-9.695,-24.817,-16.768,15_10_1.csv
2018-07-11T18:11:41.009562,-1.472,-0.495,0.201,-68.049,-28.841,-103.659,15_10_1.csv
2018-07-11T18:11:41.058195,-2.505,-1.696,-0.018,-260.61,-97.256,-322.012,15_10_1.csv
2018-07-11T18:11:41.113845,-0.456,-0.43,0.005,182.439,-30.488,-247.561,15_10_1.csv
2018-07-11T18:11:41.183035,-0.456,-0.43,0.005,299.329,-172.073,-77.561,15_10_1.csv
2018-07-11T18:11:41.227153,0.489,1.079,0.228,73.171,-104.878,-52.805,15_10_1.csv
2018-07-11T18:11:41.275286,-0.067,0.139,0.336,2.622,28.049,-12.622,15_10_1.csv
2018-07-11T18:11:41.321410,-0.067,0.139,0.336,-6.341,16.28,70.366,15_10_1.csv
2018-07-11T18:11:41.383579,-1.036,-1.207,0.708,-27.195,-28.049,32.805,15_10_1.csv
2018-07-11T18:11:41.441734,-0.814,-2.685,0.724,-143.537,-137.012,-123.659,15_10_1.csv
2018-07-11T18:11:41.491872,-0.814,-2.685,0.724,-7.317,-60.122,-59.329,15_10_1.csv
2018-07-11T18:11:41.544011,0.082,-0.809,0.126,61.951,48.78,4.573,15_10_1.csv
2018-07-11T18:11:41.590138,0.082,-0.809,0.126,160.549,72.073,-17.195,15_10_1.csv
2018-07-11T18:11:41.650300,0.177,0.901,-0.113,4.024,-8.537,-56.22,15_10_1.csv
2018-07-11T18:11:41.709460,0.092,0.26,0.292,-21.768,-5.183,55.061,15_10_1.csv
2018-07-11T18:11:41.771128,-1.44,-2.359,1.142,-123.293,50.854,77.439,15_10_1.csv
2018-07-11T18:11:41.827277,-1.44,-2.359,1.142,-170.549,-81.22,-77.134,15_10_1.csv
2018-07-11T18:11:41.883427,-0.374,-2.518,0.824,-39.024,64.939,34.573,15_10_1.csv
2018-07-11T18:11:41.931555,0.258,0.403,-0.156,112.805,58.659,2.805,15_10_1.csv
2018-07-11T18:11:41.982190,0.258,0.403,-0.156,104.451,-26.341,-17.5,15_10_1.csv
2018-07-11T18:11:42.148137,-0.906,-1.096,0.625,-222.5,-70.122,50.549,15_10_1.csv
2018-07-11T18:11:42.231860,-1.417,-3.5,0.854,-60.732,22.744,-65.854,15_10_1.csv
2018-07-11T18:11:42.297033,-0.134,-1.228,0.198,140.854,72.927,-48.902,15_10_1.csv
2018-07-11T18:11:42.343657,0.22,1.28,-0.264,118.842,42.622,-81.402,15_10_1.csv
2018-07-11T18:11:42.400810,0.071,0.605,0.23,57.744,10.915,78.659,15_10_1.csv
2018-07-11T18:11:42.448437,0.071,0.605,0.23,-36.768,30.183,144.329,15_10_1.csv
2018-07-11T18:11:42.514614,-1.338,-2.579,0.766,-190.976,-40.366,86.037,15_10_1.csv
2018-07-11T18:11:42.586305,-0.777,-3.164,0.233,-162.561,-46.524,-132.439,15_10_1.csv
2018-07-11T18:11:42.649473,0.088,0.36,-0.135,154.085,160.0,-10.183,15_10_1.csv
2018-07-11T18:11:42.696598,0.088,0.36,-0.135,147.256,145.488,-13.963,15_10_1.csv
2018-07-11T18:11:42.743724,0.136,1.237,0.112,40.854,70.366,23.841,15_10_1.csv
2018-07-11T18:11:42.789346,0.136,1.237,0.112,-138.049,2.561,83.902,15_10_1.csv
2018-07-11T18:11:42.851010,-0.207,-0.592,0.149,-75.305,-59.573,28.537,15_10_1.csv
2018-07-11T18:11:42.904653,-0.973,-3.375,-0.073,-77.866,-95.305,-64.939,15_10_1.csv
2018-07-11T18:11:42.967821,-0.572,-2.668,0.004,31.646,64.207,-107.561,15_10_1.csv
2018-07-11T18:11:43.021965,-0.572,-2.668,0.004,92.256,160.061,-114.024,15_10_1.csv
2018-07-11T18:11:43.072601,-0.05,1.061,0.059,230.549,178.476,-80.0,15_10_1.csv
2018-07-11T18:11:43.119248,-0.05,1.061,0.059,94.268,51.646,7.012,15_10_1.csv
2018-07-11T18:11:43.180915,0.071,1.036,0.185,-198.537,5.427,73.171,15_10_1.csv
2018-07-11T18:11:43.232054,-0.246,-1.615,0.088,-89.39,-91.768,12.012,15_10_1.csv
2018-07-11T18:11:43.278682,-0.246,-1.615,0.088,-76.585,-85.671,-48.232,15_10_1.csv
2018-07-11T18:11:43.326310,0.122,-3.76,-1.084,-133.354,127.866,-221.463,15_10_1.csv
2018-07-11T18:11:43.434605,0.714,-1.562,-0.715,-117.866,324.146,-78.841,15_10_1.csv
2018-07-11T18:11:43.493763,-0.737,0.612,-0.1,64.756,555.366,-75.732,15_10_1.csv
2018-07-11T18:11:43.540388,-1.176,0.745,0.077,22.134,-49.39,-66.646,15_10_1.csv
2018-07-11T18:11:43.602052,-1.176,0.745,0.077,28.293,-292.805,-27.927,15_10_1.csv
2018-07-11T18:11:43.651183,-0.172,-0.633,0.169,296.524,-332.256,227.439,15_10_1.csv
2018-07-11T18:11:43.697807,0.942,-3.295,-1.129,3.11,-337.073,222.317,15_10_1.csv
2018-07-11T18:11:43.788048,0.866,-1.821,-0.948,120.732,-131.829,78.293,15_10_1.csv
2018-07-11T18:11:43.853723,0.11,1.344,-0.079,200.122,35.793,59.085,15_10_1.csv
2018-07-11T18:11:43.916390,0.11,1.344,-0.079,201.22,296.22,101.159,15_10_1.csv
2018-07-11T18:11:43.982566,-0.246,0.453,0.142,77.683,-139.756,240.0,15_10_1.csv
2018-07-11T18:11:44.033201,-0.877,-1.521,0.546,78.415,-102.805,186.22,15_10_1.csv
2018-07-11T18:11:44.117746,-1.593,-2.707,0.563,-100.305,-85.671,-12.744,15_10_1.csv
2018-07-11T18:11:44.175905,-0.85,-0.649,0.435,156.951,229.39,214.146,15_10_1.csv
2018-07-11T18:11:44.233058,-0.85,-0.649,0.435,46.22,101.524,182.622,15_10_1.csv
2018-07-11T18:11:44.277180,0.263,0.047,0.475,41.524,20.122,49.329,15_10_1.csv
2018-07-11T18:11:44.326311,0.263,0.047,0.475,-38.841,-26.829,94.634,15_10_1.csv
2018-07-11T18:11:44.383468,-0.028,-0.384,0.441,-208.842,-148.902,-35.122,15_10_1.csv
2018-07-11T18:11:44.459172,-1.979,-1.775,0.34,-57.195,-136.707,-152.134,15_10_1.csv
2018-07-11T18:11:44.520836,-1.799,-1.429,0.154,9.634,-45.793,-85.122,15_10_1.csv
2018-07-11T18:11:44.605061,0.093,-0.033,0.202,170.183,163.232,108.476,15_10_1.csv
2018-07-11T18:11:44.649178,0.093,-0.033,0.202,180.549,88.232,104.39,15_10_1.csv
2018-07-11T18:11:44.702289,0.635,0.637,0.098,38.841,-69.39,-113.72,15_10_1.csv
2018-07-11T18:11:44.784512,-0.366,-0.087,0.557,-122.988,154.573,244.085,15_10_1.csv
2018-07-11T18:11:44.852694,-3.506,-1.604,-0.06,-156.159,106.402,-111.646,15_10_1.csv
2018-07-11T18:11:44.904837,-1.24,-0.978,0.5,73.476,27.134,-60.854,15_10_1.csv
2018-07-11T18:11:44.964499,-1.24,-0.978,0.5,115.366,132.012,-26.646,15_10_1.csv
2018-07-11T18:11:45.014134,0.428,0.352,0.527,30.244,-147.317,-32.195,15_10_1.csv
2018-07-11T18:11:45.063267,0.678,0.306,0.183,28.293,-177.012,-148.171,15_10_1.csv
2018-07-11T18:11:45.109392,0.678,0.306,0.183,0.0,68.841,73.354,15_10_1.csv
2018-07-11T18:11:45.178581,-1.57,-1.672,-0.029,-323.902,-104.329,-341.646,15_10_1.csv
2018-07-11T18:11:45.230720,-2.284,-2.365,0.052,-25.305,-74.451,-187.5,15_10_1.csv
2018-07-11T18:11:45.293892,-2.284,-2.365,0.052,-4.39,43.902,-125.305,15_10_1.csv
2018-07-11T18:11:45.340015,-0.26,-0.381,0.277,189.756,143.963,11.585,15_10_1.csv
2018-07-11T18:11:45.404191,0.544,1.235,0.243,183.049,6.585,7.744,15_10_1.csv
2018-07-11T18:11:45.461345,0.127,-0.141,0.511,27.378,-28.72,63.537,15_10_1.csv
2018-07-11T18:11:45.523009,0.127,-0.141,0.511,89.939,-16.89,106.585,15_10_1.csv
2018-07-11T18:11:45.591692,-1.936,-1.81,0.818,198.049,49.573,122.073,15_10_1.csv
2018-07-11T18:11:45.650349,-2.205,-1.853,0.963,14.024,-219.024,-43.963,15_10_1.csv
2018-07-11T18:11:45.696471,0.136,-0.455,-0.02,91.646,148.537,-71.585,15_10_1.csv
2018-07-11T18:11:45.745101,0.136,-0.455,-0.02,144.146,108.963,-103.842,15_10_1.csv
2018-07-11T18:11:45.793731,0.336,1.267,-0.05,78.841,-111.707,-108.11,15_10_1.csv
2018-07-11T18:11:45.853891,0.336,1.267,-0.05,-17.805,-186.463,-36.829,15_10_1.csv
2018-07-11T18:11:45.906029,0.096,0.256,0.714,-105.427,7.439,195.671,15_10_1.csv
2018-07-11T18:11:45.998777,-1.937,-2.689,1.105,-193.11,-193.476,-174.207,15_10_1.csv
2018-07-11T18:11:46.043897,-0.241,-2.077,0.382,-108.842,-49.207,-59.024,15_10_1.csv
2018-07-11T18:11:46.094532,-0.241,-2.077,0.382,-40.732,80.732,26.098,15_10_1.csv
2018-07-11T18:11:46.246943,0.491,0.954,0.121,49.207,-23.171,127.927,15_10_1.csv
2018-07-11T18:11:46.306604,-0.598,-1.17,0.671,-176.281,26.159,-18.11,15_10_1.csv
2018-07-11T18:11:46.359750,-1.533,-3.219,0.708,-189.756,-173.72,-186.281,15_10_1.csv
2018-07-11T18:11:46.416903,-1.533,-3.219,0.708,-128.72,-43.537,-120.61,15_10_1.csv
2018-07-11T18:11:46.462027,-0.026,-0.944,0.462,46.707,198.598,74.939,15_10_1.csv
2018-07-11T18:11:46.514166,0.117,0.473,0.293,64.573,183.963,108.293,15_10_1.csv
2018-07-11T18:11:46.565307,0.117,0.473,0.293,93.11,57.317,160.122,15_10_1.csv
2018-07-11T18:11:46.643017,0.265,0.538,0.341,-82.744,-37.5,115.915,15_10_1.csv
2018-07-11T18:11:46.707691,-1.112,-1.901,-0.037,-214.024,-128.598,-245.854,15_10_1.csv
2018-07-11T18:11:46.758832,-1.368,-2.841,-0.279,-76.341,-45.427,-160.366,15_10_1.csv
2018-07-11T18:11:46.813979,-1.368,-2.841,-0.279,-63.354,22.5,-87.622,15_10_1.csv
2018-07-11T18:11:46.868128,-0.104,-0.725,0.212,143.902,106.098,14.695,15_10_1.csv
2018-07-11T18:11:46.914251,0.434,0.979,0.313,145.488,58.78,8.841,15_10_1.csv
2018-07-11T18:11:46.974417,0.434,0.979,0.313,74.634,-50.854,-60.61,15_10_1.csv
2018-07-11T18:11:47.063659,-1.146,-2.989,-0.213,-173.903,-62.866,-156.281,15_10_1.csv
2018-07-11T18:11:47.123820,-1.146,-2.989,-0.213,-127.256,-28.78,-182.683,15_10_1.csv
2018-07-11T18:11:47.171448,-0.683,-2.219,-0.298,-91.463,19.695,-142.683,15_10_1.csv
2018-07-11T18:11:47.219075,-0.683,-2.219,-0.298,-43.476,31.463,16.28,15_10_1.csv
2018-07-11T18:11:47.258681,0.237,-0.175,0.218,28.963,66.402,78.293,15_10_1.csv
2018-07-11T18:11:47.327366,0.294,0.584,0.125,164.695,26.524,103.232,15_10_1.csv
2018-07-11T18:11:47.390539,-0.025,-0.187,0.106,-19.329,44.756,-36.22,15_10_1.csv
2018-07-11T18:11:47.509862,-0.574,-2.855,-0.529,-91.89,-24.939,-76.28,15_10_1.csv
2018-07-11T18:11:47.564011,-0.375,-2.497,-0.607,12.683,52.195,-8.72,15_10_1.csv
2018-07-11T18:11:47.619158,-0.375,-2.497,-0.607,-27.988,40.976,52.5,15_10_1.csv
2018-07-11T18:11:47.665286,0.063,-0.186,0.235,85.244,121.463,26.707,15_10_1.csv
2018-07-11T18:11:47.727451,0.222,1.148,0.265,155.732,-40.0,84.207,15_10_1.csv
2018-07-11T18:11:47.791627,-0.121,-0.521,-0.303,-179.756,0.732,19.817,15_10_1.csv
2018-07-11T18:11:47.852792,-0.121,-0.521,-0.303,-211.281,-4.939,54.085,15_10_1.csv
2018-07-11T18:11:47.899918,-0.243,-3.165,-1.417,-270.915,-36.159,-113.963,15_10_1.csv
2018-07-11T18:11:47.946542,-0.243,-3.165,-1.417,-110.549,56.707,-87.622,15_10_1.csv
2018-07-11T18:11:47.994168,0.108,-1.955,-0.74,-7.378,20.976,24.512,15_10_1.csv
2018-07-11T18:11:48.087419,0.116,0.422,0.537,56.402,245.793,98.841,15_10_1.csv
2018-07-11T18:11:48.173146,-0.242,0.824,0.229,-56.585,-61.646,15.61,15_10_1.csv
2018-07-11T18:11:48.227791,-0.066,-0.835,-0.84,-171.463,-16.28,-78.537,15_10_1.csv
2018-07-11T18:11:48.273917,0.001,-2.721,-1.748,27.805,-1.524,12.5,15_10_1.csv
2018-07-11T18:11:48.324050,0.001,-2.721,-1.748,-7.256,-32.073,46.098,15_10_1.csv
2018-07-11T18:11:48.368174,0.167,-1.854,-0.695,-153.659,-85.915,34.939,15_10_1.csv
2018-07-11T18:11:48.430339,-0.015,0.76,0.505,109.085,-16.524,-111.098,15_10_1.csv
2018-07-11T18:11:48.488499,-0.015,0.76,0.505,97.317,145.915,54.085,15_10_1.csv
2018-07-11T18:11:48.543147,-0.14,0.615,0.096,30.549,-58.232,165.183,15_10_1.csv
2018-07-11T18:11:48.585763,-0.14,0.615,0.096,-165.122,-0.671,110.732,15_10_1.csv
2018-07-11T18:11:48.643421,-0.151,-1.373,-0.991,74.634,-70.793,-84.512,15_10_1.csv
2018-07-11T18:11:48.695059,0.057,-2.468,-1.762,-19.695,-7.866,-23.902,15_10_1.csv
2018-07-11T18:11:48.755226,0.077,-1.394,-0.553,-132.256,-26.585,32.378,15_10_1.csv
2018-07-11T18:11:48.877557,0.001,0.692,0.08,77.317,-14.329,-101.89,15_10_1.csv
2018-07-11T18:11:48.931701,-0.073,-0.111,-0.905,207.866,1.159,-49.756,15_10_1.csv
2018-07-11T18:11:48.977325,-0.073,-0.111,-0.905,413.171,14.146,29.024,15_10_1.csv
2018-07-11T18:11:49.025453,0.323,-0.924,0.518,424.146,65.976,25.976,15_10_1.csv
2018-07-11T18:11:49.075086,-0.152,-3.402,1.073,-311.402,206.707,-56.28,15_10_1.csv
2018-07-11T18:11:49.130734,-0.152,-3.402,1.073,-127.073,-30.061,23.049,15_10_1.csv
2018-07-11T18:11:49.197913,0.007,-0.156,0.322,97.561,-50.793,-75.732,15_10_1.csv
2018-07-11T18:11:49.249551,-0.091,1.057,-0.474,-110.732,68.78,-97.805,15_10_1.csv
2018-07-11T18:11:49.305199,-0.091,1.057,-0.474,-77.073,-34.207,16.037,15_10_1.csv
2018-07-11T18:11:49.353829,-0.132,-0.414,-0.424,103.659,-54.512,141.22,15_10_1.csv
2018-07-11T18:11:49.398447,0.202,-2.691,-0.193,-139.817,11.707,-50.061,15_10_1.csv
2018-07-11T18:11:49.461616,0.202,-2.691,-0.193,-127.805,6.951,-133.72,15_10_1.csv
2018-07-11T18:11:49.521278,0.425,-3.129,0.1,-26.585,-14.451,59.512,15_10_1.csv
2018-07-11T18:11:49.571916,-0.025,0.108,0.334,232.195,-9.939,-51.524,15_10_1.csv
2018-07-11T18:11:49.616538,-0.025,0.108,0.334,111.22,15.61,-120.244,15_10_1.csv
2018-07-11T18:11:49.713804,-0.24,0.909,-0.083,-207.683,50.183,-2.195,15_10_1.csv
2018-07-11T18:11:49.774466,-0.684,-0.235,-0.392,11.037,-192.195,12.073,15_10_1.csv
2018-07-11T18:11:49.849667,0.335,-3.1,-1.183,-108.049,-192.988,59.695,15_10_1.csv
2018-07-11T18:11:49.907821,0.469,-2.135,-0.753,158.902,-67.744,128.415,15_10_1.csv
2018-07-11T18:11:49.961966,0.153,0.979,-0.742,338.72,-29.39,125.793,15_10_1.csv
2018-07-11T18:11:50.009593,0.153,0.979,-0.742,462.378,-8.841,-6.28,15_10_1.csv
2018-07-11T18:11:50.058724,0.103,0.686,-0.488,498.171,212.256,105.305,15_10_1.csv
2018-07-11T18:11:50.102340,0.103,0.686,-0.488,398.537,130.122,321.342,15_10_1.csv
2018-07-11T18:11:50.236698,-4.048,0.898,1.108,-56.768,200.122,-35.488,15_10_1.csv
2018-07-11T18:11:50.298362,-0.929,-0.126,0.481,-47.317,-7.866,-12.683,15_10_1.csv
2018-07-11T18:11:50.383589,0.714,-0.047,-0.265,-42.134,-277.805,-23.476,15_10_1.csv
2018-07-11T18:11:50.431718,0.714,-0.047,-0.265,-14.329,-246.281,-140.549,15_10_1.csv
2018-07-11T18:11:50.499398,0.17,-0.208,0.031,-220.305,178.232,202.622,15_10_1.csv
2018-07-11T18:11:50.542012,-1.684,-0.227,-0.373,-178.171,194.939,117.134,15_10_1.csv
2018-07-11T18:11:50.604679,-3.628,-0.651,-0.339,-27.195,105.732,8.354,15_10_1.csv
2018-07-11T18:11:50.654812,-3.628,-0.651,-0.339,134.39,61.402,207.195,15_10_1.csv
2018-07-11T18:11:50.711964,-0.289,0.474,0.583,201.342,71.768,165.61,15_10_1.csv
2018-07-11T18:11:50.760093,-0.289,0.474,0.583,70.732,-249.634,45.061,15_10_1.csv
2018-07-11T18:11:50.806717,0.668,0.109,0.412,-5.915,18.293,-26.22,15_10_1.csv
2018-07-11T18:11:50.853342,-0.274,-0.367,0.039,-153.171,14.756,103.598,15_10_1.csv
2018-07-11T18:11:50.909491,-0.274,-0.367,0.039,-295.671,90.427,47.622,15_10_1.csv
2018-07-11T18:11:50.969652,-3.23,-0.667,-0.905,-86.829,42.622,-100.549,15_10_1.csv
2018-07-11T18:11:51.024799,-2.18,-0.32,-0.194,-64.451,-107.134,-101.402,15_10_1.csv
2018-07-11T18:11:51.072927,-2.18,-0.32,-0.194,176.89,54.756,-93.659,15_10_1.csv
2018-07-11T18:11:51.128074,0.609,0.772,0.465,137.805,-123.659,-118.415,15_10_1.csv
2018-07-11T18:11:51.182218,0.261,0.184,0.262,-39.756,12.012,74.939,15_10_1.csv
2018-07-11T18:11:51.240373,0.261,0.184,0.262,-62.988,51.159,169.207,15_10_1.csv
2018-07-11T18:11:51.303040,-1.12,-0.451,-0.126,59.512,145.427,-40.061,15_10_1.csv
2018-07-11T18:11:51.353675,-3.498,-0.114,-0.79,18.171,106.951,21.829,15_10_1.csv
2018-07-11T18:11:51.427371,-1.102,-0.289,0.284,-124.634,45.488,-49.573,15_10_1.csv
2018-07-11T18:11:51.495052,0.572,0.063,0.426,164.817,-170.122,23.78,15_10_1.csv
2018-07-11T18:11:51.924046,0.446,-0.436,0.115,24.146,-116.402,165.122,15_10_1.csv
2018-07-11T18:11:51.977190,-0.175,-0.057,-0.034,20.732,-95.732,-42.683,15_10_1.csv
2018-07-11T18:11:52.025322,-0.175,-0.057,-0.034,-14.878,-159.329,-30.061,15_10_1.csv
2018-07-11T18:11:52.070445,-2.057,0.475,-0.272,26.159,-16.707,-51.28,15_10_1.csv
2018-07-11T18:11:52.129604,-2.955,0.286,-0.413,-84.573,278.659,-37.927,15_10_1.csv
2018-07-11T18:11:52.189767,-2.955,0.286,-0.413,155.061,41.89,-54.695,15_10_1.csv
2018-07-11T18:11:52.248929,0.272,0.098,0.595,253.781,-44.39,-34.024,15_10_1.csv
2018-07-11T18:11:52.306081,0.242,-0.01,0.225,16.585,38.841,-48.78,15_10_1.csv
2018-07-11T18:11:52.355217,0.242,-0.01,0.225,4.207,2.012,107.805,15_10_1.csv
2018-07-11T18:11:52.398332,-0.266,0.184,0.212,14.695,-58.049,104.451,15_10_1.csv
2018-07-11T18:11:52.461506,-3.143,0.234,-1.084,-162.073,264.329,-89.207,15_10_1.csv
2018-07-11T18:11:52.522170,-3.143,0.234,-1.084,-182.561,34.878,-31.89,15_10_1.csv
2018-07-11T18:11:52.578823,-2.074,0.074,0.022,0.732,137.317,-80.732,15_10_1.csv
2018-07-11T18:11:52.633971,0.461,-0.15,0.558,-33.78,10.244,-57.317,15_10_1.csv
2018-07-11T18:11:52.681101,0.461,-0.15,0.558,12.134,-110.549,-88.11,15_10_1.csv
2018-07-11T18:11:52.727224,0.051,-0.194,0.247,75.793,4.451,21.829,15_10_1.csv
2018-07-11T18:11:52.788393,-0.322,0.052,0.188,-5.244,-61.585,29.39,15_10_1.csv
2018-07-11T18:11:52.844544,-0.322,0.052,0.188,23.72,-34.878,-0.244,15_10_1.csv
2018-07-11T18:11:53.069155,0.609,0.096,0.46,24.573,-95.366,-125.854,15_10_1.csv
2018-07-11T18:11:53.120291,0.099,-0.085,0.137,44.756,9.695,13.841,15_10_1.csv
2018-07-11T18:11:53.167419,0.099,-0.085,0.137,3.659,-19.878,187.073,15_10_1.csv
2018-07-11T18:11:53.217051,-0.431,-0.164,0.174,23.659,-9.634,-106.829,15_10_1.csv
2018-07-11T18:11:53.292251,-3.673,-0.557,-0.911,17.683,267.134,-70.732,15_10_1.csv
2018-07-11T18:11:53.350908,-1.647,0.074,0.266,58.537,9.695,46.28,15_10_1.csv
2018-07-11T18:11:53.416081,0.787,0.548,0.694,79.817,-170.671,26.585,15_10_1.csv
2018-07-11T18:11:53.469223,0.787,0.548,0.694,-13.841,-198.476,-41.768,15_10_1.csv
2018-07-11T18:11:53.510834,0.039,-0.152,0.012,-79.146,58.963,17.683,15_10_1.csv
2018-07-11T18:11:53.559464,0.039,-0.152,0.012,-162.988,107.622,187.256,15_10_1.csv
2018-07-11T18:11:53.625640,-0.841,-0.544,-0.158,103.293,-55.427,-37.073,15_10_1.csv
2018-07-11T18:11:53.675774,-3.945,-0.253,-0.703,122.317,237.439,47.927,15_10_1.csv
2018-07-11T18:11:53.729919,-3.945,-0.253,-0.703,-8.78,-72.622,32.256,15_10_1.csv
2018-07-11T18:11:53.778548,-1.104,0.083,0.439,156.707,120.061,-125.183,15_10_1.csv
2018-07-11T18:11:53.822665,0.987,0.789,0.612,-4.39,-136.524,-237.927,15_10_1.csv
2018-07-11T18:11:53.873300,0.987,0.789,0.612,-57.012,-15.976,4.024,15_10_1.csv
2018-07-11T18:11:53.965549,-0.387,-0.35,-0.18,-116.463,-51.585,114.024,15_10_1.csv
2018-07-11T18:11:54.020700,-1.23,-0.289,-0.261,-13.415,35.854,-82.683,15_10_1.csv
2018-07-11T18:11:54.071836,-3.54,-0.535,-0.654,-57.5,159.39,-55.61,15_10_1.csv
2018-07-11T18:11:54.121973,-3.54,-0.535,-0.654,-89.512,12.195,0.915,15_10_1.csv
2018-07-11T18:11:54.181631,-0.712,-0.381,0.386,111.951,101.098,-45.915,15_10_1.csv
2018-07-11T18:11:54.228255,0.394,0.267,0.766,176.281,-40.183,6.463,15_10_1.csv
2018-07-11T18:11:54.398082,-1.207,0.108,-0.363,-119.573,-90.732,9.207,15_10_1.csv
2018-07-11T18:11:54.464762,-3.598,-0.63,-0.674,25.854,10.732,35.671,15_10_1.csv
2018-07-11T18:11:54.529937,-3.598,-0.63,-0.674,179.024,-48.11,199.756,15_10_1.csv
2018-07-11T18:11:54.572049,-0.773,0.114,0.434,128.11,217.805,35.793,15_10_1.csv
2018-07-11T18:11:54.624188,0.562,-0.395,0.392,-74.756,-103.72,55.0,15_10_1.csv
2018-07-11T18:11:54.682343,0.562,-0.395,0.392,14.695,94.756,94.085,15_10_1.csv
2018-07-11T18:11:54.743506,-0.361,-0.333,-0.038,36.463,-162.927,-31.159,15_10_1.csv
2018-07-11T18:11:54.802163,-1.303,0.096,-0.167,15.061,-182.439,-58.415,15_10_1.csv
2018-07-11T18:11:54.856306,-1.303,0.096,-0.167,67.195,79.817,-92.134,15_10_1.csv
2018-07-11T18:11:54.899422,-3.666,0.081,-0.294,11.585,-10.61,-41.524,15_10_1.csv
2018-07-11T18:11:54.950057,-0.695,-0.235,0.503,-78.232,213.781,-22.195,15_10_1.csv
2018-07-11T18:11:54.998686,-0.695,-0.235,0.503,43.659,25.305,-35.793,15_10_1.csv
2018-07-11T18:11:55.056841,0.562,-0.034,0.398,150.854,-120.854,1.22,15_10_1.csv
2018-07-11T18:11:55.111487,-0.184,-0.093,-0.092,-98.049,-49.39,85.244,15_10_1.csv
2018-07-11T18:11:55.165632,-0.184,-0.093,-0.092,-158.11,-112.256,39.207,15_10_1.csv
2018-07-11T18:11:55.211756,-1.237,-0.207,-0.358,-174.329,-97.439,-77.256,15_10_1.csv
2018-07-11T18:11:55.260888,-1.237,-0.207,-0.358,-237.439,199.39,-120.549,15_10_1.csv
2018-07-11T18:11:55.307012,-3.587,-1.008,-1.009,-63.72,-86.28,-45.793,15_10_1.csv
2018-07-11T18:11:55.370180,-0.508,-0.582,0.551,110.488,72.622,-60.61,15_10_1.csv
2018-07-11T18:11:55.469447,0.756,0.971,0.561,36.159,15.854,78.171,15_10_1.csv
2018-07-11T18:11:55.528610,-0.345,-0.101,0.039,-220.427,-28.293,251.403,15_10_1.csv
2018-07-11T18:11:55.575736,-0.345,-0.101,0.039,-181.829,6.829,161.463,15_10_1.csv
2018-07-11T18:11:55.982449,-0.373,-0.511,-0.2,-207.866,-114.939,-106.524,15_10_1.csv
2018-07-11T18:11:56.045622,-1.721,-0.687,-0.125,70.0,197.927,64.207,15_10_1.csv
2018-07-11T18:11:56.105785,-3.287,-0.396,-0.3,134.878,97.073,203.72,15_10_1.csv
2018-07-11T18:11:56.159427,-0.022,0.028,0.715,-114.939,108.354,-22.134,15_10_1.csv
2018-07-11T18:11:56.215076,-0.022,0.028,0.715,-141.524,22.439,-35.183,15_10_1.csv
2018-07-11T18:11:56.264207,0.095,-0.322,0.348,-107.5,107.073,-25.976,15_10_1.csv
2018-07-11T18:11:56.311335,-0.158,-0.264,-0.165,13.476,-152.195,23.598,15_10_1.csv
2018-07-11T18:11:56.356455,-0.158,-0.264,-0.165,28.72,-234.268,38.72,15_10_1.csv
2018-07-11T18:11:56.427649,-2.877,-0.001,-0.52,-83.415,-77.805,31.585,15_10_1.csv
2018-07-11T18:11:56.489317,-2.225,0.372,0.451,94.329,-154.878,32.927,15_10_1.csv
2018-07-11T18:11:56.545467,-2.225,0.372,0.451,128.537,211.707,-142.073,15_10_1.csv
2018-07-11T18:11:56.591089,0.448,-0.347,0.628,-66.159,181.951,-68.11,15_10_1.csv
2018-07-11T18:11:56.653256,-0.28,-0.275,0.027,76.707,212.561,112.805,15_10_1.csv
2018-07-11T18:11:56.699379,-0.28,-0.275,0.027,142.561,-106.098,45.244,15_10_1.csv
2018-07-11T18:11:56.755534,-0.132,0.335,-0.08,-55.549,-159.451,-90.122,15_10_1.csv
2018-07-11T18:11:56.813189,-3.327,0.107,-0.568,-189.573,52.927,-49.207,15_10_1.csv
2018-07-11T18:11:56.874352,-1.788,-0.364,0.531,-55.854,-59.451,73.841,15_10_1.csv
2018-07-11T18:11:56.917969,-1.788,-0.364,0.531,121.646,295.671,73.11,15_10_1.csv
2018-07-11T18:11:56.966097,0.498,-0.177,0.444,67.744,127.378,12.317,15_10_1.csv
2018-07-11T18:11:57.052328,-0.227,-0.341,0.125,-12.317,113.049,34.085,15_10_1.csv
2018-07-11T18:11:57.115496,-0.233,-0.122,-0.133,89.817,-196.646,-4.817,15_10_1.csv
2018-07-11T18:11:57.179672,-0.233,-0.122,-0.133,32.805,-140.488,-40.427,15_10_1.csv
2018-07-11T18:11:57.228803,-3.472,0.009,-0.402,-30.122,-16.341,-70.305,15_10_1.csv
2018-07-11T18:11:57.273928,-3.472,0.009,-0.402,-93.354,-212.927,-127.317,15_10_1.csv
2018-07-11T18:11:57.323059,-1.776,-0.174,0.939,17.622,553.049,-28.598,15_10_1.csv
2018-07-11T18:11:57.368184,0.016,0.076,0.707,-169.146,70.793,42.683,15_10_1.csv
2018-07-11T18:11:57.428345,0.016,0.076,0.707,48.78,-341.768,-159.268,15_10_1.csv
2018-07-11T18:11:57.488006,0.488,0.373,0.111,-355.793,-10.915,29.695,15_10_1.csv
2018-07-11T18:11:57.540145,-0.509,-0.666,-0.571,-268.049,-122.561,-2.317,15_10_1.csv
2018-07-11T18:11:57.591282,-0.509,-0.666,-0.571,-128.232,-208.415,-105.061,15_10_1.csv
2018-07-11T18:11:57.639911,-3.394,-0.895,-0.311,178.11,-108.537,99.39,15_10_1.csv
2018-07-11T18:11:57.698066,-1.411,-0.286,0.323,274.634,416.707,103.11,15_10_1.csv
2018-07-11T18:11:57.762739,0.118,0.142,0.64,-123.293,195.122,61.402,15_10_1.csv
2018-07-11T18:11:57.812872,0.118,0.142,0.64,-139.695,-126.524,-81.707,15_10_1.csv
2018-07-11T18:11:57.885064,0.151,-0.563,0.413,89.634,-40.61,92.073,15_10_1.csv
2018-07-11T18:11:57.929683,-0.799,-0.085,-0.28,104.39,-112.927,123.842,15_10_1.csv
2018-07-11T18:11:57.977812,-0.799,-0.085,-0.28,57.378,-42.439,69.329,15_10_1.csv
2018-07-11T18:11:58.025438,-3.862,-0.164,-0.645,21.037,-37.378,35.976,15_10_1.csv
2018-07-11T18:11:58.084596,-1.014,0.216,0.792,119.695,92.927,-54.329,15_10_1.csv
2018-07-11T18:11:58.142751,-1.014,0.216,0.792,112.744,268.476,-174.146,15_10_1.csv
2018-07-11T18:11:58.259563,-0.258,-0.354,0.128,139.817,10.305,88.598,15_10_1.csv
2018-07-11T18:11:58.305685,-0.258,-0.354,0.128,149.756,-85.061,120.732,15_10_1.csv
2018-07-11T18:11:58.408459,-3.245,-0.044,-0.573,-366.159,-198.049,-213.598,15_10_1.csv
2018-07-11T18:11:58.466113,-3.245,-0.044,-0.573,-536.89,-150.915,-244.085,15_10_1.csv
2018-07-11T18:11:58.523766,-0.405,-0.593,0.421,-30.854,195.854,92.927,15_10_1.csv
2018-07-11T18:11:58.579415,0.463,-0.516,0.273,241.829,142.561,147.683,15_10_1.csv
2018-07-11T18:11:58.633058,0.463,-0.516,0.273,356.342,112.744,182.073,15_10_1.csv
2018-07-11T18:11:58.680183,-0.15,0.146,0.285,241.524,-29.207,108.963,15_10_1.csv
2018-07-11T18:11:58.728813,-1.704,0.053,-0.177,-98.415,-34.39,29.573,15_10_1.csv
2018-07-11T18:11:58.775437,-1.704,0.053,-0.177,-169.085,191.89,-16.341,15_10_1.csv
2018-07-11T18:11:58.835097,-3.418,0.127,-0.625,28.659,-88.415,15.244,15_10_1.csv
2018-07-11T18:11:58.895758,-0.1,-0.111,0.469,-66.463,95.793,-76.22,15_10_1.csv
2018-07-11T18:11:58.948899,-0.1,-0.111,0.469,-63.72,20.244,6.524,15_10_1.csv
2018-07-11T18:11:59.008218,0.265,-0.546,0.269,168.903,55.244,139.146,15_10_1.csv
2018-07-11T18:11:59.057349,-0.315,-0.071,0.157,160.915,-47.012,99.268,15_10_1.csv
2018-07-11T18:11:59.102473,-0.315,-0.071,0.157,67.195,-163.72,28.659,15_10_1.csv
2018-07-11T18:11:59.163637,-1.627,0.106,-0.297,-99.817,-17.988,-86.89,15_10_1.csv
2018-07-11T18:11:59.225806,-3.155,-0.351,-0.744,-187.988,-113.902,-106.646,15_10_1.csv
2018-07-11T18:11:59.273934,-3.155,-0.351,-0.744,-159.939,-105.366,-83.293,15_10_1.csv
2018-07-11T18:11:59.329083,-0.211,-0.46,0.438,249.207,165.0,-42.988,15_10_1.csv
2018-07-11T18:11:59.385235,0.231,0.286,0.438,379.085,-62.927,29.268,15_10_1.csv
2018-07-11T18:11:59.430356,0.231,0.286,0.438,278.476,-192.439,-24.695,15_10_1.csv
2018-07-11T18:11:59.492525,-0.021,0.127,0.342,-169.329,-123.842,-11.646,15_10_1.csv
2018-07-11T18:11:59.550181,-1.826,-0.463,-0.191,-356.22,-48.354,-57.683,15_10_1.csv
2018-07-11T18:11:59.605831,-1.826,-0.463,-0.191,-326.281,95.427,-1.402,15_10_1.csv
2018-07-11T18:11:59.671009,-2.991,-1.047,-0.511,-38.354,66.646,63.354,15_10_1.csv
2018-07-11T18:11:59.770275,0.685,0.275,0.747,190.427,-326.768,-32.561,15_10_1.csv
2018-07-11T18:11:59.826926,0.685,0.275,0.747,105.854,-5.305,-44.268,15_10_1.csv
2018-07-11T18:11:59.881572,-0.178,-0.129,0.348,34.024,61.159,41.707,15_10_1.csv
2018-07-11T18:11:59.946245,-2.23,-0.378,-0.406,-204.024,-25.854,-26.037,15_10_1.csv
2018-07-11T18:11:59.994373,-2.23,-0.378,-0.406,-336.707,152.927,-43.293,15_10_1.csv
2018-07-11T18:12:00.040997,-2.664,-1.039,-0.477,-286.098,-9.146,-4.085,15_10_1.csv
2018-07-11T18:12:00.087122,-2.664,-1.039,-0.477,5.854,73.476,39.512,15_10_1.csv
2018-07-11T18:12:00.147287,0.157,-0.297,0.361,203.049,-74.329,41.951,15_10_1.csv
2018-07-11T18:12:00.214466,0.281,0.195,0.558,37.012,59.756,51.341,15_10_1.csv
2018-07-11T18:12:00.273628,-0.518,-0.142,0.017,-40.244,-70.366,39.512,15_10_1.csv
2018-07-11T18:12:00.320754,-0.518,-0.142,0.017,-106.22,-144.39,-51.524,15_10_1.csv
2018-07-11T18:12:00.368887,-3.065,-0.625,-0.908,-195.915,40.366,-135.244,15_10_1.csv
2018-07-11T18:12:00.414007,-1.448,-1.008,0.387,-215.122,-63.354,29.329,15_10_1.csv
2018-07-11T18:12:00.474173,-1.448,-1.008,0.387,76.159,261.646,168.415,15_10_1.csv
2018-07-11T18:12:00.534335,0.54,-0.208,0.575,261.037,24.085,111.829,15_10_1.csv
2018-07-11T18:12:00.595500,-0.242,0.026,0.34,101.22,117.439,83.537,15_10_1.csv
2018-07-11T18:12:00.666191,-1.257,-0.184,-0.345,49.024,-92.317,37.378,15_10_1.csv
2018-07-11T18:12:00.718833,-1.257,-0.184,-0.345,25.976,15.488,-13.354,15_10_1.csv
2018-07-11T18:12:00.779497,-3.181,-0.572,-1.227,-349.024,-365.793,-133.537,15_10_1.csv
2018-07-11T18:12:00.837151,-0.407,-0.898,0.577,-196.403,-11.098,-58.841,15_10_1.csv
2018-07-11T18:12:00.892799,-0.407,-0.898,0.577,255.305,282.805,9.451,15_10_1.csv
2018-07-11T18:12:00.947946,0.4,0.243,0.354,249.085,25.183,2.805,15_10_1.csv
2018-07-11T18:12:00.998080,-0.324,0.358,0.194,72.744,-15.732,41.707,15_10_1.csv
2018-07-11T18:12:01.046208,-0.324,0.358,0.194,-95.793,-78.049,-12.134,15_10_1.csv
2018-07-11T18:12:01.138955,-2.722,-0.715,-0.189,-116.281,-150.305,-16.829,15_10_1.csv
2018-07-11T18:12:01.196609,-2.722,-0.715,-0.189,-18.902,5.671,125.732,15_10_1.csv
2018-07-11T18:12:01.249751,0.335,-0.297,0.599,20.549,102.195,138.232,15_10_1.csv
2018-07-11T18:12:01.306903,0.318,-0.203,0.629,241.463,58.415,107.561,15_10_1.csv
2018-07-11T18:12:01.363052,0.318,-0.203,0.629,139.634,182.378,230.61,15_10_1.csv
2018-07-11T18:12:01.418701,-1.083,-0.216,-0.046,65.122,4.878,188.354,15_10_1.csv
2018-07-11T18:12:01.466829,-3.571,0.243,-1.029,43.78,-77.805,63.598,15_10_1.csv
2018-07-11T18:12:01.514960,-3.571,0.243,-1.029,-126.098,-470.793,-214.451,15_10_1.csv
2018-07-11T18:12:01.565093,-1.119,0.628,0.219,-159.939,-205.061,-366.646,15_10_1.csv
2018-07-11T18:12:01.629269,0.708,0.392,0.211,-132.866,2.683,-198.11,15_10_1.csv
2018-07-11T18:12:01.681410,0.708,0.392,0.211,61.585,12.317,-7.073,15_10_1.csv
2018-07-11T18:12:01.747589,-0.181,0.138,0.13,127.012,59.207,166.951,15_10_1.csv
2018-07-11T18:12:01.796724,-1.59,0.401,0.018,108.659,8.11,144.878,15_10_1.csv
2018-07-11T18:12:01.852874,-1.59,0.401,0.018,4.146,31.707,72.195,15_10_1.csv
2018-07-11T18:12:01.920055,-3.385,-0.059,0.317,139.512,316.829,281.402,15_10_1.csv
2018-07-11T18:12:01.982221,-0.354,0.2,0.577,-132.012,66.402,-97.988,15_10_1.csv
2018-07-11T18:12:02.044386,0.049,-0.125,0.208,-82.988,127.988,-1.037,15_10_1.csv
2018-07-11T18:12:02.096024,0.049,-0.125,0.208,-86.159,-30.427,-34.024,15_10_1.csv
2018-07-11T18:12:02.150168,-0.417,-0.16,-0.142,-180.732,-234.817,-96.89,15_10_1.csv
2018-07-11T18:12:02.197798,-2.863,-0.504,-0.63,-126.768,-203.232,-110.671,15_10_1.csv
2018-07-11T18:12:02.244924,-2.863,-0.504,-0.63,-122.378,-417.195,-75.732,15_10_1.csv
2018-07-11T18:12:02.291053,-1.546,0.017,0.741,-133.963,-67.622,-44.512,15_10_1.csv
2018-07-11T18:12:02.348205,0.18,-0.222,0.589,0.732,442.256,-152.561,15_10_1.csv
2018-07-11T18:12:02.410376,0.18,-0.222,0.589,-0.061,258.902,18.902,15_10_1.csv
2018-07-11T18:12:02.592622,-3.198,0.069,-0.38,-58.293,-314.39,37.439,15_10_1.csv
2018-07-11T18:12:02.651750,-3.198,0.069,-0.38,-318.598,-63.963,10.0,15_10_1.csv
2018-07-11T18:12:02.715927,-0.947,-0.606,0.175,-242.134,182.439,93.11,15_10_1.csv
2018-07-11T18:12:02.760548,0.482,-0.619,0.174,49.634,14.817,161.585,15_10_1.csv
2018-07-11T18:12:02.825220,-0.336,0.08,0.017,50.305,123.354,5.0,15_10_1.csv
2018-07-11T18:12:02.882372,-0.336,0.08,0.017,-58.598,-135.976,4.207,15_10_1.csv
2018-07-11T18:12:02.929498,-1.53,0.241,-0.805,-196.89,-155.183,-86.707,15_10_1.csv
2018-07-11T18:12:02.978127,-1.53,0.241,-0.805,-326.159,-70.122,-159.268,15_10_1.csv
2018-07-11T18:12:03.033274,-2.676,-1.18,-0.082,120.671,-102.256,182.805,15_10_1.csv
2018-07-11T18:12:03.086416,-0.2,-0.144,0.755,568.415,497.866,178.171,15_10_1.csv
2018-07-11T18:12:03.150086,-0.431,0.681,0.517,-102.317,287.5,0.183,15_10_1.csv
2018-07-11T18:12:03.198716,-0.431,0.681,0.517,-377.622,43.902,-117.134,15_10_1.csv
2018-07-11T18:12:03.293970,-0.207,-0.267,-0.472,-318.171,-247.683,-439.939,15_10_1.csv
2018-07-11T18:12:03.340594,-2.881,-1.195,-1.274,-183.903,-277.988,-414.39,15_10_1.csv
2018-07-11T18:12:03.383709,-2.881,-1.195,-1.274,2.866,-580.366,-238.903,15_10_1.csv
2018-07-11T18:12:03.452494,-0.959,-0.398,1.017,362.622,407.195,1.829,15_10_1.csv
2018-07-11T18:12:03.510651,0.448,0.251,0.335,-91.341,337.073,87.073,15_10_1.csv
2018-07-11T18:12:03.565800,-0.192,-0.078,-0.446,-151.159,97.988,98.659,15_10_1.csv
2018-07-11T18:12:03.665067,-0.861,-0.221,-0.403,-8.841,-268.537,-111.951,15_10_1.csv
2018-07-11T18:12:03.714197,-2.958,-0.964,-0.404,-23.293,-70.244,-72.561,15_10_1.csv
2018-07-11T18:12:03.763830,-2.958,-0.964,-0.404,78.415,74.695,108.293,15_10_1.csv
2018-07-11T18:12:03.941032,-0.146,0.428,0.979,-15.0,-239.512,-48.902,15_10_1.csv
2018-07-11T18:12:03.996179,0.007,-0.454,0.472,66.768,31.707,77.5,15_10_1.csv
2018-07-11T18:12:04.045314,-1.746,-0.206,-0.848,133.842,-31.402,111.463,15_10_1.csv
2018-07-11T18:12:04.110488,-2.974,-0.097,-0.436,73.415,-319.756,133.537,15_10_1.csv
2018-07-11T18:12:04.163634,-2.974,-0.097,-0.436,-58.415,-161.22,14.085,15_10_1.csv
2018-07-11T18:12:04.209757,0.06,0.114,0.594,-124.878,125.305,-164.634,15_10_1.csv
2018-07-11T18:12:04.258893,0.06,0.114,0.594,-206.89,92.805,-152.134,15_10_1.csv
2018-07-11T18:12:04.318050,0.534,-0.22,0.226,-42.744,-30.854,37.744,15_10_1.csv
2018-07-11T18:12:04.370194,-0.102,-0.496,-0.06,109.756,-39.939,144.451,15_10_1.csv
2018-07-11T18:12:04.430858,-0.102,-0.496,-0.06,143.537,9.939,57.317,15_10_1.csv
2018-07-11T18:12:04.478986,-3.398,0.139,-1.387,-268.781,-240.305,-87.439,15_10_1.csv
2018-07-11T18:12:04.525610,-1.563,-0.93,0.311,-164.329,28.78,-104.939,15_10_1.csv
2018-07-11T18:12:04.579754,-1.563,-0.93,0.311,157.439,364.207,44.085,15_10_1.csv
2018-07-11T18:12:04.646934,0.116,0.157,0.857,-1.524,-324.695,-19.329,15_10_1.csv
2018-07-11T18:12:04.699574,0.391,-0.15,0.377,46.89,-232.561,-55.122,15_10_1.csv
2018-07-11T18:12:04.747702,0.391,-0.15,0.377,-13.72,-64.024,90.732,15_10_1.csv
2018-07-11T18:12:04.796332,-1.475,-0.169,-0.826,44.39,308.659,14.39,15_10_1.csv
2018-07-11T18:12:04.861505,-3.38,-0.242,-1.009,-99.878,-187.805,-99.207,15_10_1.csv
2018-07-11T18:12:04.950744,-0.249,-0.354,0.737,72.866,184.207,-50.061,15_10_1.csv
2018-07-11T18:12:05.001880,0.477,-0.132,0.81,-5.305,14.878,93.293,15_10_1.csv
2018-07-11T18:12:05.055522,0.477,-0.132,0.81,27.378,-61.463,39.024,15_10_1.csv
2018-07-11T18:12:05.113177,-0.024,-0.04,0.41,210.854,11.463,62.256,15_10_1.csv
2018-07-11T18:12:05.166318,-2.678,1.351,-1.532,-225.488,88.841,160.976,15_10_1.csv
2018-07-11T18:12:05.262576,-2.076,-1.082,0.175,-704.024,-427.256,-315.0,15_10_1.csv
2018-07-11T18:12:05.307198,-2.076,-1.082,0.175,185.549,283.171,130.488,15_10_1.csv
2018-07-11T18:12:05.374881,-0.233,-0.331,0.192,-26.402,-67.927,224.939,15_10_1.csv
2018-07-11T18:12:05.431037,0.227,-0.958,-0.276,166.22,-46.707,291.768,15_10_1.csv
2018-07-11T18:12:05.484178,-0.394,-1.384,-0.86,194.939,-147.256,127.988,15_10_1.csv
2018-07-11T18:12:05.543340,-0.394,-1.384,-0.86,109.146,7.195,-93.049,15_10_1.csv
2018-07-11T18:12:05.591469,-3.881,-0.536,-1.716,153.049,293.72,-373.049,15_10_1.csv
2018-07-11T18:12:05.637596,-4.137,-0.034,-0.276,153.476,429.085,-553.293,15_10_1.csv
2018-07-11T18:12:05.681714,-4.137,-0.034,-0.276,211.403,68.171,-68.78,15_10_1.csv
2018-07-11T18:12:05.776970,0.557,0.65,-0.195,185.305,-181.463,-143.72,15_10_1.csv
2018-07-11T18:12:05.836130,0.598,1.235,-0.138,144.146,11.341,-163.049,15_10_1.csv
2018-07-11T18:12:05.891781,-0.795,1.923,-0.415,116.951,-6.402,303.11,15_10_1.csv
2018-07-11T18:12:05.945426,-0.795,1.923,-0.415,-162.561,155.366,356.463,15_10_1.csv
2018-07-11T18:12:05.996565,-4.979,0.624,-1.577,-240.244,-3.963,523.415,15_10_1.csv
2018-07-11T18:12:06.039682,-4.979,0.624,-1.577,58.354,-320.061,605.244,15_10_1.csv
2018-07-11T18:12:06.100347,-3.094,-0.403,-0.26,-307.622,75.793,157.622,15_10_1.csv
2018-07-11T18:12:06.163014,0.037,-2.142,0.197,40.854,52.134,165.122,15_10_1.csv
2018-07-11T18:12:06.229191,-0.393,-1.563,-0.062,222.073,200.61,-2.683,15_10_1.csv
2018-07-11T18:12:06.274310,-0.393,-1.563,-0.062,27.378,74.024,-189.451,15_10_1.csv
2018-07-11T18:12:06.322439,-1.498,-0.554,-0.606,16.341,123.598,-470.183,15_10_1.csv
2018-07-11T18:12:06.369063,-4.058,0.289,-1.461,53.415,62.744,-581.098,15_10_1.csv
2018-07-11T18:12:06.435240,-4.058,0.289,-1.461,-59.878,-93.049,-557.927,15_10_1.csv
2018-07-11T18:12:06.490386,-1.342,0.296,0.165,343.842,120.976,284.695,15_10_1.csv
2018-07-11T18:12:06.596700,0.524,0.786,0.47,-101.951,-80.854,-3.598,15_10_1.csv
2018-07-11T18:12:06.667392,-0.013,-0.385,0.149,55.427,-101.281,210.915,15_10_1.csv
2018-07-11T18:12:06.716024,-1.684,-0.25,-0.409,126.646,14.878,197.744,15_10_1.csv
2018-07-11T18:12:06.764656,-3.315,-0.089,-0.608,78.963,-7.073,111.951,15_10_1.csv
2018-07-11T18:12:06.830837,-3.315,-0.089,-0.608,20.793,28.841,6.646,15_10_1.csv
2018-07-11T18:12:06.901023,-0.275,0.161,0.669,-73.72,19.512,-94.329,15_10_1.csv
2018-07-11T18:12:06.946146,0.25,-0.063,0.563,-89.207,49.024,11.22,15_10_1.csv
2018-07-11T18:12:06.997798,0.25,-0.063,0.563,-10.671,18.72,39.939,15_10_1.csv
2018-07-11T18:12:07.045926,-0.497,-0.364,-0.089,85.183,-194.695,83.659,15_10_1.csv
2018-07-11T18:12:07.087538,-2.753,0.402,-0.779,-32.317,-123.537,4.817,15_10_1.csv
2018-07-11T18:12:07.177778,-1.834,-0.845,-0.025,-484.024,-58.963,-131.524,15_10_1.csv
2018-07-11T18:12:07.238440,-1.834,-0.845,-0.025,-109.512,210.61,29.451,15_10_1.csv
2018-07-11T18:12:07.298101,0.074,0.019,0.415,335.427,-156.951,-51.829,15_10_1.csv
2018-07-11T18:12:07.348235,0.511,0.063,0.767,17.378,-110.793,-16.829,15_10_1.csv
2018-07-11T18:12:07.417424,-0.596,-0.325,0.097,64.329,125.0,130.183,15_10_1.csv
2018-07-11T18:12:07.479595,-0.596,-0.325,0.097,49.329,195.61,141.402,15_10_1.csv
2018-07-11T18:12:07.525718,-3.631,0.014,-1.554,11.707,159.512,133.842,15_10_1.csv
2018-07-11T18:12:07.571341,-0.942,-0.102,0.493,-131.037,-195.671,-105.549,15_10_1.csv
2018-07-11T18:12:07.625989,-0.942,-0.102,0.493,240.427,221.951,-187.805,15_10_1.csv
2018-07-11T18:12:07.672117,0.631,0.112,0.66,91.402,99.146,-184.268,15_10_1.csv
2018-07-11T18:12:07.728268,-0.139,-0.312,0.261,74.756,44.634,130.976,15_10_1.csv
2018-07-11T18:12:07.793444,-0.139,-0.312,0.261,140.244,24.817,114.268,15_10_1.csv
2018-07-11T18:12:07.847087,-1.711,0.153,-0.56,56.829,-39.756,87.256,15_10_1.csv
2018-07-11T18:12:08.234258,-2.282,0.061,-0.475,-35.427,44.512,130.488,15_10_1.csv
2018-07-11T18:12:08.283393,-2.282,0.061,-0.475,-174.634,94.939,126.281,15_10_1.csv
2018-07-11T18:12:08.357092,-2.87,-0.324,-0.533,-430.549,-245.549,-77.439,15_10_1.csv
2018-07-11T18:12:08.400710,0.192,-0.329,0.688,302.195,317.012,60.976,15_10_1.csv
2018-07-11T18:12:08.462376,-0.042,-0.022,0.186,47.378,196.463,212.317,15_10_1.csv
2018-07-11T18:12:08.522039,-0.042,-0.022,0.186,6.768,214.512,249.695,15_10_1.csv
2018-07-11T18:12:08.572176,-0.46,-0.397,-0.033,64.451,-96.89,220.366,15_10_1.csv
2018-07-11T18:12:08.617296,-2.175,0.603,-1.023,20.671,-133.72,64.756,15_10_1.csv
2018-07-11T18:12:08.667432,-2.175,0.603,-1.023,-316.402,-292.988,-196.342,15_10_1.csv
2018-07-11T18:12:08.711552,-1.919,-0.468,-0.001,-842.439,-301.402,-579.085,15_10_1.csv
2018-07-11T18:12:08.773724,-1.298,0.197,1.52,72.439,650.122,302.012,15_10_1.csv
2018-07-11T18:12:08.823858,-1.298,0.197,1.52,-102.988,-103.659,40.854,15_10_1.csv
2018-07-11T18:12:08.872994,0.209,-0.242,0.583,211.098,-149.512,20.732,15_10_1.csv
2018-07-11T18:12:08.919117,0.209,-0.242,0.583,168.963,140.061,126.098,15_10_1.csv
2018-07-11T18:12:08.963236,-0.365,0.125,-0.055,183.049,15.122,198.903,15_10_1.csv
2018-07-11T18:12:09.019388,-1.874,1.5,-2.384,-372.744,-218.11,41.829,15_10_1.csv
2018-07-11T18:12:09.078550,-1.874,1.5,-2.384,-1030.976,-415.305,-400.976,15_10_1.csv
2018-07-11T18:12:09.132695,-0.975,-2.333,-0.476,-1102.317,-408.049,-518.598,15_10_1.csv
2018-07-11T18:12:09.180827,-0.134,-0.879,0.041,746.89,639.756,630.61,15_10_1.csv
2018-07-11T18:12:09.227953,-0.134,-0.879,0.041,749.207,464.207,465.244,15_10_1.csv
2018-07-11T18:12:09.324220,-0.633,0.752,0.345,55.427,-127.256,225.061,15_10_1.csv
2018-07-11T18:12:09.394407,-0.453,0.214,0.297,-169.817,-201.524,-207.927,15_10_1.csv
2018-07-11T18:12:09.448550,-3.205,-0.565,-0.917,-195.305,-179.695,-242.378,15_10_1.csv
2018-07-11T18:12:09.497686,-1.567,0.068,0.487,-144.695,-318.415,-163.171,15_10_1.csv
2018-07-11T18:12:09.541804,-1.567,0.068,0.487,26.707,128.842,-204.756,15_10_1.csv
2018-07-11T18:12:09.585926,0.583,0.234,0.565,183.171,327.439,-118.232,15_10_1.csv
2018-07-11T18:12:09.651099,0.583,0.234,0.565,5.122,291.22,55.183,15_10_1.csv
2018-07-11T18:12:09.707255,-0.254,0.136,-0.159,-86.707,84.878,110.854,15_10_1.csv
2018-07-11T18:12:09.781956,-0.44,-0.331,-0.447,191.951,-203.72,50.427,15_10_1.csv
2018-07-11T18:12:09.837103,-3.03,0.364,-0.069,249.634,-159.268,57.5,15_10_1.csv
2018-07-11T18:12:09.887237,-3.03,0.364,-0.069,114.146,-195.427,33.72,15_10_1.csv
2018-07-11T18:12:09.930853,-1.582,0.151,0.893,-72.134,65.854,40.854,15_10_1.csv
2018-07-11T18:12:09.994023,0.204,-0.05,0.389,-160.732,362.683,-16.22,15_10_1.csv
2018-07-11T18:12:10.058198,0.204,-0.05,0.389,-205.122,206.159,29.756,15_10_1.csv
2018-07-11T18:12:10.119363,-0.385,-0.611,0.042,39.695,-112.439,69.695,15_10_1.csv
2018-07-11T18:12:10.164488,-0.911,-0.121,-0.351,116.524,-251.768,86.159,15_10_1.csv
2018-07-11T18:12:10.211614,-0.911,-0.121,-0.351,165.671,-228.842,95.0,15_10_1.csv
2018-07-11T18:12:10.260747,-3.326,0.531,-0.346,-322.378,-261.22,-116.402,15_10_1.csv
2018-07-11T18:12:10.322915,-0.791,0.083,0.826,-146.463,182.927,-141.707,15_10_1.csv
