time,accel_x_list,accel_y_list,accel_z_list,gyro_x_list,gyro_y_list,gyro_z_list,filename
2018-07-11T18:13:25.154870,0.441,-0.588,0.167,-20.549,-21.341,9.756,15_10_3.csv
2018-07-11T18:13:25.228070,0.441,-0.588,0.167,-9.085,-12.744,15.122,15_10_3.csv
2018-07-11T18:13:25.279212,0.462,-0.732,0.004,-23.78,-14.573,11.951,15_10_3.csv
2018-07-11T18:13:25.324336,1.455,-2.381,0.061,10.671,-225.305,98.476,15_10_3.csv
2018-07-11T18:13:25.376980,1.455,-2.381,0.061,111.89,-111.159,-32.195,15_10_3.csv
2018-07-11T18:13:25.438649,0.932,-0.904,0.156,78.476,3.841,-57.744,15_10_3.csv
2018-07-11T18:13:25.512852,-0.387,0.509,-0.097,-1.768,158.476,10.488,15_10_3.csv
2018-07-11T18:13:25.568003,-0.142,-0.006,-0.028,-10.854,-86.707,-26.524,15_10_3.csv
2018-07-11T18:13:25.625661,-0.142,-0.006,-0.028,14.146,-78.659,-28.049,15_10_3.csv
2018-07-11T18:13:25.709389,0.669,-0.917,0.19,-9.573,-199.878,19.573,15_10_3.csv
2018-07-11T18:13:25.779581,2.212,-2.961,0.004,21.585,36.951,-11.402,15_10_3.csv
2018-07-11T18:13:25.823702,0.204,-0.001,-0.058,65.976,96.037,-9.695,15_10_3.csv
2018-07-11T18:13:25.912946,-0.577,0.741,-0.05,-48.293,62.683,42.744,15_10_3.csv
2018-07-11T18:13:25.989155,0.241,-0.625,0.191,18.293,6.707,-27.073,15_10_3.csv
2018-07-11T18:13:26.059848,1.991,-2.663,-0.139,-102.012,-224.817,-8.963,15_10_3.csv
2018-07-11T18:13:26.105473,1.991,-2.663,-0.139,-80.854,-140.915,-25.183,15_10_3.csv
2018-07-11T18:13:26.155108,1.317,-1.428,-0.179,65.976,20.0,-7.866,15_10_3.csv
2018-07-11T18:13:26.225301,-0.646,1.151,-0.031,-33.293,315.549,108.781,15_10_3.csv
2018-07-11T18:13:26.296997,-0.137,-0.291,-0.13,-19.695,-133.781,-54.939,15_10_3.csv
2018-07-11T18:13:26.347134,-0.137,-0.291,-0.13,37.439,-28.11,-39.939,15_10_3.csv
2018-07-11T18:13:26.408301,0.763,-1.144,-0.021,-102.012,-191.037,-28.354,15_10_3.csv
2018-07-11T18:13:26.453926,2.368,-2.645,-0.787,-104.207,-227.439,-101.281,15_10_3.csv
2018-07-11T18:13:26.500052,2.368,-2.645,-0.787,53.293,21.098,-31.646,15_10_3.csv
2018-07-11T18:13:26.546178,0.238,0.002,-0.014,38.78,104.939,-2.195,15_10_3.csv
2018-07-11T18:13:26.605340,0.238,0.002,-0.014,-57.622,230.183,37.073,15_10_3.csv
2018-07-11T18:13:26.665003,-0.633,0.561,0.034,-26.829,-43.902,8.659,15_10_3.csv
2018-07-11T18:13:26.714137,0.123,-0.496,0.031,39.817,-67.073,-47.256,15_10_3.csv
2018-07-11T18:13:26.761266,0.123,-0.496,0.031,44.146,-78.171,-60.122,15_10_3.csv
2018-07-11T18:13:26.809903,2.277,-2.446,-1.166,40.183,-250.244,-122.317,15_10_3.csv
2018-07-11T18:13:26.855025,1.39,-1.15,-0.604,174.634,46.951,-50.732,15_10_3.csv
2018-07-11T18:13:26.913189,1.39,-1.15,-0.604,55.793,192.256,2.256,15_10_3.csv
2018-07-11T18:13:27.239398,2.364,-2.461,-1.056,92.195,57.073,-36.463,15_10_3.csv
2018-07-11T18:13:27.294554,-0.131,0.489,-0.001,-47.927,347.5,129.329,15_10_3.csv
2018-07-11T18:13:27.342686,-0.67,0.42,-0.062,-87.012,57.012,62.988,15_10_3.csv
2018-07-11T18:13:27.392828,-0.67,0.42,-0.062,-28.11,-95.488,-27.378,15_10_3.csv
2018-07-11T18:13:27.437951,0.377,-0.673,-0.047,66.463,-93.476,-68.72,15_10_3.csv
2018-07-11T18:13:27.492104,2.404,-2.43,-1.075,-126.524,-267.5,11.28,15_10_3.csv
2018-07-11T18:13:27.558283,2.404,-2.43,-1.075,-23.902,-35.305,-44.207,15_10_3.csv
2018-07-11T18:13:27.622463,1.072,-0.89,-0.371,45.915,186.951,-5.915,15_10_3.csv
2018-07-11T18:13:27.672600,-0.766,0.968,0.028,-60.0,350.366,122.927,15_10_3.csv
2018-07-11T18:13:27.747811,-0.173,-0.332,-0.001,-24.39,-81.159,-21.037,15_10_3.csv
2018-07-11T18:13:27.791935,-0.173,-0.332,-0.001,40.671,-17.073,-18.841,15_10_3.csv
2018-07-11T18:13:27.891212,1.311,-1.232,-0.505,-126.707,-306.524,-40.671,15_10_3.csv
2018-07-11T18:13:27.964412,2.186,-2.353,-1.077,82.988,15.549,-50.854,15_10_3.csv
2018-07-11T18:13:28.014051,0.055,0.299,0.06,-28.598,310.976,131.463,15_10_3.csv
2018-07-11T18:13:28.076722,-0.663,0.599,-0.011,-63.476,111.402,100.488,15_10_3.csv
2018-07-11T18:13:28.142402,0.345,-0.684,-0.029,10.122,-58.232,-36.829,15_10_3.csv
2018-07-11T18:13:28.208582,0.345,-0.684,-0.029,36.829,-45.976,-24.939,15_10_3.csv
2018-07-11T18:13:28.262730,2.253,-2.184,-1.005,-81.037,-86.402,-137.805,15_10_3.csv
2018-07-11T18:13:28.309860,1.195,-0.69,-0.542,68.049,29.39,-45.549,15_10_3.csv
2018-07-11T18:13:28.377043,-0.104,-0.294,-0.073,-71.22,166.951,59.146,15_10_3.csv
2018-07-11T18:13:28.495870,-0.104,-0.294,-0.073,-3.78,-18.232,18.598,15_10_3.csv
2018-07-11T18:13:28.556039,1.263,-1.065,-0.405,68.354,-69.817,-68.354,15_10_3.csv
2018-07-11T18:13:28.611190,1.263,-1.065,-0.405,-32.134,-223.171,0.732,15_10_3.csv
2018-07-11T18:13:28.673365,2.329,-1.902,-1.146,30.122,89.817,2.256,15_10_3.csv
2018-07-11T18:13:28.729518,-0.135,0.174,-0.023,4.024,140.305,69.695,15_10_3.csv
2018-07-11T18:13:28.780159,-0.633,0.467,0.099,-29.878,29.268,22.866,15_10_3.csv
2018-07-11T18:13:28.825283,-0.633,0.467,0.099,-12.866,-106.402,-67.439,15_10_3.csv
2018-07-11T18:13:28.900488,0.354,-0.468,-0.088,34.451,-103.72,-29.329,15_10_3.csv
2018-07-11T18:13:28.966669,2.576,-2.052,-1.433,-96.037,-256.22,-45.915,15_10_3.csv
2018-07-11T18:13:29.013297,2.576,-2.052,-1.433,-70.366,25.793,-17.439,15_10_3.csv
2018-07-11T18:13:29.057919,1.009,-1.054,-0.604,63.049,105.366,57.744,15_10_3.csv
2018-07-11T18:13:29.107557,-0.626,0.815,0.274,-5.549,202.256,125.183,15_10_3.csv
2018-07-11T18:13:29.152681,-0.626,0.815,0.274,-40.0,153.293,117.805,15_10_3.csv
2018-07-11T18:13:29.214855,-0.139,-0.029,-0.041,20.793,-110.793,-88.476,15_10_3.csv
2018-07-11T18:13:29.274020,1.228,-1.069,-0.514,1.098,-42.683,-27.805,15_10_3.csv
2018-07-11T18:13:29.332182,1.228,-1.069,-0.514,-41.768,-131.585,-47.256,15_10_3.csv
2018-07-11T18:13:29.392352,2.313,-2.164,-1.376,78.659,42.012,13.415,15_10_3.csv
2018-07-11T18:13:29.456528,0.215,0.266,-0.065,30.061,65.244,85.183,15_10_3.csv
2018-07-11T18:13:29.503661,-0.795,0.659,0.081,-57.012,183.598,146.951,15_10_3.csv
2018-07-11T18:13:29.565831,-0.795,0.659,0.081,-13.963,-119.817,-67.134,15_10_3.csv
2018-07-11T18:13:29.628007,0.222,-0.76,-0.129,55.793,-23.598,-33.232,15_10_3.csv
2018-07-11T18:13:29.690182,2.406,-1.938,-1.146,-46.463,-232.988,-149.085,15_10_3.csv
2018-07-11T18:13:29.730291,2.406,-1.938,-1.146,-76.524,-85.549,-163.049,15_10_3.csv
2018-07-11T18:13:29.827561,-0.932,1.119,0.377,-31.585,327.073,225.0,15_10_3.csv
2018-07-11T18:13:29.888734,-0.932,1.119,0.377,-96.28,30.122,51.037,15_10_3.csv
2018-07-11T18:13:29.940876,-0.102,-0.128,-0.249,-47.866,-160.0,-92.073,15_10_3.csv
2018-07-11T18:13:29.991020,1.228,-1.673,-0.902,36.098,-21.89,-34.329,15_10_3.csv
2018-07-11T18:13:30.043162,1.228,-1.673,-0.902,60.244,-166.037,-113.415,15_10_3.csv
2018-07-11T18:13:30.089294,2.367,-2.071,-1.255,88.963,-103.537,-123.537,15_10_3.csv
2018-07-11T18:13:30.138428,2.367,-2.071,-1.255,109.878,51.585,-15.061,15_10_3.csv
2018-07-11T18:13:30.185559,0.053,0.294,0.039,-4.756,276.402,148.232,15_10_3.csv
2018-07-11T18:13:30.275808,-0.705,0.712,0.138,-3.171,-161.159,-78.415,15_10_3.csv
2018-07-11T18:13:30.336978,0.172,-0.646,-0.014,5.488,-67.561,-43.537,15_10_3.csv
2018-07-11T18:13:30.391128,1.274,-1.302,-0.578,29.329,-142.012,-26.28,15_10_3.csv
2018-07-11T18:13:30.438257,1.274,-1.302,-0.578,-81.707,-257.988,-57.073,15_10_3.csv
2018-07-11T18:13:30.481380,2.176,-2.357,-1.119,-25.183,55.793,9.085,15_10_3.csv
2018-07-11T18:13:30.530514,2.176,-2.357,-1.119,86.159,23.232,-27.561,15_10_3.csv
2018-07-11T18:13:30.593696,-0.068,0.508,0.068,-47.439,353.232,193.781,15_10_3.csv
2018-07-11T18:13:30.672914,-0.76,0.629,0.019,-17.622,-169.634,-117.134,15_10_3.csv
2018-07-11T18:13:30.731575,0.244,-0.724,-0.073,38.659,-78.049,-84.573,15_10_3.csv
2018-07-11T18:13:30.788229,0.244,-0.724,-0.073,36.037,-8.902,-21.524,15_10_3.csv
2018-07-11T18:13:30.840874,1.883,-1.733,-0.875,-68.72,-164.756,-136.098,15_10_3.csv
2018-07-11T18:13:30.898531,1.893,-1.767,-0.807,36.159,16.22,-21.89,15_10_3.csv
2018-07-11T18:13:30.950676,-0.406,0.75,0.193,-7.744,162.317,113.902,15_10_3.csv
2018-07-11T18:13:30.997805,-0.406,0.75,0.193,-72.927,288.11,166.098,15_10_3.csv
2018-07-11T18:13:31.076023,-0.453,0.343,-0.036,-27.927,-165.976,-80.488,15_10_3.csv
2018-07-11T18:13:31.122149,0.281,-0.834,-0.129,16.341,-10.0,-36.646,15_10_3.csv
2018-07-11T18:13:31.241075,2.606,-1.673,-1.398,-74.146,-60.0,-189.085,15_10_3.csv
2018-07-11T18:13:31.306253,1.446,-0.876,-0.779,58.659,64.756,30.854,15_10_3.csv
2018-07-11T18:13:31.356394,-0.779,0.63,0.329,-41.037,233.293,117.988,15_10_3.csv
2018-07-11T18:13:31.401518,-0.779,0.63,0.329,-36.89,36.768,51.463,15_10_3.csv
2018-07-11T18:13:31.451659,-0.139,-0.056,-0.138,-46.28,-84.085,-12.012,15_10_3.csv
2018-07-11T18:13:31.530878,1.041,-0.994,-0.705,30.793,-70.549,-20.732,15_10_3.csv
2018-07-11T18:13:31.594552,2.367,-2.032,-1.424,28.049,-71.646,-22.866,15_10_3.csv
2018-07-11T18:13:31.645191,2.367,-2.032,-1.424,30.061,30.061,-62.256,15_10_3.csv
2018-07-11T18:13:31.705356,0.322,-0.08,-0.059,40.061,141.585,7.134,15_10_3.csv
2018-07-11T18:13:31.748974,0.322,-0.08,-0.059,4.39,309.878,147.988,15_10_3.csv
2018-07-11T18:13:31.795602,-0.927,0.752,0.278,-44.817,-134.268,-47.866,15_10_3.csv
2018-07-11T18:13:31.847243,0.345,-0.435,-0.39,-8.354,-115.793,-48.598,15_10_3.csv
2018-07-11T18:13:31.920444,1.842,-1.502,-1.101,16.829,-13.476,-37.683,15_10_3.csv
2018-07-11T18:13:31.978101,1.842,-1.502,-1.101,-46.037,-146.463,-162.927,15_10_3.csv
2018-07-11T18:13:32.030244,1.969,-1.387,-1.015,32.195,4.756,-26.037,15_10_3.csv
2018-07-11T18:13:32.079879,-0.605,0.655,0.17,28.841,234.329,133.902,15_10_3.csv
2018-07-11T18:13:32.127510,-0.605,0.655,0.17,-25.793,135.915,70.366,15_10_3.csv
2018-07-11T18:13:32.168622,-0.304,0.11,0.023,-59.573,-78.963,-24.146,15_10_3.csv
2018-07-11T18:13:32.241823,0.439,-0.504,-0.11,18.354,-62.439,-35.61,15_10_3.csv
2018-07-11T18:13:32.298478,0.439,-0.504,-0.11,8.841,-36.707,-40.183,15_10_3.csv
2018-07-11T18:13:32.341596,2.855,-1.694,-1.625,-128.781,-221.098,-195.793,15_10_3.csv
2018-07-11T18:13:32.387220,2.855,-1.694,-1.625,-15.244,15.549,-27.805,15_10_3.csv
2018-07-11T18:13:32.436355,0.961,-0.363,-0.471,79.207,66.098,47.378,15_10_3.csv
2018-07-11T18:13:32.481478,-0.798,0.568,0.261,-76.463,182.134,116.707,15_10_3.csv
2018-07-11T18:13:32.676016,1.383,-1.039,-0.659,34.817,-67.805,-42.927,15_10_3.csv
2018-07-11T18:13:32.745709,2.537,-2.036,-1.505,64.939,-39.085,-76.89,15_10_3.csv
2018-07-11T18:13:32.810888,-0.01,0.309,0.059,100.793,114.695,14.695,15_10_3.csv
2018-07-11T18:13:32.856011,-0.01,0.309,0.059,-4.451,267.317,112.378,15_10_3.csv
2018-07-11T18:13:32.903140,-0.636,0.741,0.131,-44.878,78.476,91.098,15_10_3.csv
2018-07-11T18:13:32.954784,-0.636,0.741,0.131,-64.268,-84.878,-1.646,15_10_3.csv
2018-07-11T18:13:33.028989,0.09,-0.533,-0.055,30.244,-43.963,-54.756,15_10_3.csv
2018-07-11T18:13:33.099180,1.914,-1.308,-0.755,-56.646,-250.0,-220.305,15_10_3.csv
2018-07-11T18:13:33.171378,2.411,-1.442,-1.186,69.573,121.281,106.402,15_10_3.csv
2018-07-11T18:13:33.230540,-0.461,0.652,0.273,19.756,227.622,142.256,15_10_3.csv
2018-07-11T18:13:33.279674,-0.461,0.652,0.273,-56.341,221.098,138.354,15_10_3.csv
2018-07-11T18:13:33.345858,-0.672,0.392,0.133,-62.256,-87.256,-20.671,15_10_3.csv
2018-07-11T18:13:33.403014,0.407,-0.438,-0.179,16.402,-134.024,-80.854,15_10_3.csv
2018-07-11T18:13:33.476825,2.746,-2.189,-1.596,-74.451,-203.842,-172.683,15_10_3.csv
2018-07-11T18:13:33.528972,1.525,-0.868,-0.636,99.573,4.329,-5.061,15_10_3.csv
2018-07-11T18:13:33.579110,1.525,-0.868,-0.636,93.902,137.073,95.549,15_10_3.csv
2018-07-11T18:13:33.627245,-0.893,1.157,0.327,3.415,305.244,180.976,15_10_3.csv
2018-07-11T18:13:33.669361,-0.893,1.157,0.327,-93.11,118.293,106.707,15_10_3.csv
2018-07-11T18:13:33.734543,-0.412,-0.142,0.032,-10.976,-83.902,-45.122,15_10_3.csv
2018-07-11T18:13:33.792702,1.17,-0.804,-0.581,25.915,-117.073,-80.671,15_10_3.csv
2018-07-11T18:13:33.839836,1.17,-0.804,-0.581,-31.22,-189.939,-146.098,15_10_3.csv
2018-07-11T18:13:33.920057,2.743,-2.173,-1.545,107.195,30.732,-2.561,15_10_3.csv
2018-07-11T18:13:33.967188,0.721,-0.314,-0.187,64.695,230.305,99.634,15_10_3.csv
2018-07-11T18:13:34.013820,-1.021,1.047,0.353,-17.134,300.366,164.756,15_10_3.csv
2018-07-11T18:13:34.077496,-1.021,1.047,0.353,-58.537,-91.22,8.598,15_10_3.csv
2018-07-11T18:13:34.127637,-0.036,-0.158,-0.075,-14.634,-165.427,-55.488,15_10_3.csv
2018-07-11T18:13:34.189807,1.821,-1.354,-1.068,-34.085,-180.122,-74.756,15_10_3.csv
2018-07-11T18:13:34.246967,2.205,-1.92,-1.215,62.622,38.415,16.585,15_10_3.csv
2018-07-11T18:13:34.299110,2.205,-1.92,-1.215,95.854,35.732,3.72,15_10_3.csv
2018-07-11T18:13:34.341229,-0.204,0.361,0.111,39.512,147.073,51.463,15_10_3.csv
2018-07-11T18:13:34.413930,-0.619,0.637,0.167,-26.707,25.793,26.463,15_10_3.csv
2018-07-11T18:13:34.492647,0.222,-0.597,-0.102,-7.866,-47.561,-30.793,15_10_3.csv
2018-07-11T18:13:34.543792,0.222,-0.597,-0.102,18.537,-106.098,-46.89,15_10_3.csv
2018-07-11T18:13:34.636049,2.369,-2.238,-1.232,21.037,-126.281,-8.659,15_10_3.csv
2018-07-11T18:13:34.684181,1.727,-1.127,-0.763,47.378,67.805,-35.915,15_10_3.csv
2018-07-11T18:13:34.731314,-0.88,0.773,0.359,-17.805,258.049,71.768,15_10_3.csv
2018-07-11T18:13:34.788470,-0.88,0.773,0.359,-22.317,60.671,20.976,15_10_3.csv
2018-07-11T18:13:34.852649,-0.214,0.004,-0.054,-46.098,-1.829,8.963,15_10_3.csv
2018-07-11T18:13:34.907800,0.502,-0.701,-0.227,26.037,-68.598,-32.073,15_10_3.csv
2018-07-11T18:13:34.952422,0.502,-0.701,-0.227,-16.159,-123.354,-49.207,15_10_3.csv
2018-07-11T18:13:34.998980,2.479,-1.975,-1.456,-82.988,-180.549,46.098,15_10_3.csv
2018-07-11T18:13:35.042098,2.479,-1.975,-1.456,19.268,4.756,8.841,15_10_3.csv
2018-07-11T18:13:35.106278,0.883,-0.688,-0.325,-14.878,180.732,49.878,15_10_3.csv
2018-07-11T18:13:35.157418,-0.794,0.715,0.24,-37.744,196.463,63.232,15_10_3.csv
2018-07-11T18:13:35.215583,0.019,-0.324,-0.074,-34.573,-17.073,23.476,15_10_3.csv
2018-07-11T18:13:35.427169,2.144,-1.968,-1.3,18.902,23.415,-19.207,15_10_3.csv
2018-07-11T18:13:35.482319,-0.226,0.302,0.265,-17.744,127.744,23.11,15_10_3.csv
2018-07-11T18:13:35.527447,-0.226,0.302,0.265,-83.415,175.854,65.061,15_10_3.csv
2018-07-11T18:13:35.584604,-0.271,0.437,0.064,-51.098,-11.159,3.902,15_10_3.csv
2018-07-11T18:13:35.650790,0.297,-0.603,-0.206,-10.488,-16.646,6.768,15_10_3.csv
2018-07-11T18:13:35.715974,2.165,-2.025,-1.5,26.646,-151.89,-19.695,15_10_3.csv
2018-07-11T18:13:35.780739,1.268,-0.751,-0.532,66.341,6.951,-64.451,15_10_3.csv
2018-07-11T18:13:35.827436,1.268,-0.751,-0.532,24.939,118.11,-6.402,15_10_3.csv
2018-07-11T18:13:35.882586,-0.646,0.619,0.392,-34.878,210.183,55.122,15_10_3.csv
2018-07-11T18:13:35.933731,-0.646,0.619,0.392,-10.122,-40.732,-12.988,15_10_3.csv
2018-07-11T18:13:35.980860,-0.024,0.043,-0.057,-25.915,-8.72,26.463,15_10_3.csv
2018-07-11T18:13:36.031914,0.995,-1.146,-0.507,33.72,-36.341,-1.037,15_10_3.csv
2018-07-11T18:13:36.077036,0.995,-1.146,-0.507,8.72,-169.146,-2.988,15_10_3.csv
2018-07-11T18:13:36.143223,2.353,-2.097,-1.321,75.122,-20.122,-62.561,15_10_3.csv
2018-07-11T18:13:36.195869,0.344,0.128,-0.003,23.598,48.902,-13.963,15_10_3.csv
2018-07-11T18:13:36.248516,0.344,0.128,-0.003,-37.256,252.988,97.317,15_10_3.csv
2018-07-11T18:13:36.293642,-0.769,0.46,0.068,-22.134,142.378,57.195,15_10_3.csv
2018-07-11T18:13:36.341273,0.036,-0.438,-0.004,-7.622,-25.061,-4.878,15_10_3.csv
2018-07-11T18:13:36.386898,0.036,-0.438,-0.004,33.476,-71.646,-20.366,15_10_3.csv
2018-07-11T18:13:36.450070,2.134,-1.701,-1.227,0.183,-218.049,-67.683,15_10_3.csv
2018-07-11T18:13:36.511238,2.054,-1.171,-0.989,95.061,-10.549,-31.28,15_10_3.csv
2018-07-11T18:13:36.637585,-0.578,0.698,0.372,-77.744,177.988,131.037,15_10_3.csv
2018-07-11T18:13:36.682709,-0.371,0.007,0.003,-71.829,-68.72,4.634,15_10_3.csv
2018-07-11T18:13:36.732848,-0.371,0.007,0.003,-15.244,-34.085,-17.683,15_10_3.csv
2018-07-11T18:13:36.778977,0.385,-0.577,-0.312,-2.927,-93.049,-63.659,15_10_3.csv
2018-07-11T18:13:36.841151,2.744,-1.923,-1.729,-36.22,-202.378,-157.683,15_10_3.csv
2018-07-11T18:13:36.920872,0.979,-0.558,-0.422,70.61,100.305,53.963,15_10_3.csv
2018-07-11T18:13:36.969508,0.979,-0.558,-0.422,-4.573,186.646,134.146,15_10_3.csv
2018-07-11T18:13:37.012625,-0.985,0.853,0.256,-53.232,303.72,203.476,15_10_3.csv
2018-07-11T18:13:37.059759,-0.985,0.853,0.256,-75.122,23.963,54.329,15_10_3.csv
2018-07-11T18:13:37.107891,-0.071,-0.222,-0.066,-0.305,-50.549,-46.098,15_10_3.csv
2018-07-11T18:13:37.176083,1.163,-1.015,-0.548,4.695,-35.976,-46.463,15_10_3.csv
2018-07-11T18:13:37.251294,2.611,-2.149,-1.554,0.549,-58.293,-65.549,15_10_3.csv
2018-07-11T18:13:37.308450,0.415,-0.024,-0.04,68.72,46.646,39.878,15_10_3.csv
2018-07-11T18:13:37.357590,0.415,-0.024,-0.04,-10.366,220.061,157.195,15_10_3.csv
2018-07-11T18:13:37.405722,-0.882,0.883,0.169,-86.89,232.073,198.049,15_10_3.csv
2018-07-11T18:13:37.450347,-0.882,0.883,0.169,-74.207,-103.354,-43.354,15_10_3.csv
2018-07-11T18:13:37.510012,0.082,-0.523,-0.097,-1.098,-5.305,-24.756,15_10_3.csv
2018-07-11T18:13:37.570179,1.445,-1.378,-0.943,16.585,-96.098,-79.39,15_10_3.csv
2018-07-11T18:13:37.627338,2.125,-2.075,-1.268,50.366,59.207,69.207,15_10_3.csv
2018-07-11T18:13:37.668954,2.125,-2.075,-1.268,60.549,75.61,9.329,15_10_3.csv
2018-07-11T18:13:37.733152,0.054,0.126,0.175,37.805,73.293,23.72,15_10_3.csv
2018-07-11T18:13:37.777778,0.054,0.126,0.175,-4.329,212.195,175.305,15_10_3.csv
2018-07-11T18:13:37.837943,-0.756,0.877,0.147,-62.866,-115.488,-74.207,15_10_3.csv
2018-07-11T18:13:37.901121,0.146,-0.649,-0.174,-12.256,-135.549,-98.902,15_10_3.csv
2018-07-11T18:13:38.007417,1.587,-1.489,-0.961,-53.415,-76.524,-35.488,15_10_3.csv
2018-07-11T18:13:38.059559,1.85,-2.165,-1.171,31.646,24.329,0.0,15_10_3.csv
2018-07-11T18:13:38.107696,-0.085,0.59,0.127,61.098,88.049,67.134,15_10_3.csv
2018-07-11T18:13:38.152819,-0.085,0.59,0.127,-45.549,309.451,239.939,15_10_3.csv
2018-07-11T18:13:38.211986,-0.789,0.45,0.094,-78.171,141.646,119.268,15_10_3.csv
2018-07-11T18:13:38.272654,0.256,-0.412,-0.143,4.024,-131.159,-112.256,15_10_3.csv
2018-07-11T18:13:38.335328,0.256,-0.412,-0.143,7.988,-107.866,-80.854,15_10_3.csv
2018-07-11T18:13:38.386472,2.14,-2.353,-1.327,-26.524,-168.415,-116.89,15_10_3.csv
2018-07-11T18:13:38.434604,1.491,-1.601,-0.898,99.268,-14.939,-57.439,15_10_3.csv
2018-07-11T18:13:38.480734,1.491,-1.601,-0.898,66.89,18.841,-28.171,15_10_3.csv
2018-07-11T18:13:38.547918,-0.346,1.094,0.391,-18.354,197.439,75.549,15_10_3.csv
2018-07-11T18:13:38.614103,-0.44,0.347,0.159,-49.085,-72.744,13.415,15_10_3.csv
2018-07-11T18:13:38.688810,0.114,-0.913,-0.563,-38.354,-27.988,-2.256,15_10_3.csv
2018-07-11T18:13:38.751983,2.266,-2.641,-1.964,-46.646,-265.0,-108.902,15_10_3.csv
2018-07-11T18:13:38.802122,2.266,-2.641,-1.964,94.939,-59.939,-108.598,15_10_3.csv
2018-07-11T18:13:38.857271,1.124,-0.675,-0.54,158.476,57.439,-82.927,15_10_3.csv
2018-07-11T18:13:38.903898,1.124,-0.675,-0.54,19.878,160.854,46.341,15_10_3.csv
2018-07-11T18:13:38.951029,-0.943,1.042,0.334,-114.39,224.878,148.354,15_10_3.csv
2018-07-11T18:13:38.998159,-0.289,-0.187,-0.097,-13.902,-149.817,-88.049,15_10_3.csv
2018-07-11T18:13:39.056320,-0.289,-0.187,-0.097,17.134,-200.061,-165.976,15_10_3.csv
2018-07-11T18:13:39.111470,0.816,-0.425,-0.479,20.61,-157.683,-87.683,15_10_3.csv
2018-07-11T18:13:39.174647,2.568,-2.411,-1.618,60.671,-104.573,-126.342,15_10_3.csv
2018-07-11T18:13:39.230801,1.182,-0.821,-0.524,79.024,7.561,-27.439,15_10_3.csv
2018-07-11T18:13:39.278936,1.182,-0.821,-0.524,30.366,70.244,53.232,15_10_3.csv
2018-07-11T18:13:39.458612,-0.437,-0.31,-0.109,18.72,-81.646,-2.927,15_10_3.csv
2018-07-11T18:13:39.531812,0.289,-0.93,-0.505,-39.817,-268.354,-93.902,15_10_3.csv
2018-07-11T18:13:39.582957,2.455,-2.738,-1.537,19.451,-212.561,-155.244,15_10_3.csv
2018-07-11T18:13:39.646133,0.714,-0.508,-0.176,33.841,58.537,-112.012,15_10_3.csv
2018-07-11T18:13:39.699280,0.714,-0.508,-0.176,-37.073,245.061,4.085,15_10_3.csv
2018-07-11T18:13:39.749422,-1.014,1.015,0.328,-74.939,373.171,72.744,15_10_3.csv
2018-07-11T18:13:39.794549,0.185,-0.248,-0.229,-30.915,-229.817,-73.293,15_10_3.csv
2018-07-11T18:13:39.856721,0.185,-0.248,-0.229,-17.866,-62.012,-66.768,15_10_3.csv
2018-07-11T18:13:39.917888,1.227,-1.018,-0.541,3.354,-190.915,-128.537,15_10_3.csv
2018-07-11T18:13:39.971039,2.672,-1.697,-1.438,22.744,-97.256,-114.817,15_10_3.csv
2018-07-11T18:13:40.032206,2.672,-1.697,-1.438,24.817,31.951,-9.085,15_10_3.csv
2018-07-11T18:13:40.076331,0.507,-0.096,-0.152,-7.683,207.927,123.232,15_10_3.csv
2018-07-11T18:13:40.121455,-0.708,0.869,0.201,-54.329,176.22,82.317,15_10_3.csv
2018-07-11T18:13:40.178616,-0.708,0.869,0.201,-39.268,-97.195,44.39,15_10_3.csv
2018-07-11T18:13:40.257333,-0.047,-0.429,0.005,20.488,16.159,39.024,15_10_3.csv
2018-07-11T18:13:40.308975,1.408,-1.418,-1.004,-18.78,-111.098,-30.549,15_10_3.csv
2018-07-11T18:13:40.356106,1.408,-1.418,-1.004,-17.073,-335.244,-124.878,15_10_3.csv
2018-07-11T18:13:40.404237,2.276,-1.981,-1.387,93.232,80.061,23.354,15_10_3.csv
2018-07-11T18:13:40.451871,-0.117,0.041,0.184,49.329,126.646,45.061,15_10_3.csv
2018-07-11T18:13:40.512035,-0.117,0.041,0.184,-51.037,402.683,98.598,15_10_3.csv
2018-07-11T18:13:40.565181,-1.017,0.915,-0.003,-47.256,-277.378,-88.72,15_10_3.csv
2018-07-11T18:13:40.624343,0.535,-0.256,-0.183,-31.098,-263.049,-81.707,15_10_3.csv
2018-07-11T18:13:40.673978,0.535,-0.256,-0.183,-15.427,-27.683,-34.817,15_10_3.csv
2018-07-11T18:13:40.814362,1.989,-1.786,-1.165,111.098,28.78,4.329,15_10_3.csv
2018-07-11T18:13:40.860990,-0.22,0.669,0.192,11.22,142.317,65.671,15_10_3.csv
2018-07-11T18:13:40.929677,-0.548,0.695,0.095,-50.488,19.329,56.037,15_10_3.csv
2018-07-11T18:13:40.990845,-0.548,0.695,0.095,-47.012,-137.195,11.524,15_10_3.csv
2018-07-11T18:13:41.044993,0.165,-0.891,-0.148,3.171,10.488,-35.0,15_10_3.csv
2018-07-11T18:13:41.097137,2.239,-2.184,-1.383,-48.72,-236.463,-129.512,15_10_3.csv
2018-07-11T18:13:41.143262,2.239,-2.184,-1.383,4.268,-90.305,-78.232,15_10_3.csv
2018-07-11T18:13:41.192898,1.458,-1.131,-0.75,114.329,53.171,-2.683,15_10_3.csv
2018-07-11T18:13:41.271111,-0.827,0.893,0.35,-33.841,291.951,92.622,15_10_3.csv
2018-07-11T18:13:41.343810,-0.281,0.139,0.002,-65.671,-127.866,-31.524,15_10_3.csv
2018-07-11T18:13:41.407487,1.118,-1.15,-0.548,-4.512,-114.451,-52.561,15_10_3.csv
2018-07-11T18:13:41.466648,1.118,-1.15,-0.548,-61.159,-206.037,-157.744,15_10_3.csv
2018-07-11T18:13:41.514785,2.466,-2.049,-1.555,21.159,-80.671,-60.122,15_10_3.csv
2018-07-11T18:13:41.565926,0.601,-0.349,-0.239,70.854,61.707,35.305,15_10_3.csv
2018-07-11T18:13:41.647152,-0.786,0.858,0.215,-25.061,295.793,133.354,15_10_3.csv
2018-07-11T18:13:41.713338,-0.786,0.858,0.215,-42.439,-24.695,-1.829,15_10_3.csv
2018-07-11T18:13:41.762473,-0.068,-0.106,-0.002,-39.329,-91.768,-28.963,15_10_3.csv
2018-07-11T18:13:41.809103,1.623,-1.806,-1.041,-41.159,-133.476,-98.72,15_10_3.csv
2018-07-11T18:13:41.857736,1.623,-1.806,-1.041,-73.72,-168.72,-122.744,15_10_3.csv
2018-07-11T18:13:41.902859,2.145,-1.938,-1.283,104.817,19.573,-1.829,15_10_3.csv
2018-07-11T18:13:41.986589,-0.12,0.513,0.166,82.378,117.317,52.012,15_10_3.csv
2018-07-11T18:13:42.092378,-0.631,0.656,0.151,-83.232,-67.866,-44.146,15_10_3.csv
2018-07-11T18:13:42.160564,0.178,-0.469,-0.142,-23.171,-44.939,-40.305,15_10_3.csv
2018-07-11T18:13:42.221731,2.229,-1.94,-1.176,-62.378,-153.963,-137.256,15_10_3.csv
2018-07-11T18:13:42.265852,2.229,-1.94,-1.176,-11.951,-110.61,-151.22,15_10_3.csv
2018-07-11T18:13:42.309973,1.844,-1.299,-0.921,93.354,-27.256,6.768,15_10_3.csv
2018-07-11T18:13:42.373146,-0.529,0.748,0.19,30.427,208.476,155.915,15_10_3.csv
2018-07-11T18:13:42.457376,-0.4,0.208,-0.026,-78.659,-43.476,-17.134,15_10_3.csv
2018-07-11T18:13:42.513530,-0.4,0.208,-0.026,-49.817,-56.463,-46.951,15_10_3.csv
2018-07-11T18:13:42.562664,0.345,-0.669,-0.159,-0.671,-17.561,-18.11,15_10_3.csv
2018-07-11T18:13:42.609292,2.606,-2.22,-1.406,-110.061,-225.854,-224.939,15_10_3.csv
2018-07-11T18:13:42.653916,2.606,-2.22,-1.406,72.683,-38.049,-40.549,15_10_3.csv
2018-07-11T18:13:42.716086,1.053,-0.664,-0.468,67.439,2.561,25.366,15_10_3.csv
2018-07-11T18:13:42.776255,-0.664,0.814,0.169,1.402,217.622,154.573,15_10_3.csv
2018-07-11T18:13:42.840935,-0.664,0.814,0.169,-29.695,5.732,72.561,15_10_3.csv
2018-07-11T18:13:42.888062,-0.083,-0.194,-0.075,-76.463,-47.988,-11.707,15_10_3.csv
2018-07-11T18:13:42.935693,0.937,-1.103,-0.486,25.671,-17.134,-22.805,15_10_3.csv
2018-07-11T18:13:43.001529,0.937,-1.103,-0.486,-69.939,-206.463,-94.573,15_10_3.csv
2018-07-11T18:13:43.061697,2.43,-2.215,-1.758,108.963,39.634,-74.085,15_10_3.csv
2018-07-11T18:13:43.125873,0.447,0.025,0.089,53.293,91.28,83.598,15_10_3.csv
2018-07-11T18:13:43.189051,-0.602,0.986,0.271,-84.817,199.146,243.232,15_10_3.csv
2018-07-11T18:13:43.248215,-0.602,0.986,0.271,-130.183,-27.195,63.049,15_10_3.csv
2018-07-11T18:13:43.299358,-0.069,-0.442,-0.266,11.585,102.622,-13.902,15_10_3.csv
2018-07-11T18:13:43.345486,0.886,-2.037,-0.974,57.927,-35.244,-100.061,15_10_3.csv
2018-07-11T18:13:43.531641,0.425,0.396,0.057,27.073,126.402,119.39,15_10_3.csv
2018-07-11T18:13:43.587797,-0.732,0.594,0.354,-51.28,78.293,131.585,15_10_3.csv
2018-07-11T18:13:43.657994,-0.023,-0.322,-0.112,-17.927,7.683,-16.159,15_10_3.csv
2018-07-11T18:13:43.705123,-0.023,-0.322,-0.112,75.61,-7.073,-87.683,15_10_3.csv
2018-07-11T18:13:43.749248,1.875,-2.123,-1.282,43.415,-205.061,-153.476,15_10_3.csv
2018-07-11T18:13:43.798382,1.875,-2.123,-1.282,34.451,-107.805,-133.293,15_10_3.csv
2018-07-11T18:13:43.856546,1.76,-1.294,-1.057,-17.744,-16.768,-15.122,15_10_3.csv
2018-07-11T18:13:43.905680,-0.026,0.477,0.235,-30.427,145.549,92.866,15_10_3.csv
2018-07-11T18:13:43.950808,-0.026,0.477,0.235,-38.354,138.232,178.476,15_10_3.csv
2018-07-11T18:13:43.997937,-0.527,0.431,0.218,-40.488,21.22,150.183,15_10_3.csv
2018-07-11T18:13:44.049081,-0.527,0.431,0.218,-97.378,-12.988,79.817,15_10_3.csv
2018-07-11T18:13:44.094205,0.014,-0.689,-0.37,-38.049,9.756,-4.329,15_10_3.csv
2018-07-11T18:13:44.157381,1.761,-2.144,-1.594,14.634,-179.268,-39.512,15_10_3.csv
2018-07-11T18:13:44.223567,1.368,-1.233,-1.003,50.488,-4.024,-54.329,15_10_3.csv
2018-07-11T18:13:44.281223,1.368,-1.233,-1.003,57.744,-35.854,-62.256,15_10_3.csv
2018-07-11T18:13:44.333430,-0.167,0.587,0.331,13.354,131.524,50.061,15_10_3.csv
2018-07-11T18:13:44.389584,-0.469,0.166,0.172,-62.439,3.293,89.329,15_10_3.csv
2018-07-11T18:13:44.434712,-0.469,0.166,0.172,-40.915,-15.427,52.622,15_10_3.csv
2018-07-11T18:13:44.496882,0.183,-0.535,-0.419,3.415,35.0,34.756,15_10_3.csv
2018-07-11T18:13:44.562065,1.599,-2.64,-1.67,-70.183,-133.476,14.024,15_10_3.csv
2018-07-11T18:13:44.623237,1.092,-0.894,-0.705,79.451,-15.549,-248.963,15_10_3.csv
2018-07-11T18:13:44.669363,1.092,-0.894,-0.705,55.854,111.524,54.512,15_10_3.csv
2018-07-11T18:13:44.716496,-0.494,0.861,0.548,15.244,239.756,87.866,15_10_3.csv
2018-07-11T18:13:44.762622,-0.494,0.861,0.548,-2.622,152.134,87.683,15_10_3.csv
2018-07-11T18:13:44.834825,-0.17,0.313,-0.038,-75.183,-56.037,-55.366,15_10_3.csv
2018-07-11T18:13:44.896995,0.718,-1.189,-0.604,31.22,-28.78,-57.805,15_10_3.csv
2018-07-11T18:13:44.950643,2.432,-1.893,-2.114,-93.293,-221.098,-106.463,15_10_3.csv
2018-07-11T18:13:44.998775,2.432,-1.893,-2.114,37.622,98.598,51.037,15_10_3.csv
2018-07-11T18:13:45.045402,0.728,-0.338,-0.283,75.854,76.402,88.476,15_10_3.csv
2018-07-11T18:13:45.091027,0.728,-0.338,-0.283,10.793,87.805,119.207,15_10_3.csv
2018-07-11T18:13:45.151693,-0.565,0.713,0.543,-52.622,100.305,206.22,15_10_3.csv
2018-07-11T18:13:45.213362,-0.409,-0.026,-0.071,-153.049,29.207,181.281,15_10_3.csv
2018-07-11T18:13:45.264000,0.563,-1.571,-1.341,-54.634,-48.78,41.159,15_10_3.csv
2018-07-11T18:13:45.314137,0.563,-1.571,-1.341,-112.866,-294.756,0.366,15_10_3.csv
2018-07-11T18:13:45.363773,0.838,-2.599,-1.83,54.634,6.402,-51.098,15_10_3.csv
2018-07-11T18:13:45.404384,0.838,-2.599,-1.83,138.781,63.659,-186.281,15_10_3.csv
2018-07-11T18:13:45.467055,0.022,-0.269,0.127,69.146,226.037,-34.512,15_10_3.csv
2018-07-11T18:13:45.519700,-0.428,1.206,0.412,47.195,130.366,7.561,15_10_3.csv
2018-07-11T18:13:45.580869,-0.428,1.206,0.412,-77.561,-76.341,-113.232,15_10_3.csv
2018-07-11T18:13:45.626995,0.123,-0.175,-0.041,38.293,21.585,-89.756,15_10_3.csv
2018-07-11T18:13:45.672123,1.722,-1.649,-1.693,-14.756,-270.854,-230.854,15_10_3.csv
2018-07-11T18:13:45.718249,1.722,-1.649,-1.693,-103.842,-301.646,-273.476,15_10_3.csv
2018-07-11T18:13:45.798473,2.242,-1.144,-1.813,123.72,50.0,24.146,15_10_3.csv
2018-07-11T18:13:45.847109,0.136,0.312,0.124,107.927,143.232,101.768,15_10_3.csv
2018-07-11T18:13:45.934851,-0.896,0.606,0.364,-59.207,100.671,172.5,15_10_3.csv
2018-07-11T18:13:45.981985,-0.896,0.606,0.364,-76.646,-15.976,110.366,15_10_3.csv
2018-07-11T18:13:46.032121,-0.125,-0.35,-0.111,34.268,-54.695,-67.866,15_10_3.csv
2018-07-11T18:13:46.075244,2.368,-1.695,-1.982,-65.061,-335.976,-226.159,15_10_3.csv
2018-07-11T18:13:46.184547,1.494,-1.008,-0.991,142.256,129.085,-42.439,15_10_3.csv
2018-07-11T18:13:46.251734,-0.513,0.745,0.485,8.841,245.0,159.817,15_10_3.csv
2018-07-11T18:13:46.310899,-0.189,0.386,0.084,-72.195,-89.207,-37.988,15_10_3.csv
2018-07-11T18:13:46.357530,-0.189,0.386,0.084,-62.378,-64.939,6.951,15_10_3.csv
2018-07-11T18:13:46.404158,0.839,-1.02,-0.683,-10.0,-31.585,-27.134,15_10_3.csv
2018-07-11T18:13:46.452292,0.839,-1.02,-0.683,-90.122,-179.939,-162.561,15_10_3.csv
2018-07-11T18:13:46.510453,2.386,-1.848,-2.041,27.5,60.915,-13.78,15_10_3.csv
2018-07-11T18:13:46.569620,0.464,0.108,-0.19,96.646,136.585,42.317,15_10_3.csv
2018-07-11T18:13:46.655356,-0.912,0.715,0.401,-86.037,137.744,164.085,15_10_3.csv
2018-07-11T18:13:46.705995,-0.912,0.715,0.401,-37.439,-92.012,-51.707,15_10_3.csv
2018-07-11T18:13:46.766162,0.03,-0.32,-0.233,9.085,-68.293,-70.366,15_10_3.csv
2018-07-11T18:13:46.813291,2.164,-1.732,-1.802,6.341,-159.085,-168.537,15_10_3.csv
2018-07-11T18:13:46.872458,1.876,-0.74,-1.197,109.146,-4.817,-57.561,15_10_3.csv
2018-07-11T18:13:46.936636,1.876,-0.74,-1.197,70.244,104.085,38.171,15_10_3.csv
2018-07-11T18:13:46.998305,-0.615,0.647,0.336,-27.805,210.915,155.427,15_10_3.csv
2018-07-11T18:13:47.042929,-0.458,0.19,0.022,-79.024,-71.524,-29.268,15_10_3.csv
2018-07-11T18:13:47.099083,-0.458,0.19,0.022,-46.463,-38.537,-41.829,15_10_3.csv
2018-07-11T18:13:47.154237,0.695,-0.791,-0.544,15.122,-176.951,-144.085,15_10_3.csv
2018-07-11T18:13:47.211899,3.022,-1.261,-1.998,-42.378,-250.183,-165.793,15_10_3.csv
2018-07-11T18:13:47.277581,0.679,-0.232,-0.32,-19.573,192.317,111.037,15_10_3.csv
2018-07-11T18:13:47.331230,0.679,-0.232,-0.32,-55.61,212.317,195.305,15_10_3.csv
2018-07-11T18:13:47.373232,-1.177,0.639,0.255,-37.561,308.11,277.805,15_10_3.csv
2018-07-11T18:13:47.420863,-1.177,0.639,0.255,-38.293,43.171,42.317,15_10_3.csv
2018-07-11T18:13:47.468995,-0.072,-0.091,-0.18,0.366,-183.781,-173.415,15_10_3.csv
2018-07-11T18:13:47.551221,1.777,-1.158,-1.168,21.707,-133.171,-119.817,15_10_3.csv
2018-07-11T18:13:47.613396,2.243,-1.443,-1.442,48.415,30.366,-14.878,15_10_3.csv
2018-07-11T18:13:47.669549,2.243,-1.443,-1.442,50.671,42.866,-8.232,15_10_3.csv
2018-07-11T18:13:47.716681,0.027,0.276,0.163,-26.768,319.085,215.549,15_10_3.csv
2018-07-11T18:13:47.765314,-0.811,0.539,0.046,-82.683,137.378,126.646,15_10_3.csv
2018-07-11T18:13:47.812443,-0.811,0.539,0.046,-26.037,-211.768,-138.354,15_10_3.csv
2018-07-11T18:13:47.872607,0.336,-0.334,-0.084,0.0,-101.159,-60.122,15_10_3.csv
2018-07-11T18:13:47.925753,1.986,-1.376,-1.606,-34.268,-114.268,-76.585,15_10_3.csv
2018-07-11T18:13:47.981906,1.986,-1.376,-1.606,-34.451,-211.463,-192.622,15_10_3.csv
2018-07-11T18:13:48.032043,2.251,-1.194,-1.376,81.951,76.524,-75.915,15_10_3.csv
2018-07-11T18:13:48.079172,-0.641,0.687,0.329,0.0,239.085,198.598,15_10_3.csv
2018-07-11T18:13:48.127304,-0.641,0.687,0.329,-73.537,94.39,136.037,15_10_3.csv
2018-07-11T18:13:48.180951,-0.381,0.102,0.057,-42.561,-73.476,25.671,15_10_3.csv
2018-07-11T18:13:48.241617,0.22,-0.328,-0.093,37.683,-43.841,-49.451,15_10_3.csv
2018-07-11T18:13:48.298773,0.22,-0.328,-0.093,20.671,-49.756,-35.915,15_10_3.csv
2018-07-11T18:13:48.343395,2.244,-1.646,-1.409,5.244,-222.561,-56.28,15_10_3.csv
2018-07-11T18:13:48.406066,1.843,-1.72,-1.225,22.256,85.061,16.89,15_10_3.csv
2018-07-11T18:13:48.460716,1.843,-1.72,-1.225,43.902,81.646,-37.439,15_10_3.csv
2018-07-11T18:13:48.528903,-0.554,0.771,0.312,-31.829,355.671,212.744,15_10_3.csv
2018-07-11T18:13:48.582050,-0.613,0.451,-0.053,-69.695,-57.256,7.195,15_10_3.csv
2018-07-11T18:13:48.644224,0.278,-0.678,-0.102,16.098,-31.524,-93.659,15_10_3.csv
2018-07-11T18:13:48.696369,0.278,-0.678,-0.102,25.061,53.415,-7.622,15_10_3.csv
2018-07-11T18:13:48.749015,2.007,-1.178,-1.459,-7.866,-205.122,-113.902,15_10_3.csv
2018-07-11T18:13:48.794642,2.007,-1.178,-1.459,-15.61,-218.72,-267.622,15_10_3.csv
2018-07-11T18:13:49.028286,-0.434,0.164,0.083,-19.024,-24.268,28.415,15_10_3.csv
2018-07-11T18:13:49.087452,0.25,-0.423,-0.251,-5.976,-53.476,-35.61,15_10_3.csv
2018-07-11T18:13:49.144109,2.475,-1.867,-1.495,22.866,-196.463,-60.366,15_10_3.csv
2018-07-11T18:13:49.200764,2.475,-1.867,-1.495,100.915,-49.939,-9.146,15_10_3.csv
2018-07-11T18:13:49.248394,1.679,-1.228,-0.79,16.524,71.768,-47.927,15_10_3.csv
2018-07-11T18:13:49.301540,-0.677,0.867,0.348,-17.683,251.707,117.622,15_10_3.csv
2018-07-11T18:13:49.361704,-0.427,0.216,-0.044,-44.146,270.0,182.5,15_10_3.csv
2018-07-11T18:13:49.403819,-0.427,0.216,-0.044,-22.012,-194.817,-70.671,15_10_3.csv
2018-07-11T18:13:49.453455,0.417,-0.748,-0.277,3.963,-25.0,-22.073,15_10_3.csv
2018-07-11T18:13:49.515625,0.417,-0.748,-0.277,7.012,-54.817,-25.549,15_10_3.csv
2018-07-11T18:13:49.561250,2.636,-2.033,-1.67,-23.598,-237.195,-106.951,15_10_3.csv
2018-07-11T18:13:49.621916,1.258,-0.759,-0.517,99.085,45.854,-25.244,15_10_3.csv
2018-07-11T18:13:49.681078,1.258,-0.759,-0.517,31.402,95.915,51.585,15_10_3.csv
2018-07-11T18:13:49.765309,-0.14,-0.029,-0.057,-50.305,-216.585,-84.024,15_10_3.csv
2018-07-11T18:13:49.809930,-0.14,-0.029,-0.057,-19.939,-89.878,-42.439,15_10_3.csv
2018-07-11T18:13:49.858563,0.625,-0.825,-0.471,-2.744,4.756,-21.89,15_10_3.csv
2018-07-11T18:13:49.902684,0.625,-0.825,-0.471,-26.585,-125.549,-91.524,15_10_3.csv
2018-07-11T18:13:49.960342,2.692,-2.021,-1.674,-31.951,-224.268,-169.695,15_10_3.csv
2018-07-11T18:13:50.016461,0.975,-0.539,-0.364,71.829,21.341,10.976,15_10_3.csv
2018-07-11T18:13:50.078633,0.975,-0.539,-0.364,6.89,120.366,101.768,15_10_3.csv
2018-07-11T18:13:50.122756,-0.785,0.783,0.266,-5.671,256.159,157.073,15_10_3.csv
2018-07-11T18:13:50.174898,-0.117,-0.095,-0.083,-43.232,-101.585,-25.488,15_10_3.csv
2018-07-11T18:13:50.272168,0.573,-0.782,-0.455,30.305,-20.549,-35.488,15_10_3.csv
2018-07-11T18:13:50.340360,2.62,-2.169,-1.859,-1.89,-227.134,-197.744,15_10_3.csv
2018-07-11T18:13:50.396518,2.62,-2.169,-1.859,133.598,22.805,-63.476,15_10_3.csv
2018-07-11T18:13:50.451669,1.011,-0.376,-0.361,36.524,109.451,73.902,15_10_3.csv
2018-07-11T18:13:50.496796,-0.795,0.871,0.279,36.22,272.012,143.232,15_10_3.csv
2018-07-11T18:13:50.545931,-0.795,0.871,0.279,15.244,-40.183,35.0,15_10_3.csv
2018-07-11T18:13:50.591057,-0.032,-0.077,-0.099,-13.415,-173.293,-36.89,15_10_3.csv
2018-07-11T18:13:50.657241,0.537,-1.084,-0.406,46.89,-15.61,-21.402,15_10_3.csv
2018-07-11T18:13:50.713398,0.537,-1.084,-0.406,93.415,-173.415,-82.805,15_10_3.csv
2018-07-11T18:13:50.762533,2.458,-2.251,-1.586,72.073,-282.805,-154.878,15_10_3.csv
2018-07-11T18:13:50.809667,2.458,-2.251,-1.586,130.61,-44.878,-86.585,15_10_3.csv
2018-07-11T18:13:50.857799,0.839,-0.658,-0.455,97.195,105.793,23.354,15_10_3.csv
2018-07-11T18:13:50.902926,-0.886,1.074,0.203,67.378,213.11,133.537,15_10_3.csv
2018-07-11T18:13:50.976127,-0.06,0.008,-0.083,28.354,-223.659,-84.329,15_10_3.csv
2018-07-11T18:13:51.038302,-0.06,0.008,-0.083,90.122,-143.902,-69.878,15_10_3.csv
2018-07-11T18:13:51.091450,1.229,-1.335,-0.783,79.451,-366.585,-219.451,15_10_3.csv
2018-07-11T18:13:51.138581,2.584,-1.675,-1.635,136.524,-194.39,-177.378,15_10_3.csv
2018-07-11T18:13:51.186714,2.584,-1.675,-1.635,200.427,-58.598,-103.293,15_10_3.csv
2018-07-11T18:13:51.249889,0.604,0.004,-0.122,136.402,36.341,-43.963,15_10_3.csv
2018-07-11T18:13:51.310553,-0.807,1.134,0.272,63.841,174.878,145.732,15_10_3.csv
2018-07-11T18:13:51.373225,-0.079,-0.387,-0.143,-6.159,-129.512,-18.598,15_10_3.csv
2018-07-11T18:13:51.439406,-0.079,-0.387,-0.143,37.073,-141.463,-41.341,15_10_3.csv
2018-07-11T18:13:51.505587,1.447,-2.044,-1.094,44.512,-232.073,-55.0,15_10_3.csv
2018-07-11T18:13:51.563746,1.746,-1.841,-1.32,99.817,-93.598,-112.622,15_10_3.csv
2018-07-11T18:13:51.642461,0.062,0.376,-0.092,148.537,-18.415,-73.902,15_10_3.csv
2018-07-11T18:13:51.694603,-0.423,0.867,0.203,73.232,-18.171,80.976,15_10_3.csv
2018-07-11T18:13:51.749253,-0.423,0.867,0.203,6.524,-122.5,-5.732,15_10_3.csv
2018-07-11T18:13:51.795380,-0.008,-0.428,-0.202,48.049,-97.561,-8.415,15_10_3.csv
2018-07-11T18:13:51.841505,-0.008,-0.428,-0.202,94.512,-153.842,-71.402,15_10_3.csv
2018-07-11T18:13:51.900667,2.079,-2.628,-1.559,161.402,-193.415,-141.159,15_10_3.csv
2018-07-11T18:13:51.966347,1.616,-0.884,-0.919,193.232,-172.866,-200.61,15_10_3.csv
2018-07-11T18:13:52.015482,1.616,-0.884,-0.919,148.902,16.524,-67.744,15_10_3.csv
2018-07-11T18:13:52.066126,-0.312,0.807,0.314,32.012,212.195,147.256,15_10_3.csv
2018-07-11T18:13:52.114258,-0.522,0.519,0.039,-6.89,-56.89,18.963,15_10_3.csv
2018-07-11T18:13:52.168913,-0.522,0.519,0.039,9.878,-192.561,-47.744,15_10_3.csv
2018-07-11T18:13:52.232087,0.249,-1.033,-0.514,30.244,-185.183,-94.024,15_10_3.csv
2018-07-11T18:13:52.284232,1.979,-2.703,-1.747,80.122,-323.72,-168.903,15_10_3.csv
2018-07-11T18:13:52.348412,1.031,-0.773,-0.819,197.927,-81.402,-96.89,15_10_3.csv
2018-07-11T18:13:52.393536,1.031,-0.773,-0.819,128.842,-34.268,-43.78,15_10_3.csv
2018-07-11T18:13:52.441671,-0.258,0.958,0.332,95.732,73.476,25.244,15_10_3.csv
2018-07-11T18:13:52.481781,-0.258,0.958,0.332,62.5,102.378,119.329,15_10_3.csv
2018-07-11T18:13:52.561002,-0.217,0.333,0.08,48.293,-141.098,-61.829,15_10_3.csv
2018-07-11T18:13:52.639218,0.319,-1.213,-0.73,53.841,-229.878,-101.22,15_10_3.csv
2018-07-11T18:13:52.691361,2.244,-2.328,-1.838,82.378,-406.281,-270.183,15_10_3.csv
2018-07-11T18:13:52.740997,0.888,-0.242,-0.323,234.268,-71.22,-85.61,15_10_3.csv
2018-07-11T18:13:52.780104,0.888,-0.242,-0.323,128.11,44.451,33.293,15_10_3.csv
2018-07-11T18:13:52.826230,-0.606,1.343,0.364,82.134,157.256,144.878,15_10_3.csv
2018-07-11T18:13:52.887397,-0.606,1.343,0.364,34.878,-31.28,74.878,15_10_3.csv
2018-07-11T18:13:53.002211,1.531,-1.972,-1.259,65.915,-203.903,-132.5,15_10_3.csv
2018-07-11T18:13:53.060871,2.136,-1.485,-1.248,47.561,-390.427,-303.72,15_10_3.csv
2018-07-11T18:13:53.106998,2.136,-1.485,-1.248,127.378,-0.976,-30.854,15_10_3.csv
2018-07-11T18:13:53.156132,0.19,0.194,0.157,90.61,97.195,60.305,15_10_3.csv
2018-07-11T18:13:53.201757,0.19,0.194,0.157,54.573,240.854,187.5,15_10_3.csv
2018-07-11T18:13:53.264930,-0.758,1.031,0.218,-50.244,-157.439,-54.39,15_10_3.csv
2018-07-11T18:13:53.316571,0.076,-0.617,-0.23,-40.0,-112.927,-59.085,15_10_3.csv
2018-07-11T18:13:53.380247,0.076,-0.617,-0.23,13.293,-98.049,-67.317,15_10_3.csv
2018-07-11T18:13:53.435403,2.285,-2.239,-1.601,59.024,-117.927,-194.146,15_10_3.csv
2018-07-11T18:13:53.484538,1.667,-1.214,-0.882,141.768,52.317,-43.049,15_10_3.csv
2018-07-11T18:13:53.547713,-0.332,0.676,0.209,-11.159,262.256,125.854,15_10_3.csv
2018-07-11T18:13:53.609885,-0.332,0.676,0.209,-53.232,319.024,213.11,15_10_3.csv
2018-07-11T18:13:53.672061,-0.511,0.671,0.115,-86.524,-63.841,-14.207,15_10_3.csv
2018-07-11T18:13:53.732225,0.141,-0.603,-0.292,-66.951,11.28,-12.073,15_10_3.csv
2018-07-11T18:13:53.781364,0.141,-0.603,-0.292,-59.39,-91.402,-96.098,15_10_3.csv
2018-07-11T18:13:53.830499,2.5,-2.673,-1.945,116.951,1.585,-157.988,15_10_3.csv
2018-07-11T18:13:53.872619,1.06,-0.82,-0.604,190.61,90.488,-8.598,15_10_3.csv
2018-07-11T18:13:53.934789,1.06,-0.82,-0.604,84.939,96.341,56.646,15_10_3.csv
2018-07-11T18:13:54.004985,-0.587,0.955,0.362,-23.841,61.159,152.622,15_10_3.csv
2018-07-11T18:13:54.065156,-0.236,0.581,0.079,-39.878,-47.378,45.488,15_10_3.csv
2018-07-11T18:13:54.112285,0.986,-1.569,-0.975,-166.768,-68.78,5.061,15_10_3.csv
2018-07-11T18:13:54.159418,0.986,-1.569,-0.975,-167.927,-308.415,-197.805,15_10_3.csv
2018-07-11T18:13:54.200531,2.014,-2.38,-1.616,153.902,-31.707,-205.732,15_10_3.csv
2018-07-11T18:13:54.264712,2.014,-2.38,-1.616,149.024,70.244,-70.0,15_10_3.csv
2018-07-11T18:13:54.378027,-0.555,0.808,0.079,-53.232,168.293,143.781,15_10_3.csv
2018-07-11T18:13:54.439194,-0.099,-0.786,-0.13,11.098,25.183,-39.39,15_10_3.csv
2018-07-11T18:13:54.485325,-0.099,-0.786,-0.13,35.671,-44.817,-29.451,15_10_3.csv
2018-07-11T18:13:54.548497,1.712,-1.428,-1.052,-60.061,-226.403,-153.293,15_10_3.csv
2018-07-11T18:13:54.593625,2.17,-1.633,-1.108,45.122,31.402,-4.451,15_10_3.csv
2018-07-11T18:13:54.673846,-0.153,0.138,0.083,41.159,137.5,111.768,15_10_3.csv
2018-07-11T18:13:54.727995,-0.153,0.138,0.083,14.451,269.695,251.159,15_10_3.csv
2018-07-11T18:13:54.782644,-0.714,0.791,-0.083,-34.634,48.902,137.134,15_10_3.csv
2018-07-11T18:13:54.826264,-0.714,0.791,-0.083,-34.024,-168.232,-133.049,15_10_3.csv
2018-07-11T18:13:54.875899,0.243,-0.74,-0.188,61.829,-38.841,-88.72,15_10_3.csv
2018-07-11T18:13:54.927039,2.31,-1.782,-1.054,89.085,-293.781,-214.085,15_10_3.csv
2018-07-11T18:13:54.981691,2.31,-1.782,-1.054,53.72,-199.817,-154.207,15_10_3.csv
2018-07-11T18:13:55.036842,1.571,-0.828,-0.655,-3.049,112.988,77.256,15_10_3.csv
2018-07-11T18:13:55.096009,1.571,-0.828,-0.655,-55.488,298.354,152.805,15_10_3.csv
