time,accel_x_list,accel_y_list,accel_z_list,gyro_x_list,gyro_y_list,gyro_z_list,filename
2018-07-11T18:12:38.699445,-0.881,-0.875,-0.536,-112.683,-93.232,57.317,15_10_2.csv
2018-07-11T18:12:38.744568,-0.881,-0.875,-0.536,-40.915,-122.012,84.634,15_10_2.csv
2018-07-11T18:12:38.805733,-0.934,-0.72,-0.343,-19.329,-137.073,93.78,15_10_2.csv
2018-07-11T18:12:38.863892,-0.936,-0.688,-0.188,-25.061,-74.573,60.549,15_10_2.csv
2018-07-11T18:12:38.918037,-0.936,-0.688,-0.188,44.878,-11.646,44.573,15_10_2.csv
2018-07-11T18:12:38.964164,-0.962,-0.566,-0.17,96.159,11.829,43.841,15_10_2.csv
2018-07-11T18:12:39.013294,-0.961,-0.419,-0.185,35.793,-9.39,30.366,15_10_2.csv
2018-07-11T18:12:39.061427,-0.961,-0.419,-0.185,-8.293,-27.622,-4.207,15_10_2.csv
2018-07-11T18:12:39.121588,-0.826,-0.444,-0.171,-14.085,-19.207,-29.878,15_10_2.csv
2018-07-11T18:12:39.202808,-0.694,-0.479,-0.012,-0.61,-1.22,-26.707,15_10_2.csv
2018-07-11T18:12:39.260968,-0.853,-0.51,-0.085,5.488,-5.305,-56.646,15_10_2.csv
2018-07-11T18:12:39.373272,-1.708,-2.038,-0.899,-192.317,2.5,-373.232,15_10_2.csv
2018-07-11T18:12:39.416387,-1.063,-2.337,-0.711,22.439,249.39,-293.781,15_10_2.csv
2018-07-11T18:12:39.463013,-1.063,-2.337,-0.711,137.195,256.524,-221.89,15_10_2.csv
2018-07-11T18:12:39.525681,-0.163,0.008,-0.039,262.5,202.256,-153.171,15_10_2.csv
2018-07-11T18:12:39.588848,-0.316,1.28,0.037,238.11,48.293,-10.427,15_10_2.csv
2018-07-11T18:12:39.640488,-0.316,1.28,0.037,70.671,-38.293,-59.756,15_10_2.csv
2018-07-11T18:12:39.681597,-0.123,0.443,0.388,-20.0,-21.159,-46.28,15_10_2.csv
2018-07-11T18:12:39.729727,-0.123,0.443,0.388,9.146,5.0,23.476,15_10_2.csv
2018-07-11T18:12:39.775850,0.251,-2.504,0.144,-148.72,-104.329,33.11,15_10_2.csv
2018-07-11T18:12:39.841526,0.903,-2.689,-0.209,-42.866,20.671,-73.171,15_10_2.csv
2018-07-11T18:12:39.895670,0.098,0.383,0.048,39.085,82.5,-7.866,15_10_2.csv
2018-07-11T18:12:39.947809,0.098,0.383,0.048,56.402,125.671,9.329,15_10_2.csv
2018-07-11T18:12:39.997441,-0.638,0.889,0.063,88.78,45.976,118.415,15_10_2.csv
2018-07-11T18:12:40.064119,0.006,-1.424,0.137,-71.646,-175.427,52.378,15_10_2.csv
2018-07-11T18:12:40.119266,0.006,-1.424,0.137,-60.183,-120.976,39.146,15_10_2.csv
2018-07-11T18:12:40.178927,0.718,-3.227,0.335,28.354,55.732,-26.585,15_10_2.csv
2018-07-11T18:12:40.233575,-0.044,-1.241,0.294,59.939,128.293,-18.78,15_10_2.csv
2018-07-11T18:12:40.278194,-0.044,-1.241,0.294,72.012,76.463,-38.902,15_10_2.csv
2018-07-11T18:12:40.327325,-0.313,0.898,0.059,41.037,82.927,-0.549,15_10_2.csv
2018-07-11T18:12:40.376458,-0.085,0.207,0.03,-46.28,-23.049,55.671,15_10_2.csv
2018-07-11T18:12:40.420576,-0.085,0.207,0.03,-86.585,-87.5,76.037,15_10_2.csv
2018-07-11T18:12:40.486758,0.03,-2.962,0.024,-60.793,-46.22,70.854,15_10_2.csv
2018-07-11T18:12:40.545416,0.056,-2.413,0.249,4.939,63.78,0.793,15_10_2.csv
2018-07-11T18:12:40.607083,0.056,-2.413,0.249,98.841,112.195,-15.305,15_10_2.csv
2018-07-11T18:12:40.654214,-0.254,0.495,0.14,47.317,-18.78,45.061,15_10_2.csv
2018-07-11T18:12:40.764513,-0.284,0.592,0.031,-71.463,-132.683,81.098,15_10_2.csv
2018-07-11T18:12:40.806625,-0.057,-2.326,-0.031,-95.427,-159.085,41.829,15_10_2.csv
2018-07-11T18:12:40.867790,0.403,-2.9,-0.049,-81.524,17.927,-11.89,15_10_2.csv
2018-07-11T18:12:40.976580,-0.42,-0.494,0.06,115.427,177.5,-48.476,15_10_2.csv
2018-07-11T18:12:41.046767,-0.539,1.264,0.083,57.744,29.573,14.024,15_10_2.csv
2018-07-11T18:12:41.092890,-0.539,1.264,0.083,-3.232,-37.317,10.671,15_10_2.csv
2018-07-11T18:12:41.152549,-0.253,-0.424,0.259,-86.707,-11.28,96.646,15_10_2.csv
2018-07-11T18:12:41.218224,-0.505,-3.505,-0.153,-45.488,-69.817,78.902,15_10_2.csv
2018-07-11T18:12:41.275878,-0.239,-1.812,-0.179,88.354,41.646,-9.634,15_10_2.csv
2018-07-11T18:12:41.329520,-0.239,-1.812,-0.179,98.598,63.049,-53.11,15_10_2.csv
2018-07-11T18:12:41.383164,-0.016,1.118,0.061,115.793,18.963,49.329,15_10_2.csv
2018-07-11T18:12:41.432294,-0.5,0.379,0.285,42.439,-60.183,108.842,15_10_2.csv
2018-07-11T18:12:41.479420,-0.5,0.379,0.285,-104.268,-113.476,147.866,15_10_2.csv
2018-07-11T18:12:41.526559,-0.684,-3.248,-0.239,-234.573,-165.61,-42.195,15_10_2.csv
2018-07-11T18:12:41.584215,-0.024,-2.303,-0.405,-69.573,89.878,-35.976,15_10_2.csv
2018-07-11T18:12:41.648391,-0.024,-2.303,-0.405,62.378,208.781,5.305,15_10_2.csv
2018-07-11T18:12:41.696519,-0.572,0.491,0.328,151.342,207.988,-20.61,15_10_2.csv
2018-07-11T18:12:41.753677,-0.16,1.052,0.576,-39.512,-76.341,15.915,15_10_2.csv
2018-07-11T18:12:41.806819,-0.16,1.052,0.576,-206.585,-85.061,66.159,15_10_2.csv
2018-07-11T18:12:41.852946,-0.214,-2.088,-0.97,-332.988,-107.927,54.756,15_10_2.csv
2018-07-11T18:12:41.914109,-0.917,-2.536,-1.575,32.683,20.671,-124.39,15_10_2.csv
2018-07-11T18:12:41.995853,-0.382,-0.11,0.038,124.573,131.951,-6.28,15_10_2.csv
2018-07-11T18:12:42.186095,-0.912,-1.047,-0.824,-329.939,-322.256,-61.768,15_10_2.csv
2018-07-11T18:12:42.235729,-0.877,-2.323,-1.944,-119.878,-161.524,-106.402,15_10_2.csv
2018-07-11T18:12:42.296393,-0.877,-2.323,-1.944,-57.927,135.549,-91.951,15_10_2.csv
2018-07-11T18:12:42.340011,-0.288,-0.958,-0.812,100.366,131.037,107.317,15_10_2.csv
2018-07-11T18:12:42.398670,-0.161,0.396,0.563,262.012,121.829,62.866,15_10_2.csv
2018-07-11T18:12:42.492926,0.026,0.527,0.488,155.244,-23.598,-39.634,15_10_2.csv
2018-07-11T18:12:42.540555,0.026,0.527,0.488,-71.585,-35.976,49.634,15_10_2.csv
2018-07-11T18:12:42.595203,-0.967,-1.832,-0.626,-64.329,-98.78,38.171,15_10_2.csv
2018-07-11T18:12:42.650355,-1.523,-2.535,-1.264,-96.951,13.354,-38.598,15_10_2.csv
2018-07-11T18:12:42.696478,-1.523,-2.535,-1.264,37.073,56.037,-40.549,15_10_2.csv
2018-07-11T18:12:42.758649,-0.183,-0.456,-0.082,207.866,137.988,41.646,15_10_2.csv
2018-07-11T18:12:42.818809,0.346,1.208,0.535,129.268,70.915,13.476,15_10_2.csv
2018-07-11T18:12:42.884488,-0.85,-0.753,-0.117,-160.305,-37.622,138.232,15_10_2.csv
2018-07-11T18:12:42.964203,-1.372,-2.764,-0.619,-31.585,-138.781,-132.561,15_10_2.csv
2018-07-11T18:12:43.015337,-1.372,-2.764,-0.619,52.012,65.915,-54.451,15_10_2.csv
2018-07-11T18:12:43.060959,-0.379,-1.131,-0.489,13.78,27.805,29.146,15_10_2.csv
2018-07-11T18:12:43.114100,0.06,0.471,0.265,96.89,84.695,63.049,15_10_2.csv
2018-07-11T18:12:43.179776,0.06,0.471,0.265,71.402,58.537,11.402,15_10_2.csv
2018-07-11T18:12:43.229909,-0.171,0.024,0.385,78.476,19.512,88.415,15_10_2.csv
2018-07-11T18:12:43.276534,-1.401,-1.662,-0.415,45.183,-1.646,20.0,15_10_2.csv
2018-07-11T18:12:43.327727,-1.401,-1.662,-0.415,-175.244,36.524,-44.512,15_10_2.csv
2018-07-11T18:12:43.370842,-1.439,-2.194,-1.046,-78.476,-60.0,-84.146,15_10_2.csv
2018-07-11T18:12:43.618240,-0.731,-1.107,-0.365,-29.878,-113.049,57.012,15_10_2.csv
2018-07-11T18:12:43.680406,-1.146,-2.821,-0.569,-178.293,-54.756,-151.342,15_10_2.csv
2018-07-11T18:12:43.727535,-1.146,-2.821,-0.569,99.939,108.171,-106.524,15_10_2.csv
2018-07-11T18:12:43.776667,-0.41,-1.229,-0.306,67.5,161.524,5.366,15_10_2.csv
2018-07-11T18:12:43.821789,-0.41,-1.229,-0.306,96.646,144.939,56.524,15_10_2.csv
2018-07-11T18:12:43.881949,-0.055,0.451,0.228,73.963,74.695,19.695,15_10_2.csv
2018-07-11T18:12:43.931582,-0.083,0.063,0.359,98.598,37.5,38.293,15_10_2.csv
2018-07-11T18:12:43.979209,-0.083,0.063,0.359,213.049,-16.159,56.22,15_10_2.csv
2018-07-11T18:12:44.031348,-1.317,-2.269,0.556,476.524,178.72,-37.439,15_10_2.csv
2018-07-11T18:12:44.072459,-1.392,-1.362,0.655,-12.012,-2.927,-135.244,15_10_2.csv
2018-07-11T18:12:44.135130,-1.392,-1.362,0.655,-221.585,-112.561,-96.159,15_10_2.csv
2018-07-11T18:12:44.191782,-0.018,0.101,-0.031,-105.122,-57.073,-1.22,15_10_2.csv
2018-07-11T18:12:44.243924,0.299,0.927,0.139,-37.744,-180.061,28.354,15_10_2.csv
2018-07-11T18:12:44.290057,0.299,0.927,0.139,-3.171,-100.732,120.305,15_10_2.csv
2018-07-11T18:12:44.337685,-1.239,-1.119,0.547,-23.841,-18.902,262.5,15_10_2.csv
2018-07-11T18:12:44.383228,-1.239,-1.119,0.547,-203.537,-79.024,75.183,15_10_2.csv
2018-07-11T18:12:44.449406,-1.114,-2.95,0.185,-136.463,-63.11,-74.756,15_10_2.csv
2018-07-11T18:12:44.504051,-0.013,-1.136,0.133,46.89,148.354,35.122,15_10_2.csv
2018-07-11T18:12:44.572734,-0.134,0.375,0.252,43.78,76.402,37.5,15_10_2.csv
2018-07-11T18:12:44.618357,-0.134,0.375,0.252,40.122,-43.72,-32.561,15_10_2.csv
2018-07-11T18:12:44.667488,0.067,0.246,0.34,43.293,-75.183,-56.951,15_10_2.csv
2018-07-11T18:12:44.712608,0.067,0.246,0.34,-21.28,-65.915,10.915,15_10_2.csv
2018-07-11T18:12:44.820896,-0.988,-2.415,-0.567,-62.683,21.463,-81.463,15_10_2.csv
2018-07-11T18:12:44.883563,-0.179,-0.564,0.131,-20.793,115.976,68.293,15_10_2.csv
2018-07-11T18:12:44.946732,-0.179,-0.564,0.131,9.329,161.707,115.061,15_10_2.csv
2018-07-11T18:12:44.992857,0.123,0.564,0.56,46.463,90.305,120.061,15_10_2.csv
2018-07-11T18:12:45.039982,-0.339,-0.118,0.379,85.488,-100.915,38.963,15_10_2.csv
2018-07-11T18:12:45.086109,-0.339,-0.118,0.379,6.463,-131.829,111.098,15_10_2.csv
2018-07-11T18:12:45.148275,-1.655,-2.163,0.32,-84.512,-221.829,10.366,15_10_2.csv
2018-07-11T18:12:45.206435,-0.863,-1.033,0.775,242.988,12.805,107.134,15_10_2.csv
2018-07-11T18:12:45.259078,-0.863,-1.033,0.775,265.488,167.805,190.366,15_10_2.csv
2018-07-11T18:12:45.310238,-0.432,0.106,0.755,195.732,138.171,201.89,15_10_2.csv
2018-07-11T18:12:45.354356,-0.432,0.106,0.755,-35.793,43.415,127.866,15_10_2.csv
2018-07-11T18:12:45.403495,0.271,-0.145,0.484,-185.854,-53.293,119.695,15_10_2.csv
2018-07-11T18:12:45.494242,-0.591,-0.708,0.251,46.829,1.646,160.549,15_10_2.csv
2018-07-11T18:12:45.552397,-3.449,-0.473,-0.64,118.293,133.171,219.939,15_10_2.csv
2018-07-11T18:12:45.603045,-1.638,0.132,-0.08,-67.866,-75.61,-209.329,15_10_2.csv
2018-07-11T18:12:45.650171,-1.638,0.132,-0.08,58.598,187.073,-376.585,15_10_2.csv
2018-07-11T18:12:45.697801,0.485,1.068,0.058,395.61,-49.329,-204.085,15_10_2.csv
2018-07-11T18:12:45.744927,0.485,1.068,0.058,368.171,30.732,-146.098,15_10_2.csv
2018-07-11T18:12:45.802084,0.008,0.904,0.594,-222.988,13.537,300.0,15_10_2.csv
2018-07-11T18:12:45.877289,-2.291,0.006,0.573,-374.817,8.841,343.293,15_10_2.csv
2018-07-11T18:12:45.946473,-2.482,-0.402,0.442,-45.915,150.915,40.305,15_10_2.csv
2018-07-11T18:12:46.012548,-0.443,0.123,0.503,311.098,82.256,84.451,15_10_2.csv
2018-07-11T18:12:46.058671,-0.443,0.123,0.503,137.927,-51.402,-34.817,15_10_2.csv
2018-07-11T18:12:46.102794,0.458,0.13,0.541,-130.366,-37.378,-160.244,15_10_2.csv
2018-07-11T18:12:46.185517,-0.643,-0.189,0.164,-83.293,-56.463,-16.89,15_10_2.csv
2018-07-11T18:12:46.285784,-3.025,0.073,-0.294,-104.512,-73.78,42.744,15_10_2.csv
2018-07-11T18:12:46.337922,-1.548,-0.063,-0.038,-100.366,-88.598,-32.256,15_10_2.csv
2018-07-11T18:12:46.397582,-1.548,-0.063,-0.038,84.634,93.902,-117.744,15_10_2.csv
2018-07-11T18:12:46.446712,0.365,0.247,0.249,119.39,-83.902,-51.098,15_10_2.csv
2018-07-11T18:12:46.501860,0.302,0.247,0.416,-42.134,72.195,-83.171,15_10_2.csv
2018-07-11T18:12:46.562020,0.302,0.247,0.416,-85.793,15.244,189.207,15_10_2.csv
2018-07-11T18:12:46.623684,-2.322,0.201,0.128,-136.159,-42.134,-10.61,15_10_2.csv
2018-07-11T18:12:46.671312,-2.387,-0.127,0.49,-99.756,42.622,-127.683,15_10_2.csv
2018-07-11T18:12:46.711919,-2.387,-0.127,0.49,172.317,150.976,-57.378,15_10_2.csv
2018-07-11T18:12:46.775589,-0.707,0.44,0.851,8.72,-26.524,-46.951,15_10_2.csv
2018-07-11T18:12:46.827227,0.438,0.078,0.846,-123.293,-27.317,-139.939,15_10_2.csv
2018-07-11T18:12:46.889392,-1.08,-0.176,0.396,26.341,23.415,43.354,15_10_2.csv
2018-07-11T18:12:46.936017,-1.08,-0.176,0.396,75.061,-115.061,81.707,15_10_2.csv
2018-07-11T18:12:46.982641,-2.817,0.453,-0.613,-23.72,-200.122,86.22,15_10_2.csv
2018-07-11T18:12:47.028764,-2.817,0.453,-0.613,-229.146,-310.061,-30.061,15_10_2.csv
2018-07-11T18:12:47.136554,0.113,0.918,0.466,172.195,195.244,140.61,15_10_2.csv
2018-07-11T18:12:47.205742,0.113,0.918,0.466,-241.524,86.463,126.402,15_10_2.csv
2018-07-11T18:12:47.262894,-0.379,-0.035,-0.615,-580.671,-298.72,-78.78,15_10_2.csv
2018-07-11T18:12:47.313029,-0.95,-1.61,0.248,-404.085,-301.281,-149.756,15_10_2.csv
2018-07-11T18:12:47.377702,-1.419,-1.154,0.436,37.683,125.549,-20.732,15_10_2.csv
2018-07-11T18:12:47.430342,-1.419,-1.154,0.436,113.11,153.842,123.659,15_10_2.csv
2018-07-11T18:12:47.658956,-0.386,-0.673,-0.177,-268.293,-124.39,-301.342,15_10_2.csv
2018-07-11T18:12:47.716111,-1.945,-1.101,0.116,211.342,193.415,-122.866,15_10_2.csv
2018-07-11T18:12:47.780287,-2.126,0.57,-0.406,624.329,475.854,128.476,15_10_2.csv
2018-07-11T18:12:47.827413,-2.126,0.57,-0.406,402.378,281.524,129.512,15_10_2.csv
2018-07-11T18:12:47.884569,-0.234,1.397,0.74,-197.378,122.927,12.378,15_10_2.csv
2018-07-11T18:12:47.947737,-0.382,-0.575,0.452,-280.305,-31.098,22.683,15_10_2.csv
2018-07-11T18:12:48.018926,-1.609,-0.263,-0.001,-15.366,-188.903,101.646,15_10_2.csv
2018-07-11T18:12:48.092623,-1.609,-0.263,-0.001,-154.512,-175.0,59.878,15_10_2.csv
2018-07-11T18:12:48.155791,-2.046,-0.729,0.279,-123.049,118.354,44.146,15_10_2.csv
2018-07-11T18:12:48.214447,-1.067,-0.81,0.345,405.122,160.244,112.988,15_10_2.csv
2018-07-11T18:12:48.260069,0.02,0.093,0.58,181.037,-56.28,-53.354,15_10_2.csv
2018-07-11T18:12:48.312709,0.02,0.093,0.58,2.744,-63.049,-97.439,15_10_2.csv
2018-07-11T18:12:48.370363,-0.408,-0.3,-0.056,-95.488,-169.024,-160.732,15_10_2.csv
2018-07-11T18:12:48.432529,-2.526,-0.75,-0.474,-96.89,-64.451,-140.671,15_10_2.csv
2018-07-11T18:12:48.480657,-2.526,-0.75,-0.474,6.89,-5.671,-75.244,15_10_2.csv
2018-07-11T18:12:48.529287,-2.031,-0.341,-0.338,50.366,60.305,-78.049,15_10_2.csv
2018-07-11T18:12:48.577418,-0.17,0.652,0.408,269.756,127.317,-64.268,15_10_2.csv
2018-07-11T18:12:48.618527,-0.17,0.652,0.408,237.5,97.012,5.976,15_10_2.csv
2018-07-11T18:12:48.684710,0.046,0.799,0.537,-10.915,84.451,98.537,15_10_2.csv
2018-07-11T18:12:48.731834,0.046,0.799,0.537,-136.037,-21.707,80.488,15_10_2.csv
2018-07-11T18:12:48.809045,-1.116,-0.193,0.104,-154.085,-69.573,117.805,15_10_2.csv
2018-07-11T18:12:48.900293,-1.475,-0.856,0.194,143.232,212.988,170.183,15_10_2.csv
2018-07-11T18:12:48.947422,-1.475,-0.856,0.194,364.878,222.439,188.781,15_10_2.csv
2018-07-11T18:12:48.994550,0.134,0.374,0.632,251.22,28.72,82.439,15_10_2.csv
2018-07-11T18:12:49.054714,0.134,0.374,0.632,-68.049,-2.439,-28.537,15_10_2.csv
2018-07-11T18:12:49.109861,-0.214,-0.198,0.23,-192.622,-195.0,-121.159,15_10_2.csv
2018-07-11T18:12:49.167016,-1.765,-0.605,-0.296,-94.329,-130.183,-122.073,15_10_2.csv
2018-07-11T18:12:49.213640,-1.765,-0.605,-0.296,2.439,-54.634,-85.427,15_10_2.csv
2018-07-11T18:12:49.260766,-2.699,-0.159,-0.557,-41.524,-36.098,-77.683,15_10_2.csv
2018-07-11T18:12:49.306890,-0.684,0.069,0.216,62.256,108.72,-83.354,15_10_2.csv
2018-07-11T18:12:49.369556,-0.684,0.069,0.216,189.939,120.793,-16.768,15_10_2.csv
2018-07-11T18:12:49.424202,0.394,0.643,0.529,4.756,54.146,80.183,15_10_2.csv
2018-07-11T18:12:49.480351,-0.444,0.089,0.19,-121.037,-83.963,68.354,15_10_2.csv
2018-07-11T18:12:49.526474,-0.444,0.089,0.19,-167.805,-105.366,73.537,15_10_2.csv
2018-07-11T18:12:49.581621,-2.233,-0.368,-0.246,-204.146,-44.817,-2.439,15_10_2.csv
2018-07-11T18:12:49.633761,-2.212,-0.898,0.146,-71.768,49.817,9.817,15_10_2.csv
2018-07-11T18:12:49.710966,-0.688,0.642,0.31,564.146,212.256,138.72,15_10_2.csv
2018-07-11T18:12:49.765112,-0.688,0.642,0.31,101.463,-171.646,-27.073,15_10_2.csv
2018-07-11T18:12:49.809730,0.389,0.148,0.654,-214.451,-205.915,-129.695,15_10_2.csv
2018-07-11T18:12:49.857858,0.389,0.148,0.654,-111.159,-180.732,-56.829,15_10_2.csv
2018-07-11T18:12:49.909498,-0.519,-0.34,0.412,-98.963,-156.524,25.061,15_10_2.csv
2018-07-11T18:12:49.961636,-2.995,-0.26,0.075,-152.317,-34.146,23.963,15_10_2.csv
2018-07-11T18:12:50.025812,-1.696,-0.306,0.203,-134.817,-28.476,-45.305,15_10_2.csv
2018-07-11T18:12:50.088985,-1.696,-0.306,0.203,291.646,169.756,-60.671,15_10_2.csv
2018-07-11T18:12:50.152153,0.287,0.528,0.267,227.439,19.329,-11.585,15_10_2.csv
2018-07-11T18:12:50.196274,0.103,0.351,0.365,-62.866,42.256,90.488,15_10_2.csv
2018-07-11T18:12:50.311586,-1.344,-0.351,0.219,-353.049,-71.037,41.768,15_10_2.csv
2018-07-11T18:12:50.351693,-2.571,-0.761,0.337,-375.671,-15.183,0.366,15_10_2.csv
2018-07-11T18:12:50.415868,-2.571,-0.761,0.337,-164.085,109.329,53.11,15_10_2.csv
2018-07-11T18:12:50.487060,-1.308,-0.408,0.192,998.049,144.817,23.78,15_10_2.csv
2018-07-11T18:12:50.542708,0.519,1.523,1.003,426.22,-221.768,-64.634,15_10_2.csv
2018-07-11T18:12:50.592343,-0.244,0.034,0.656,-406.037,-158.963,218.171,15_10_2.csv
2018-07-11T18:12:50.636460,-0.244,0.034,0.656,-617.134,-216.463,226.403,15_10_2.csv
2018-07-11T18:12:50.696625,-1.999,-0.694,0.364,-712.256,-196.829,136.22,15_10_2.csv
2018-07-11T18:12:50.758793,-2.509,-0.206,-0.504,118.842,337.5,-1.89,15_10_2.csv
2018-07-11T18:12:50.809932,-2.509,-0.206,-0.504,544.878,317.317,-60.0,15_10_2.csv
2018-07-11T18:12:50.873106,-0.346,0.715,-0.011,198.415,7.073,38.415,15_10_2.csv
2018-07-11T18:12:50.919229,0.49,0.559,0.631,-112.439,163.72,85.183,15_10_2.csv
2018-07-11T18:12:50.964353,0.49,0.559,0.631,-223.354,205.122,171.463,15_10_2.csv
2018-07-11T18:12:51.036546,-0.955,-0.5,-0.092,-5.427,-181.768,78.902,15_10_2.csv
2018-07-11T18:12:51.103225,-2.502,-0.085,0.285,-56.89,-187.317,37.378,15_10_2.csv
2018-07-11T18:12:51.168400,-1.943,-0.152,0.656,230.732,299.024,-161.585,15_10_2.csv
2018-07-11T18:12:51.214021,-1.943,-0.152,0.656,639.207,334.573,-10.061,15_10_2.csv
2018-07-11T18:12:51.261648,-0.148,1.638,1.025,428.72,-107.195,70.427,15_10_2.csv
2018-07-11T18:12:51.310779,-0.093,0.017,0.538,-411.22,-129.451,71.524,15_10_2.csv
2018-07-11T18:12:51.353894,-0.093,0.017,0.538,-331.829,-261.707,22.561,15_10_2.csv
2018-07-11T18:12:51.412048,-0.883,-0.543,0.393,-216.342,-240.183,1.951,15_10_2.csv
2018-07-11T18:12:51.474716,-2.523,0.024,0.152,84.695,-4.939,37.866,15_10_2.csv
2018-07-11T18:12:51.529863,-2.523,0.024,0.152,119.878,73.537,88.049,15_10_2.csv
2018-07-11T18:12:51.705285,0.177,0.559,-0.044,119.39,-76.585,-67.195,15_10_2.csv
2018-07-11T18:12:51.765446,-0.058,0.199,0.172,-183.476,25.244,78.659,15_10_2.csv
2018-07-11T18:12:51.858195,-1.473,-0.145,0.454,28.963,223.232,1.89,15_10_2.csv
2018-07-11T18:12:51.931892,-2.755,0.887,1.609,164.085,324.878,28.171,15_10_2.csv
2018-07-11T18:12:51.982527,-1.14,-0.193,0.575,-113.049,158.902,24.756,15_10_2.csv
2018-07-11T18:12:52.044193,0.39,0.034,0.634,272.683,-175.0,-12.5,15_10_2.csv
2018-07-11T18:12:52.106862,0.39,0.034,0.634,32.073,-35.549,30.671,15_10_2.csv
2018-07-11T18:12:52.156497,-0.871,0.129,-0.019,-282.134,-314.878,-115.244,15_10_2.csv
2018-07-11T18:12:52.197606,-2.375,-0.091,0.028,-211.463,-241.829,-96.768,15_10_2.csv
2018-07-11T18:12:52.279830,-1.731,-0.015,0.22,-112.805,-10.61,-19.207,15_10_2.csv
2018-07-11T18:12:52.327962,-1.731,-0.015,0.22,9.573,103.963,-0.915,15_10_2.csv
2018-07-11T18:12:52.386116,0.036,0.198,0.438,296.22,153.049,20.549,15_10_2.csv
2018-07-11T18:12:52.434250,0.036,0.198,0.438,383.11,77.195,-8.841,15_10_2.csv
2018-07-11T18:12:52.480372,0.322,0.578,0.605,-224.756,151.524,141.951,15_10_2.csv
2018-07-11T18:12:52.530509,-1.529,-0.239,-0.078,-303.902,106.646,69.146,15_10_2.csv
2018-07-11T18:12:52.587247,-1.529,-0.239,-0.078,-224.207,95.976,-12.805,15_10_2.csv
2018-07-11T18:12:52.636879,-2.608,-0.874,-0.017,311.22,156.707,-3.049,15_10_2.csv
2018-07-11T18:12:52.680996,-1.676,0.798,0.573,617.195,289.939,-12.683,15_10_2.csv
2018-07-11T18:12:52.729125,-1.676,0.798,0.573,314.573,-47.805,27.134,15_10_2.csv
2018-07-11T18:12:52.775750,0.629,1.01,0.631,-159.634,-135.549,-65.732,15_10_2.csv
2018-07-11T18:12:52.822373,0.629,1.01,0.631,-211.159,42.378,-40.427,15_10_2.csv
2018-07-11T18:12:52.881032,-0.13,-0.184,-0.418,-246.281,-104.512,-117.622,15_10_2.csv
2018-07-11T18:12:52.990328,-1.825,-0.483,-0.631,-66.585,-209.756,-133.781,15_10_2.csv
2018-07-11T18:12:53.044476,-2.368,-0.585,0.175,243.11,88.354,179.634,15_10_2.csv
2018-07-11T18:12:53.102630,-0.993,0.284,0.111,339.634,481.22,47.927,15_10_2.csv
2018-07-11T18:12:53.152764,-0.993,0.284,0.111,160.0,297.073,-93.659,15_10_2.csv
2018-07-11T18:12:53.196380,0.28,0.72,0.388,-226.159,-9.329,-165.305,15_10_2.csv
2018-07-11T18:12:53.258050,-0.146,-0.625,-0.169,-262.683,-196.524,-116.524,15_10_2.csv
2018-07-11T18:12:53.315202,-0.146,-0.625,-0.169,-103.781,-315.854,-41.585,15_10_2.csv
2018-07-11T18:12:53.370354,-1.979,-0.58,-0.083,91.22,-86.463,90.0,15_10_2.csv
2018-07-11T18:12:53.418482,-2.507,-0.597,0.164,58.78,32.439,84.024,15_10_2.csv
2018-07-11T18:12:53.478647,-2.507,-0.597,0.164,282.805,294.146,32.439,15_10_2.csv
2018-07-11T18:12:53.525773,-0.971,-0.197,0.183,302.195,-38.293,84.329,15_10_2.csv
2018-07-11T18:12:53.585938,0.087,0.394,0.615,273.842,-131.951,27.195,15_10_2.csv
2018-07-11T18:12:53.643092,-0.487,0.224,0.222,-47.622,9.085,-130.854,15_10_2.csv
2018-07-11T18:12:53.744870,-1.893,-0.183,-0.566,-115.854,-129.695,-146.585,15_10_2.csv
2018-07-11T18:12:53.796510,-1.893,-0.183,-0.566,-165.061,-250.976,-86.037,15_10_2.csv
2018-07-11T18:12:53.846646,-2.083,-1.042,-0.509,-66.037,-86.585,233.72,15_10_2.csv
2018-07-11T18:12:53.900791,-0.21,0.027,0.397,88.537,71.646,121.646,15_10_2.csv
2018-07-11T18:12:53.984019,0.198,0.08,0.303,-176.403,247.073,-163.415,15_10_2.csv
2018-07-11T18:12:54.036157,0.198,0.08,0.303,-343.659,251.951,-8.902,15_10_2.csv
2018-07-11T18:12:54.087797,-0.875,-0.713,-0.665,165.732,-211.646,10.549,15_10_2.csv
2018-07-11T18:12:54.134421,-2.015,0.068,-0.349,79.085,-376.463,-26.646,15_10_2.csv
2018-07-11T18:12:54.182048,-2.015,0.068,-0.349,-96.402,-493.11,-116.646,15_10_2.csv
2018-07-11T18:12:54.228672,-0.849,-0.886,1.238,-69.939,-67.134,26.951,15_10_2.csv
2018-07-11T18:12:54.350502,-0.852,0.846,0.545,-214.085,340.793,16.402,15_10_2.csv
2018-07-11T18:12:54.411669,-0.726,-0.345,0.0,7.683,-294.024,90.976,15_10_2.csv
2018-07-11T18:12:54.461806,-1.051,-0.481,-0.55,28.598,-377.134,51.524,15_10_2.csv
2018-07-11T18:12:54.529491,-2.645,0.33,-0.04,18.537,-498.11,-9.634,15_10_2.csv
2018-07-11T18:12:54.590659,-2.645,0.33,-0.04,-206.098,-286.159,-127.988,15_10_2.csv
2018-07-11T18:12:54.642802,-0.936,0.144,0.475,-380.671,184.878,-228.903,15_10_2.csv
2018-07-11T18:12:54.700459,0.066,0.026,0.458,113.963,475.122,103.293,15_10_2.csv
2018-07-11T18:12:54.776667,-0.501,0.258,0.051,67.073,122.195,265.305,15_10_2.csv
2018-07-11T18:12:54.839841,-0.501,0.258,0.051,133.902,-187.744,141.524,15_10_2.csv
2018-07-11T18:12:54.895492,-1.351,0.368,-0.457,45.183,-335.427,-76.951,15_10_2.csv
2018-07-11T18:12:54.971199,-2.057,-0.162,0.744,51.585,-12.683,-54.146,15_10_2.csv
2018-07-11T18:12:55.045904,-0.922,0.324,0.825,193.963,543.11,69.634,15_10_2.csv
2018-07-11T18:12:55.100553,-0.332,0.132,0.313,-322.134,184.268,-66.646,15_10_2.csv
2018-07-11T18:12:55.149688,-0.332,0.132,0.313,-138.354,3.354,-13.659,15_10_2.csv
2018-07-11T18:12:55.196817,-0.155,-0.422,-0.242,105.793,-121.037,13.171,15_10_2.csv
2018-07-11T18:12:55.244948,-0.155,-0.422,-0.242,35.0,-244.085,-12.439,15_10_2.csv
2018-07-11T18:12:55.292077,-2.199,0.209,-0.4,94.573,-405.61,-11.524,15_10_2.csv
2018-07-11T18:12:55.337201,-2.424,0.389,0.118,-196.463,-246.22,-22.683,15_10_2.csv
2018-07-11T18:12:55.385834,-2.424,0.389,0.118,-397.988,52.012,-96.159,15_10_2.csv
2018-07-11T18:12:55.448505,-0.373,-0.021,0.477,-114.268,319.024,-143.659,15_10_2.csv
2018-07-11T18:12:55.500651,-0.078,1.266,0.487,33.659,239.451,231.951,15_10_2.csv
2018-07-11T18:12:55.561320,-0.078,1.266,0.487,-309.024,231.281,183.293,15_10_2.csv
2018-07-11T18:12:55.623994,-0.928,0.262,-0.512,-202.256,-268.415,-38.659,15_10_2.csv
2018-07-11T18:12:55.721265,-1.971,-0.158,-0.576,-328.781,-477.744,-154.024,15_10_2.csv
2018-07-11T18:12:55.775418,-1.006,-1.254,0.723,199.39,312.683,309.39,15_10_2.csv
2018-07-11T18:12:55.841599,-0.768,-0.34,0.027,505.183,555.61,206.585,15_10_2.csv
2018-07-11T18:12:55.900766,-0.021,-0.245,0.09,47.988,104.268,-45.671,15_10_2.csv
2018-07-11T18:12:55.948897,-0.021,-0.245,0.09,40.671,-60.61,-4.146,15_10_2.csv
2018-07-11T18:12:56.009066,-0.341,-0.552,-0.4,174.817,-176.463,11.341,15_10_2.csv
2018-07-11T18:12:56.082270,-3.399,1.023,-0.601,456.22,-339.939,109.817,15_10_2.csv
2018-07-11T18:12:56.141433,-2.696,1.508,0.048,-397.439,-127.744,-509.451,15_10_2.csv
2018-07-11T18:12:56.187563,-2.696,1.508,0.048,-546.342,252.256,-615.305,15_10_2.csv
2018-07-11T18:12:56.231684,-0.915,0.897,0.812,-641.524,536.403,-288.476,15_10_2.csv
2018-07-11T18:12:56.291852,-0.915,0.897,0.812,-550.183,382.988,-33.72,15_10_2.csv
2018-07-11T18:12:56.357030,-2.051,0.262,-0.091,-219.39,-681.22,-57.378,15_10_2.csv
2018-07-11T18:12:56.407172,-1.112,-0.109,-2.098,-420.244,-911.037,-306.89,15_10_2.csv
2018-07-11T18:12:56.463329,-0.816,-0.738,0.04,-64.817,-383.293,-47.5,15_10_2.csv
2018-07-11T18:12:56.518483,-0.816,-0.738,0.04,125.793,183.72,186.098,15_10_2.csv
2018-07-11T18:12:56.572132,-1.344,-0.908,-0.938,378.354,235.915,241.22,15_10_2.csv
2018-07-11T18:12:56.619764,-0.411,0.259,-0.197,212.012,87.561,4.634,15_10_2.csv
2018-07-11T18:12:56.668400,-0.411,0.259,-0.197,-333.598,178.171,-392.622,15_10_2.csv
2018-07-11T18:12:56.724055,-0.365,-0.609,-0.648,-528.598,149.939,-314.268,15_10_2.csv
2018-07-11T18:12:56.779209,-1.531,-0.716,-0.343,-90.549,265.549,76.28,15_10_2.csv
2018-07-11T18:12:56.827342,-1.531,-0.716,-0.343,-13.354,388.049,105.671,15_10_2.csv
2018-07-11T18:12:56.874472,-3.441,-1.277,0.07,-12.012,515.549,136.037,15_10_2.csv
2018-07-11T18:12:56.933637,-3.441,-1.277,0.07,203.781,508.476,144.939,15_10_2.csv
2018-07-11T18:12:57.022882,-0.808,-0.698,-0.637,-135.122,-500.244,47.378,15_10_2.csv
2018-07-11T18:12:57.146220,-0.473,-0.289,-0.23,-79.329,-195.915,-130.671,15_10_2.csv
2018-07-11T18:12:57.196357,-1.109,-0.444,-0.485,-65.366,-118.171,-135.122,15_10_2.csv
2018-07-11T18:12:57.261034,-1.009,-0.281,-0.54,-2.988,-35.915,-133.598,15_10_2.csv
2018-07-11T18:12:57.306659,-1.009,-0.281,-0.54,-8.841,-29.512,-20.976,15_10_2.csv
2018-07-11T18:12:57.353788,-0.609,-0.834,-0.412,25.122,-120.305,164.39,15_10_2.csv
2018-07-11T18:12:57.477129,-0.389,-0.039,0.079,249.695,198.963,-166.281,15_10_2.csv
2018-07-11T18:12:57.540304,-0.519,0.01,0.038,-53.78,150.976,27.012,15_10_2.csv
2018-07-11T18:12:57.591449,-1.487,-0.839,0.37,-115.366,274.146,-18.963,15_10_2.csv
2018-07-11T18:12:57.642589,-1.487,-0.839,0.37,196.951,442.683,-17.256,15_10_2.csv
2018-07-11T18:12:57.713788,-3.279,0.181,-0.575,762.683,347.744,136.768,15_10_2.csv
2018-07-11T18:12:57.770445,-2.249,1.267,0.787,157.622,98.476,136.829,15_10_2.csv
2018-07-11T18:12:57.827100,-0.388,0.189,0.647,-113.842,-208.293,180.366,15_10_2.csv
2018-07-11T18:12:57.883755,-0.388,0.189,0.647,-187.256,-162.744,172.073,15_10_2.csv
2018-07-11T18:12:57.951942,-0.529,-0.009,-0.342,-430.732,-212.805,-23.537,15_10_2.csv
2018-07-11T18:12:57.996062,-1.337,-0.486,-0.516,-316.829,-278.598,-76.524,15_10_2.csv
2018-07-11T18:12:58.073274,-1.17,-0.849,0.403,-72.439,-135.305,-7.134,15_10_2.csv
2018-07-11T18:12:58.123912,-1.17,-0.849,0.403,79.268,130.488,77.622,15_10_2.csv
2018-07-11T18:12:58.182071,-0.997,-0.594,0.157,260.305,239.512,135.305,15_10_2.csv
2018-07-11T18:12:58.228699,-0.103,1.026,-0.251,-1.707,68.72,-109.451,15_10_2.csv
2018-07-11T18:12:58.277332,-0.103,1.026,-0.251,-434.634,-38.598,-200.793,15_10_2.csv
2018-07-11T18:12:58.325463,0.083,-0.674,-0.183,-265.854,-112.5,-69.512,15_10_2.csv
2018-07-11T18:12:58.447297,-1.508,-0.536,-0.095,111.646,480.427,76.951,15_10_2.csv
2018-07-11T18:12:58.505957,-3.197,-0.437,-0.845,278.537,128.415,62.195,15_10_2.csv
2018-07-11T18:12:58.569632,-1.745,0.627,0.619,418.537,306.768,36.341,15_10_2.csv
2018-07-11T18:12:58.621273,-1.745,0.627,0.619,150.183,-44.695,160.854,15_10_2.csv
2018-07-11T18:12:58.671911,0.386,0.567,0.697,-55.976,13.049,27.195,15_10_2.csv
2018-07-11T18:12:58.729068,-0.408,-0.111,-0.521,-190.427,-10.0,27.622,15_10_2.csv
2018-07-11T18:12:58.789234,-1.846,-0.208,-0.637,-102.012,-322.073,-41.28,15_10_2.csv
2018-07-11T18:12:58.851908,-1.846,-0.208,-0.637,-138.659,-327.988,-87.683,15_10_2.csv
2018-07-11T18:12:58.900109,-1.815,-0.721,0.529,-172.317,-175.854,-12.866,15_10_2.csv
2018-07-11T18:12:58.962282,-0.771,0.064,0.603,367.927,568.537,193.171,15_10_2.csv
2018-07-11T18:12:59.011417,-0.771,0.064,0.603,396.463,448.415,123.476,15_10_2.csv
2018-07-11T18:12:59.056545,-0.316,0.216,0.592,-164.207,48.963,12.134,15_10_2.csv
2018-07-11T18:12:59.118716,-0.421,-0.304,-0.321,137.866,-120.183,-5.122,15_10_2.csv
2018-07-11T18:12:59.180890,-0.421,-0.304,-0.321,105.0,-248.537,-17.683,15_10_2.csv
2018-07-11T18:12:59.228019,-2.724,0.306,-0.487,93.049,-322.256,-1.951,15_10_2.csv
2018-07-11T18:12:59.283176,-1.86,-0.151,0.167,-348.11,-212.012,-50.366,15_10_2.csv
2018-07-11T18:12:59.337828,-1.86,-0.151,0.167,-326.098,83.354,4.207,15_10_2.csv
2018-07-11T18:12:59.384457,0.054,-0.333,0.46,53.659,312.744,2.317,15_10_2.csv
2018-07-11T18:12:59.447131,0.033,0.368,0.303,94.573,209.817,55.671,15_10_2.csv
2018-07-11T18:12:59.503788,0.033,0.368,0.303,-101.768,112.439,109.085,15_10_2.csv
2018-07-11T18:12:59.563454,-0.839,0.092,-0.268,-70.305,-164.817,15.61,15_10_2.csv
2018-07-11T18:12:59.606070,-2.212,-0.23,0.021,-202.134,-308.72,-97.012,15_10_2.csv
2018-07-11T18:12:59.666235,-2.212,-0.23,0.021,-233.903,-208.476,-40.305,15_10_2.csv
2018-07-11T18:12:59.712862,-1.722,-0.341,0.466,390.366,514.756,315.305,15_10_2.csv
2018-07-11T18:12:59.810633,-0.511,0.382,0.299,-140.427,61.585,33.476,15_10_2.csv
2018-07-11T18:12:59.865784,-0.313,-0.247,0.296,-53.537,-5.61,-1.037,15_10_2.csv
2018-07-11T18:12:59.919936,-0.893,0.063,-0.37,-68.841,-262.805,-162.073,15_10_2.csv
2018-07-11T18:12:59.979602,-0.893,0.063,-0.37,-140.305,-271.951,-211.829,15_10_2.csv
2018-07-11T18:13:00.031745,-2.566,-0.217,-0.189,-193.537,-372.683,-253.293,15_10_2.csv
2018-07-11T18:13:00.072857,-1.364,-0.243,0.307,-179.939,79.207,-13.537,15_10_2.csv
2018-07-11T18:13:00.134024,-1.364,-0.243,0.307,29.878,297.927,-5.427,15_10_2.csv
2018-07-11T18:13:00.206723,-0.185,0.017,0.442,290.122,273.049,56.829,15_10_2.csv
2018-07-11T18:13:00.266888,-0.161,0.612,0.505,-91.646,108.72,57.195,15_10_2.csv
2018-07-11T18:13:00.312512,-0.161,0.612,0.505,-303.232,-129.634,-79.207,15_10_2.csv
2018-07-11T18:13:00.362148,-0.989,-0.271,-0.271,-158.476,-243.598,-45.61,15_10_2.csv
2018-07-11T18:13:00.414792,-2.043,-0.835,0.208,-97.805,-316.768,63.841,15_10_2.csv
2018-07-11T18:13:00.496516,-1.866,0.313,-0.003,550.366,398.354,238.415,15_10_2.csv
2018-07-11T18:13:00.572594,-0.274,0.277,0.531,-130.183,104.695,-34.207,15_10_2.csv
2018-07-11T18:13:00.624235,-0.274,0.277,0.531,-252.683,129.268,6.037,15_10_2.csv
2018-07-11T18:13:00.681895,-0.357,-0.797,0.391,124.756,-50.366,121.402,15_10_2.csv
2018-07-11T18:13:00.745072,-1.439,-0.042,-0.697,193.659,-237.5,132.988,15_10_2.csv
2018-07-11T18:13:00.792201,-1.439,-0.042,-0.697,232.439,-370.793,112.988,15_10_2.csv
2018-07-11T18:13:00.854377,-2.843,0.871,-0.129,-279.939,-353.963,-241.707,15_10_2.csv
2018-07-11T18:13:00.903511,-0.919,0.072,0.199,-475.854,25.732,-236.22,15_10_2.csv
2018-07-11T18:13:00.948638,-0.919,0.072,0.199,-349.573,220.488,-134.756,15_10_2.csv
2018-07-11T18:13:01.008804,0.438,-0.071,0.222,156.402,180.549,30.549,15_10_2.csv
2018-07-11T18:13:01.063958,-0.179,0.118,0.104,138.171,16.463,96.037,15_10_2.csv
2018-07-11T18:13:01.270336,-2.543,-0.592,-0.205,-164.756,100.854,-28.476,15_10_2.csv
2018-07-11T18:13:01.326993,-2.076,-0.62,0.38,429.207,200.61,80.427,15_10_2.csv
2018-07-11T18:13:01.393679,0.045,0.549,0.872,53.841,-231.89,-126.159,15_10_2.csv
2018-07-11T18:13:01.451840,0.39,0.189,0.19,30.549,147.073,-133.415,15_10_2.csv
2018-07-11T18:13:01.513509,0.39,0.189,0.19,-32.317,41.585,-16.22,15_10_2.csv
2018-07-11T18:13:01.568704,-0.81,-0.007,-0.342,-51.585,-36.646,152.378,15_10_2.csv
2018-07-11T18:13:01.624860,-3.228,-1.234,-1.152,-113.354,-166.463,178.963,15_10_2.csv
2018-07-11T18:13:01.666977,-3.228,-1.234,-1.152,-58.415,-95.427,196.585,15_10_2.csv
2018-07-11T18:13:01.728649,-1.65,-0.361,-0.001,-14.146,298.049,-233.049,15_10_2.csv
2018-07-11T18:13:01.777282,0.225,0.69,1.196,13.354,200.427,-63.476,15_10_2.csv
2018-07-11T18:13:01.841959,0.225,0.69,1.196,-143.537,-53.293,-41.037,15_10_2.csv
2018-07-11T18:13:01.903627,-0.075,-0.199,0.15,-152.012,-154.39,-93.293,15_10_2.csv
2018-07-11T18:13:02.009417,-2.517,-0.725,-0.826,-298.598,-304.451,-71.341,15_10_2.csv
2018-07-11T18:13:02.062061,-2.517,-0.725,-0.826,-465.244,-252.744,-62.866,15_10_2.csv
2018-07-11T18:13:02.124732,-1.101,-1.537,-0.116,636.403,559.329,197.927,15_10_2.csv
2018-07-11T18:13:02.169855,-0.19,0.375,-0.585,789.756,202.256,163.72,15_10_2.csv
2018-07-11T18:13:02.248573,0.229,0.742,0.47,155.244,-15.61,-128.354,15_10_2.csv
2018-07-11T18:13:02.350859,-0.91,-0.769,-0.254,-99.39,41.585,-104.207,15_10_2.csv
2018-07-11T18:13:02.420049,-2.61,-1.357,-0.816,157.256,-60.915,178.903,15_10_2.csv
2018-07-11T18:13:02.462666,-2.61,-1.357,-0.816,216.585,65.0,238.781,15_10_2.csv
2018-07-11T18:13:02.535952,-1.407,-0.048,-0.002,41.159,82.195,-161.159,15_10_2.csv
2018-07-11T18:13:02.591103,0.367,0.513,0.844,4.268,76.829,-185.061,15_10_2.csv
2018-07-11T18:13:02.651272,-0.139,-0.04,0.324,-235.061,69.085,-53.354,15_10_2.csv
2018-07-11T18:13:02.713441,-0.139,-0.04,0.324,-40.793,-196.159,-39.085,15_10_2.csv
2018-07-11T18:13:02.900358,-1.263,-0.6,-0.021,426.342,502.805,105.915,15_10_2.csv
2018-07-11T18:13:02.965541,-1.263,-0.6,-0.021,331.585,350.915,43.232,15_10_2.csv
2018-07-11T18:13:03.014676,-0.028,0.175,0.271,-32.927,-206.22,-95.061,15_10_2.csv
2018-07-11T18:13:03.055794,0.256,-0.018,0.433,-102.134,-45.183,-143.842,15_10_2.csv
2018-07-11T18:13:03.117464,0.256,-0.018,0.433,-60.976,41.22,-105.366,15_10_2.csv
2018-07-11T18:13:03.177129,-1.085,-0.224,-0.236,-38.171,-103.963,22.622,15_10_2.csv
2018-07-11T18:13:03.229273,-2.736,-1.121,-0.812,-115.305,-106.402,87.561,15_10_2.csv
2018-07-11T18:13:03.275402,-2.736,-1.121,-0.812,149.451,94.573,245.305,15_10_2.csv
2018-07-11T18:13:03.324036,-1.783,-0.303,-0.12,291.585,214.451,174.756,15_10_2.csv
2018-07-11T18:13:03.369661,-1.783,-0.303,-0.12,160.549,218.11,-2.012,15_10_2.csv
2018-07-11T18:13:03.435842,-0.081,0.218,1.004,46.768,-259.756,-26.646,15_10_2.csv
2018-07-11T18:13:03.487484,0.574,0.488,0.436,-18.171,-188.354,-168.476,15_10_2.csv
2018-07-11T18:13:03.548653,-1.272,-0.359,-1.12,-344.817,9.085,76.524,15_10_2.csv
2018-07-11T18:13:03.588763,-1.272,-0.359,-1.12,-302.805,-118.415,-51.829,15_10_2.csv
2018-07-11T18:13:03.643919,-2.47,-1.557,-0.54,46.037,-338.415,-2.134,15_10_2.csv
2018-07-11T18:13:03.713111,-2.194,1.228,0.631,512.317,486.585,84.695,15_10_2.csv
2018-07-11T18:13:03.802358,0.37,0.638,0.44,-55.488,-113.415,-126.646,15_10_2.csv
2018-07-11T18:13:04.027917,-2.248,-1.125,-0.131,29.207,-157.256,96.037,15_10_2.csv
2018-07-11T18:13:04.107134,-1.834,-0.379,0.305,-9.39,338.415,-141.098,15_10_2.csv
2018-07-11T18:13:04.158777,-1.834,-0.379,0.305,41.159,366.22,-121.281,15_10_2.csv
2018-07-11T18:13:04.198388,-0.726,0.625,1.007,-114.695,290.122,-112.683,15_10_2.csv
2018-07-11T18:13:04.246519,-0.726,0.625,1.007,-267.317,58.659,-50.366,15_10_2.csv
2018-07-11T18:13:04.319723,-0.123,0.225,0.179,-90.488,-142.195,-44.573,15_10_2.csv
2018-07-11T18:13:04.377887,-0.779,-0.033,-1.076,-144.634,-398.293,-87.988,15_10_2.csv
2018-07-11T18:13:04.432035,-2.366,-1.094,-0.367,-186.403,-612.683,-13.537,15_10_2.csv
2018-07-11T18:13:04.479168,-2.366,-1.094,-0.367,-165.976,-364.695,207.805,15_10_2.csv
2018-07-11T18:13:04.527300,-1.443,-0.933,0.683,-11.707,251.037,222.195,15_10_2.csv
2018-07-11T18:13:04.581452,-0.299,-0.13,0.071,291.281,182.317,0.427,15_10_2.csv
2018-07-11T18:13:04.648636,-0.299,-0.13,0.071,172.561,-155.549,-14.695,15_10_2.csv
2018-07-11T18:13:04.706800,0.137,-0.031,0.427,-40.854,-51.646,-11.341,15_10_2.csv
2018-07-11T18:13:04.762956,-0.595,-0.183,-0.141,-26.28,-99.634,-53.049,15_10_2.csv
2018-07-11T18:13:04.807079,-0.595,-0.183,-0.141,-0.427,-26.22,-81.402,15_10_2.csv
2018-07-11T18:13:04.861731,-2.49,-0.891,-0.77,117.866,-94.451,143.963,15_10_2.csv
2018-07-11T18:13:04.918388,-2.028,-0.182,-0.052,301.22,174.512,259.207,15_10_2.csv
2018-07-11T18:13:04.977552,-2.028,-0.182,-0.052,173.903,287.012,46.524,15_10_2.csv
2018-07-11T18:13:05.043231,-0.438,0.268,0.918,-205.549,162.988,-219.39,15_10_2.csv
2018-07-11T18:13:05.103396,0.117,0.396,0.478,-167.866,-188.232,-125.732,15_10_2.csv
2018-07-11T18:13:05.151026,-1.154,-0.141,-0.881,-193.963,-282.378,-142.012,15_10_2.csv
2018-07-11T18:13:05.282887,-1.846,-1.051,-0.024,211.463,-33.049,183.049,15_10_2.csv
2018-07-11T18:13:05.338038,-1.898,-0.603,-0.088,551.707,519.207,286.646,15_10_2.csv
2018-07-11T18:13:05.413745,-0.508,0.625,0.425,96.829,-100.427,137.134,15_10_2.csv
2018-07-11T18:13:05.474912,0.6,0.58,0.397,47.256,-34.451,-218.415,15_10_2.csv
2018-07-11T18:13:05.525551,0.6,0.58,0.397,-250.793,67.622,-89.146,15_10_2.csv
2018-07-11T18:13:05.572178,-1.0,-0.329,-0.62,-226.22,-37.5,-70.549,15_10_2.csv
2018-07-11T18:13:05.622817,-3.026,-0.808,-0.797,-112.012,-334.939,-73.11,15_10_2.csv
2018-07-11T18:13:05.666938,-3.026,-0.808,-0.797,-47.622,-355.122,100.915,15_10_2.csv
2018-07-11T18:13:05.725598,-1.169,-0.516,0.525,142.195,65.488,263.049,15_10_2.csv
2018-07-11T18:13:05.785762,0.14,0.35,0.534,416.22,396.524,-10.183,15_10_2.csv
2018-07-11T18:13:05.837905,0.14,0.35,0.534,-96.829,169.024,-15.976,15_10_2.csv
2018-07-11T18:13:05.891551,-0.167,-0.264,0.055,-253.293,171.646,40.305,15_10_2.csv
2018-07-11T18:13:05.935171,-0.167,-0.264,0.055,-19.39,-112.683,50.61,15_10_2.csv
2018-07-11T18:13:05.996840,-1.25,-0.164,-0.841,72.988,-336.037,0.549,15_10_2.csv
2018-07-11T18:13:06.054999,-2.271,-0.082,0.439,-82.744,-618.903,-109.451,15_10_2.csv
2018-07-11T18:13:06.125191,-1.349,0.071,0.592,152.622,419.085,-149.085,15_10_2.csv
2018-07-11T18:13:06.182848,-1.349,0.071,0.592,274.878,688.354,-187.439,15_10_2.csv
2018-07-11T18:13:06.228976,-0.283,0.7,0.035,-219.634,-53.841,-83.11,15_10_2.csv
2018-07-11T18:13:06.278610,0.059,0.125,0.258,-105.915,19.756,-70.488,15_10_2.csv
2018-07-11T18:13:06.323734,0.059,0.125,0.258,-75.671,-102.622,-71.646,15_10_2.csv
2018-07-11T18:13:06.381893,-0.847,-0.252,-0.451,-0.732,-174.39,-25.976,15_10_2.csv
2018-07-11T18:13:06.462614,-2.672,-0.498,-0.087,154.146,-334.817,83.415,15_10_2.csv
2018-07-11T18:13:06.511748,-1.854,0.168,0.174,297.622,277.561,272.195,15_10_2.csv
2018-07-11T18:13:06.558376,-1.854,0.168,0.174,241.951,369.939,3.049,15_10_2.csv
2018-07-11T18:13:06.671861,-0.075,-0.72,0.184,-156.402,193.293,69.512,15_10_2.csv
2018-07-11T18:13:06.729537,-0.075,-0.72,0.184,72.134,-5.488,122.561,15_10_2.csv
2018-07-11T18:13:06.787699,-1.104,0.309,-0.549,48.537,-211.89,54.451,15_10_2.csv
2018-07-11T18:13:06.850373,-2.297,0.884,-0.577,-507.012,-400.305,-337.195,15_10_2.csv
2018-07-11T18:13:06.902520,-2.297,0.884,-0.577,-887.683,-103.171,-589.451,15_10_2.csv
2018-07-11T18:13:06.956667,-1.659,-0.904,0.341,-60.305,221.646,166.524,15_10_2.csv
2018-07-11T18:13:07.015834,-0.138,-0.142,0.272,63.537,-192.5,57.5,15_10_2.csv
2018-07-11T18:13:07.073995,0.159,-0.256,-0.159,-36.829,-137.317,19.695,15_10_2.csv
2018-07-11T18:13:07.122130,0.159,-0.256,-0.159,21.463,-193.598,25.061,15_10_2.csv
2018-07-11T18:13:07.176278,-0.882,-0.298,-0.198,70.854,-220.366,6.524,15_10_2.csv
2018-07-11T18:13:07.234442,-2.811,-0.339,-0.097,140.366,-2.073,-22.378,15_10_2.csv
2018-07-11T18:13:07.295614,-2.811,-0.339,-0.097,117.866,109.146,36.037,15_10_2.csv
2018-07-11T18:13:07.345751,-1.785,-0.196,-0.124,156.342,162.378,31.585,15_10_2.csv
2018-07-11T18:13:07.400909,0.175,1.19,0.683,257.256,71.463,-175.427,15_10_2.csv
2018-07-11T18:13:07.447034,0.175,1.19,0.683,-190.488,56.402,-177.134,15_10_2.csv
2018-07-11T18:13:07.495170,-0.051,0.244,0.213,-542.317,284.329,-1.585,15_10_2.csv
2018-07-11T18:13:07.563357,-1.083,-0.458,-0.794,20.244,-164.451,-15.427,15_10_2.csv
2018-07-11T18:13:07.620519,-1.083,-0.458,-0.794,81.707,-239.146,17.195,15_10_2.csv
2018-07-11T18:13:07.680185,-2.395,-0.346,-0.096,79.451,-399.024,70.793,15_10_2.csv
2018-07-11T18:13:07.728819,-1.327,0.083,0.873,266.342,282.012,60.793,15_10_2.csv
2018-07-11T18:13:07.776448,-1.327,0.083,0.873,258.842,534.268,24.939,15_10_2.csv
2018-07-11T18:13:07.824079,-0.114,0.164,0.068,-157.256,227.988,30.61,15_10_2.csv
2018-07-11T18:13:07.871208,-0.114,0.164,0.068,-130.793,63.415,40.671,15_10_2.csv
2018-07-11T18:13:08.062733,-2.819,0.097,-0.243,-203.11,-356.524,-133.476,15_10_2.csv
2018-07-11T18:13:08.110366,-2.819,0.097,-0.243,-249.695,-130.671,-39.39,15_10_2.csv
2018-07-11T18:13:08.166021,-1.463,-0.094,0.183,310.854,339.451,-69.207,15_10_2.csv
2018-07-11T18:13:08.214154,0.175,0.542,0.407,177.866,167.683,105.061,15_10_2.csv
2018-07-11T18:13:08.292371,-0.14,0.05,0.296,-150.732,126.463,35.671,15_10_2.csv
2018-07-11T18:13:08.338502,-0.14,0.05,0.296,-141.829,-61.646,-23.659,15_10_2.csv
2018-07-11T18:13:08.397663,-1.029,-0.271,-0.178,9.512,-171.585,38.232,15_10_2.csv
2018-07-11T18:13:08.459839,-2.308,-0.049,0.143,-25.488,-227.317,16.524,15_10_2.csv
2018-07-11T18:13:08.513488,-2.308,-0.049,0.143,-12.256,-127.256,24.817,15_10_2.csv
2018-07-11T18:13:08.556108,-1.953,0.023,0.241,261.707,419.512,-11.829,15_10_2.csv
2018-07-11T18:13:08.605746,-0.356,0.512,0.109,6.829,25.244,56.402,15_10_2.csv
2018-07-11T18:13:08.658393,-0.356,0.512,0.109,-59.634,-128.963,-46.463,15_10_2.csv
