time,accel_x_list,accel_y_list,accel_z_list,gyro_x_list,gyro_y_list,gyro_z_list,filename
2018-07-11T17:58:47.155607,0.266,-1.083,0.467,50.671,71.159,447.683,15_6_3.csv
2018-07-11T17:58:47.218276,0.204,-1.335,0.526,193.659,58.659,358.171,15_6_3.csv
2018-07-11T17:58:47.265403,0.204,-1.335,0.526,283.11,145.976,348.72,15_6_3.csv
2018-07-11T17:58:47.314535,-0.449,-0.473,1.069,221.89,85.488,307.012,15_6_3.csv
2018-07-11T17:58:47.360660,-0.449,-0.473,1.069,91.159,22.866,163.354,15_6_3.csv
2018-07-11T17:58:47.416310,-0.461,-0.804,0.996,-29.939,32.683,44.695,15_6_3.csv
2018-07-11T17:58:47.542149,-0.736,-0.833,0.517,124.573,86.646,-13.293,15_6_3.csv
2018-07-11T17:58:47.593788,-0.736,-0.833,0.517,124.268,104.268,-50.915,15_6_3.csv
2018-07-11T17:58:47.638409,-0.787,-0.47,0.524,107.5,99.268,-82.744,15_6_3.csv
2018-07-11T17:58:47.687544,-0.787,-0.47,0.524,78.232,74.085,-103.537,15_6_3.csv
2018-07-11T17:58:47.732666,-0.536,-0.359,0.458,47.927,60.0,-106.342,15_6_3.csv
2018-07-11T17:58:47.779797,-0.51,-0.317,0.345,3.049,53.232,-48.963,15_6_3.csv
2018-07-11T17:58:47.843472,-0.51,-0.317,0.345,-46.037,83.72,-21.098,15_6_3.csv
2018-07-11T17:58:47.898653,-1.25,-0.372,0.137,-73.72,142.317,-31.89,15_6_3.csv
2018-07-11T17:58:47.953303,-1.516,-0.291,-0.026,-54.329,1.463,139.634,15_6_3.csv
2018-07-11T17:58:47.997425,-1.516,-0.291,-0.026,-8.232,18.476,121.707,15_6_3.csv
2018-07-11T17:58:48.046560,-0.989,-0.222,0.144,-9.939,24.39,114.695,15_6_3.csv
2018-07-11T17:58:48.091683,-0.989,-0.222,0.144,-32.195,66.22,116.463,15_6_3.csv
2018-07-11T17:58:48.137808,-1.032,-0.32,0.09,-24.878,74.451,111.159,15_6_3.csv
2018-07-11T17:58:48.189953,-1.029,-0.22,0.045,-5.976,18.049,91.463,15_6_3.csv
2018-07-11T17:58:48.251120,-1.029,-0.22,0.045,-57.256,-6.098,57.5,15_6_3.csv
2018-07-11T17:58:48.295242,-0.969,-0.373,0.163,-111.768,-16.829,19.817,15_6_3.csv
2018-07-11T17:58:48.344377,-1.101,-0.6,0.213,-41.829,2.012,8.537,15_6_3.csv
2018-07-11T17:58:48.390503,-1.101,-0.6,0.213,49.634,-5.427,17.927,15_6_3.csv
2018-07-11T17:58:48.437630,-1.324,-0.099,0.214,89.512,-17.622,7.988,15_6_3.csv
2018-07-11T17:58:48.505819,-1.136,-0.364,-0.212,-352.927,-84.451,-199.817,15_6_3.csv
2018-07-11T17:58:48.559969,-1.136,-0.364,-0.212,-432.073,-135.854,-274.024,15_6_3.csv
2018-07-11T17:58:48.612109,-0.688,-1.088,-0.135,-208.049,-89.634,-197.439,15_6_3.csv
2018-07-11T17:58:48.655728,-0.688,-1.088,-0.135,114.39,50.305,-86.159,15_6_3.csv
2018-07-11T17:58:48.708374,-1.083,-0.584,-0.27,473.415,68.049,-20.854,15_6_3.csv
2018-07-11T17:58:48.766031,-0.939,0.206,-0.031,462.5,48.598,-35.488,15_6_3.csv
2018-07-11T17:58:48.973784,-0.861,-0.69,-0.069,25.488,62.805,8.659,15_6_3.csv
2018-07-11T17:58:49.015898,-0.976,-0.536,0.033,174.329,126.281,47.073,15_6_3.csv
2018-07-11T17:58:49.063029,-0.976,-0.536,0.033,314.634,223.415,73.11,15_6_3.csv
2018-07-11T17:58:49.108152,-1.05,-0.222,0.121,222.317,128.659,70.793,15_6_3.csv
2018-07-11T17:58:49.159295,-0.904,0.001,0.274,199.268,158.476,97.439,15_6_3.csv
2018-07-11T17:58:49.208426,-0.904,0.001,0.274,126.89,125.976,120.732,15_6_3.csv
2018-07-11T17:58:49.265586,-1.217,-0.04,0.104,74.268,32.683,119.024,15_6_3.csv
2018-07-11T17:58:49.310707,-1.092,-0.204,0.177,47.561,-55.549,124.817,15_6_3.csv
2018-07-11T17:58:49.362853,-1.092,-0.204,0.177,41.341,-29.756,106.707,15_6_3.csv
2018-07-11T17:58:49.405969,-1.061,-0.229,0.216,21.098,14.329,74.146,15_6_3.csv
2018-07-11T17:58:49.455107,-1.061,-0.229,0.216,-17.195,25.732,51.22,15_6_3.csv
2018-07-11T17:58:49.536830,-1.19,-0.345,-0.011,12.744,-17.561,17.195,15_6_3.csv
2018-07-11T17:58:49.579448,-1.396,-0.385,-0.069,33.049,-40.549,-5.183,15_6_3.csv
2018-07-11T17:58:49.633594,-1.005,-0.292,-0.078,105.061,-5.183,-73.841,15_6_3.csv
2018-07-11T17:58:49.685739,-1.005,-0.292,-0.078,143.659,4.024,-103.049,15_6_3.csv
2018-07-11T17:58:49.739386,-1.197,-0.25,-0.178,185.122,-50.183,-106.22,15_6_3.csv
2018-07-11T17:58:49.782003,-1.197,-0.25,-0.178,215.732,-63.598,-78.72,15_6_3.csv
2018-07-11T17:58:49.843672,-1.051,-0.091,-0.095,160.305,-15.549,-101.22,15_6_3.csv
2018-07-11T17:58:49.891300,-1.132,-0.136,-0.15,118.72,-18.72,-101.89,15_6_3.csv
2018-07-11T17:58:49.952466,-1.114,-0.089,-0.12,100.549,-31.707,-95.183,15_6_3.csv
2018-07-11T17:58:50.010625,-1.114,-0.089,-0.12,65.915,-12.927,-125.671,15_6_3.csv
2018-07-11T17:58:50.061763,-1.082,0.007,0.041,39.207,18.902,-153.476,15_6_3.csv
2018-07-11T17:58:50.117919,-0.894,-0.031,0.267,23.963,77.805,-119.39,15_6_3.csv
2018-07-11T17:58:50.248275,-0.863,-0.188,0.275,113.781,130.244,90.915,15_6_3.csv
2018-07-11T17:58:50.314458,-1.092,0.101,0.126,23.171,-13.354,80.976,15_6_3.csv
2018-07-11T17:58:50.359579,-0.909,-0.01,0.217,-85.0,-16.098,70.427,15_6_3.csv
2018-07-11T17:58:50.404707,-0.909,-0.01,0.217,-143.963,24.146,73.841,15_6_3.csv
2018-07-11T17:58:50.453839,-1.099,-0.336,0.196,-143.232,60.427,92.134,15_6_3.csv
2018-07-11T17:58:50.520020,-1.345,-0.39,0.188,10.061,62.805,174.207,15_6_3.csv
2018-07-11T17:58:50.563638,-1.345,-0.39,0.188,62.927,56.524,178.11,15_6_3.csv
2018-07-11T17:58:50.631323,-1.531,-0.062,0.114,46.037,45.488,124.573,15_6_3.csv
2018-07-11T17:58:50.687979,-1.09,-0.117,0.028,-84.756,-43.476,-67.439,15_6_3.csv
2018-07-11T17:58:50.733602,-1.09,-0.117,0.028,-100.854,-42.012,-131.281,15_6_3.csv
2018-07-11T17:58:50.780729,-1.075,-0.347,-0.058,-65.488,-47.256,-157.805,15_6_3.csv
2018-07-11T17:58:50.826853,-1.075,-0.347,-0.058,-8.72,-71.159,-129.329,15_6_3.csv
2018-07-11T17:58:50.890024,-1.007,-0.404,0.062,116.098,-32.805,-38.659,15_6_3.csv
2018-07-11T17:58:50.946676,-1.025,-0.15,0.055,128.049,11.646,-51.89,15_6_3.csv
2018-07-11T17:58:50.998817,-1.137,-0.021,-0.036,67.622,-59.817,-106.707,15_6_3.csv
2018-07-11T17:58:51.045944,-1.137,-0.021,-0.036,31.463,-75.671,-127.805,15_6_3.csv
2018-07-11T17:58:51.093071,-1.073,-0.068,0.02,-11.402,-67.439,-135.976,15_6_3.csv
2018-07-11T17:58:51.146718,-1.073,-0.068,0.02,-41.402,-44.024,-118.476,15_6_3.csv
2018-07-11T17:58:51.199862,-0.918,-0.187,0.18,-8.476,40.183,-15.061,15_6_3.csv
2018-07-11T17:58:51.263036,-0.633,-0.158,0.211,7.256,57.256,31.89,15_6_3.csv
2018-07-11T17:58:51.328213,-0.931,-0.025,-0.012,12.988,52.805,56.159,15_6_3.csv
2018-07-11T17:58:51.372834,-0.931,-0.025,-0.012,-9.39,5.122,65.122,15_6_3.csv
2018-07-11T17:58:51.421967,-1.038,-0.141,0.056,-36.159,-2.927,90.976,15_6_3.csv
2018-07-11T17:58:51.469093,-1.038,-0.141,0.056,-64.573,35.976,121.89,15_6_3.csv
2018-07-11T17:58:51.531765,-1.081,-0.266,0.169,3.963,139.207,158.415,15_6_3.csv
2018-07-11T17:58:51.607975,-1.438,-0.173,0.226,3.659,129.634,187.805,15_6_3.csv
2018-07-11T17:58:51.659113,-1.694,-0.088,0.13,-15.671,95.976,153.476,15_6_3.csv
2018-07-11T17:58:51.711259,-1.694,-0.088,0.13,-27.683,50.122,94.085,15_6_3.csv
2018-07-11T17:58:51.767410,-1.411,-0.172,0.05,-107.378,-112.866,-88.049,15_6_3.csv
2018-07-11T17:58:51.812533,-0.995,-0.22,-0.157,-80.976,-93.537,-152.805,15_6_3.csv
2018-07-11T17:58:51.880717,-1.242,-0.347,-0.204,18.049,-177.073,-177.683,15_6_3.csv
2018-07-11T17:58:51.929849,-1.242,-0.347,-0.204,69.939,-175.854,-110.0,15_6_3.csv
2018-07-11T17:58:51.985500,-0.861,-0.22,-0.014,102.134,-79.268,-60.915,15_6_3.csv
2018-07-11T17:58:52.033630,-0.861,-0.22,-0.014,99.207,5.0,-72.683,15_6_3.csv
2018-07-11T17:58:52.077748,-1.048,-0.131,-0.183,83.598,9.451,-95.915,15_6_3.csv
2018-07-11T17:58:52.132396,-1.084,-0.063,-0.115,69.756,-34.268,-114.146,15_6_3.csv
2018-07-11T17:58:52.191054,-1.084,-0.063,-0.115,32.378,-22.5,-131.829,15_6_3.csv
2018-07-11T17:58:52.243195,-0.993,-0.001,0.003,-46.159,42.073,-125.122,15_6_3.csv
2018-07-11T17:58:52.295837,-0.613,-0.172,0.247,-62.866,55.122,-74.207,15_6_3.csv
2018-07-11T17:58:52.342964,-0.613,-0.172,0.247,-24.512,133.232,15.671,15_6_3.csv
2018-07-11T17:58:52.395606,-0.955,-0.215,0.142,47.744,166.524,101.402,15_6_3.csv
2018-07-11T17:58:52.442233,-1.295,-0.028,0.12,136.768,102.256,203.963,15_6_3.csv
2018-07-11T17:58:52.521449,-1.295,-0.028,0.12,93.537,92.073,217.012,15_6_3.csv
2018-07-11T17:58:52.569581,-1.332,-0.016,0.286,-16.829,95.244,147.5,15_6_3.csv
2018-07-11T17:58:52.629748,-1.344,-0.248,0.282,-36.951,89.024,116.585,15_6_3.csv
2018-07-11T17:58:52.675872,-1.344,-0.248,0.282,-35.61,46.951,97.378,15_6_3.csv
2018-07-11T17:58:52.724004,-1.487,-0.419,-0.093,30.305,-95.915,61.341,15_6_3.csv
2018-07-11T17:58:52.770131,-1.422,-0.315,-0.133,70.244,-172.988,26.951,15_6_3.csv
2018-07-11T17:58:52.826786,-1.422,-0.315,-0.133,93.659,-188.049,-49.451,15_6_3.csv
2018-07-11T17:58:52.894471,-1.111,-0.092,-0.032,-17.256,-54.512,-180.854,15_6_3.csv
2018-07-11T17:58:53.019309,-1.041,-0.087,-0.149,187.5,-118.902,-108.354,15_6_3.csv
2018-07-11T17:58:53.061423,-1.041,-0.087,-0.149,141.159,-40.366,-154.512,15_6_3.csv
2018-07-11T17:58:53.110743,-0.982,-0.048,-0.202,49.024,-19.268,-180.915,15_6_3.csv
2018-07-11T17:58:53.171908,-0.822,-0.169,-0.163,17.195,-4.39,-145.671,15_6_3.csv
2018-07-11T17:58:53.230070,-0.822,-0.169,-0.163,21.829,34.085,-120.976,15_6_3.csv
2018-07-11T17:58:53.286725,-0.846,-0.274,0.065,31.463,75.671,-92.195,15_6_3.csv
2018-07-11T17:58:53.343380,-0.914,-0.32,0.278,207.195,179.512,29.756,15_6_3.csv
2018-07-11T17:58:53.395023,-0.914,-0.32,0.278,277.561,214.024,91.951,15_6_3.csv
2018-07-11T17:58:53.440645,-1.178,0.247,0.167,228.781,219.085,105.244,15_6_3.csv
2018-07-11T17:58:53.491785,-1.29,0.166,0.271,35.793,55.732,29.512,15_6_3.csv
2018-07-11T17:58:53.556963,-1.29,0.166,0.271,-2.805,17.012,39.329,15_6_3.csv
2018-07-11T17:58:53.621139,-1.129,-0.147,0.404,-22.866,50.366,92.256,15_6_3.csv
2018-07-11T17:58:53.678297,-1.136,-0.252,0.243,-14.512,46.28,95.976,15_6_3.csv
2018-07-11T17:58:53.723419,-1.136,-0.252,0.243,-7.988,-3.415,89.329,15_6_3.csv
2018-07-11T17:58:53.775061,-0.998,-0.291,-0.055,16.098,24.817,12.256,15_6_3.csv
2018-07-11T17:58:53.861794,-1.294,-0.485,-0.789,100.183,85.061,-18.293,15_6_3.csv
2018-07-11T17:58:53.921957,-0.732,-0.396,-0.642,148.232,22.866,-44.451,15_6_3.csv
2018-07-11T17:58:53.976604,-0.976,-0.269,-0.602,179.39,70.061,-105.671,15_6_3.csv
2018-07-11T17:58:54.036766,-0.976,-0.269,-0.602,192.012,57.988,-102.805,15_6_3.csv
2018-07-11T17:58:54.084896,-1.282,-0.283,-0.407,195.183,48.415,-95.122,15_6_3.csv
2018-07-11T17:58:54.145059,-1.069,-0.074,-0.239,183.476,16.585,-86.524,15_6_3.csv
2018-07-11T17:58:54.193191,-1.069,-0.074,-0.239,150.976,-27.134,-79.878,15_6_3.csv
2018-07-11T17:58:54.249343,-0.797,-0.002,-0.064,116.22,-59.146,-51.951,15_6_3.csv
2018-07-11T17:58:54.343602,-1.063,-0.06,-0.157,15.854,-107.439,113.476,15_6_3.csv
2018-07-11T17:58:54.393743,-1.286,-0.216,-0.063,-4.756,-151.89,156.585,15_6_3.csv
2018-07-11T17:58:54.454908,-0.901,-0.079,0.102,-3.049,4.878,173.659,15_6_3.csv
2018-07-11T17:58:54.526622,-0.901,-0.079,0.102,-18.354,63.354,74.207,15_6_3.csv
2018-07-11T17:58:54.577263,-0.972,0.084,-0.149,-149.39,-19.207,-54.146,15_6_3.csv
2018-07-11T17:58:54.625393,-0.787,-0.283,0.207,-201.22,-4.695,-38.659,15_6_3.csv
2018-07-11T17:58:54.672021,-0.787,-0.283,0.207,-145.0,53.293,47.683,15_6_3.csv
2018-07-11T17:58:54.717646,-1.045,-0.297,0.275,-38.841,99.024,154.939,15_6_3.csv
2018-07-11T17:58:54.766280,-1.045,-0.297,0.275,-33.232,85.305,218.476,15_6_3.csv
2018-07-11T17:58:54.823934,-1.544,-0.269,0.021,-65.061,13.049,179.085,15_6_3.csv
2018-07-11T17:58:54.879083,-1.687,-0.428,0.159,-1.28,3.415,117.256,15_6_3.csv
2018-07-11T17:58:54.921698,-1.687,-0.428,0.159,62.378,-1.89,30.793,15_6_3.csv
2018-07-11T17:58:54.972836,-1.218,-0.157,0.139,63.171,20.549,-57.195,15_6_3.csv
2018-07-11T17:58:55.021467,-1.335,-0.236,-0.255,58.659,-165.305,-121.342,15_6_3.csv
2018-07-11T17:58:55.072608,-1.335,-0.236,-0.255,100.732,-254.085,-97.988,15_6_3.csv
2018-07-11T17:58:55.138786,-1.107,-0.045,0.017,97.195,-137.622,-133.902,15_6_3.csv
2018-07-11T17:58:55.186921,-1.018,0.029,-0.074,-12.866,-73.049,-191.829,15_6_3.csv
2018-07-11T17:58:55.234047,-1.018,0.029,-0.074,-79.756,-46.463,-220.0,15_6_3.csv
2018-07-11T17:58:55.281678,-1.048,-0.139,-0.07,-65.305,-28.78,-221.524,15_6_3.csv
2018-07-11T17:58:55.327303,-1.048,-0.139,-0.07,-20.366,6.402,-197.744,15_6_3.csv
2018-07-11T17:58:55.373926,-1.006,0.083,-0.019,-19.085,-3.415,-167.805,15_6_3.csv
2018-07-11T17:58:55.438601,-0.577,-0.058,0.45,-94.634,-1.159,-88.232,15_6_3.csv
2018-07-11T17:58:55.503777,-0.863,-0.049,0.269,21.829,212.134,193.049,15_6_3.csv
2018-07-11T17:58:55.545389,-0.863,-0.049,0.269,38.963,175.244,244.512,15_6_3.csv
2018-07-11T17:58:55.595023,-1.398,0.17,-0.044,-8.354,66.402,224.024,15_6_3.csv
2018-07-11T17:58:55.703816,-1.574,-0.065,0.083,-187.5,62.439,215.793,15_6_3.csv
2018-07-11T17:58:55.759469,-1.604,-0.303,0.027,-193.476,83.293,200.549,15_6_3.csv
2018-07-11T17:58:55.824146,-1.417,-0.532,-0.128,-185.0,44.329,87.073,15_6_3.csv
2018-07-11T17:58:55.877793,-1.417,-0.532,-0.128,-99.939,8.659,22.134,15_6_3.csv
2018-07-11T17:58:55.925424,-1.353,-0.402,-0.215,-42.744,-43.11,-58.171,15_6_3.csv
2018-07-11T17:58:55.976063,-1.353,-0.402,-0.215,-28.232,-78.293,-126.037,15_6_3.csv
2018-07-11T17:58:56.030210,-0.981,-0.467,-0.176,89.39,-58.232,-127.927,15_6_3.csv
2018-07-11T17:58:56.099518,-1.299,-0.324,-0.276,218.293,-57.256,-97.134,15_6_3.csv
2018-07-11T17:58:56.149152,-1.182,-0.033,-0.169,251.768,-27.988,-105.122,15_6_3.csv
2018-07-11T17:58:56.207312,-1.182,-0.033,-0.169,182.805,-21.22,-133.902,15_6_3.csv
2018-07-11T17:58:56.258449,-1.118,-0.075,-0.266,145.305,-39.329,-142.439,15_6_3.csv
2018-07-11T17:58:56.311598,-0.985,-0.113,-0.226,132.622,-63.598,-117.805,15_6_3.csv
2018-07-11T17:58:56.358725,-0.985,-0.113,-0.226,109.39,-35.427,-102.073,15_6_3.csv
2018-07-11T17:58:56.404854,-1.065,-0.14,0.021,138.659,33.537,-75.732,15_6_3.csv
2018-07-11T17:58:56.459000,-1.065,-0.14,0.021,222.134,130.061,-28.049,15_6_3.csv
2018-07-11T17:58:56.520169,-1.047,0.515,0.208,10.549,99.756,18.476,15_6_3.csv
2018-07-11T17:58:56.576323,-0.98,0.233,-0.024,-109.207,98.963,64.39,15_6_3.csv
2018-07-11T17:58:56.629468,-1.067,-0.275,0.197,5.244,-48.78,18.415,15_6_3.csv
2018-07-11T17:58:56.679605,-1.067,-0.275,0.197,103.781,7.683,47.317,15_6_3.csv
2018-07-11T17:58:56.736762,-1.038,-0.359,0.392,199.756,81.159,129.451,15_6_3.csv
2018-07-11T17:58:56.788404,-1.259,-0.021,0.323,200.61,115.122,142.195,15_6_3.csv
2018-07-11T17:58:56.844555,-1.259,-0.021,0.323,124.939,50.183,107.256,15_6_3.csv
2018-07-11T17:58:56.893688,-1.376,-0.041,-0.076,76.89,-64.207,53.72,15_6_3.csv
2018-07-11T17:58:56.937305,-1.376,-0.041,-0.076,83.476,-183.293,-16.768,15_6_3.csv
2018-07-11T17:58:56.984934,-1.362,0.045,0.055,45.061,-227.073,-163.902,15_6_3.csv
2018-07-11T17:58:57.082861,-0.878,-0.083,0.205,-43.598,24.817,-184.268,15_6_3.csv
2018-07-11T17:58:57.197681,-0.8,-0.515,0.184,106.524,-14.451,0.549,15_6_3.csv
2018-07-11T17:58:57.249825,-0.8,-0.515,0.184,177.439,68.354,84.695,15_6_3.csv
2018-07-11T17:58:57.294946,-1.144,-0.383,0.123,237.927,117.012,118.72,15_6_3.csv
2018-07-11T17:58:57.343082,-1.144,-0.383,0.123,263.963,62.134,109.024,15_6_3.csv
2018-07-11T17:58:57.397228,-1.2,0.061,0.005,143.049,-121.281,-37.012,15_6_3.csv
2018-07-11T17:58:57.456392,-1.155,0.189,-0.05,51.646,-183.232,-140.305,15_6_3.csv
2018-07-11T17:58:57.502517,-1.155,0.189,-0.05,-20.366,-190.305,-233.232,15_6_3.csv
2018-07-11T17:58:57.564688,-1.342,-0.187,0.274,2.073,17.561,-251.037,15_6_3.csv
2018-07-11T17:58:57.612319,-1.199,0.05,0.292,149.695,145.427,-190.61,15_6_3.csv
2018-07-11T17:58:57.654936,-1.199,0.05,0.292,155.305,116.829,-163.232,15_6_3.csv
2018-07-11T17:58:57.719613,-0.709,0.324,0.464,-1.463,54.268,-69.207,15_6_3.csv
2018-07-11T17:58:57.764235,-0.505,0.221,0.779,-66.524,85.854,-23.476,15_6_3.csv
2018-07-11T17:58:57.812869,-0.505,0.221,0.779,-190.915,135.793,8.476,15_6_3.csv
2018-07-11T17:58:57.858494,-0.839,-0.846,0.046,-413.598,159.207,-23.72,15_6_3.csv
2018-07-11T17:58:57.904618,-0.839,-0.846,0.046,-425.061,93.963,-73.902,15_6_3.csv
2018-07-11T17:58:57.951749,-0.721,-1.668,-0.448,295.915,29.39,294.146,15_6_3.csv
2018-07-11T17:58:58.008405,-1.042,-0.337,0.149,171.829,15.793,176.159,15_6_3.csv
2018-07-11T17:58:58.061050,-1.042,-0.337,0.149,64.634,23.171,26.524,15_6_3.csv
2018-07-11T17:58:58.112691,-0.906,-0.572,0.086,73.171,43.963,-36.159,15_6_3.csv
2018-07-11T17:58:58.176365,-0.732,-0.667,-0.121,95.549,33.11,7.988,15_6_3.csv
2018-07-11T17:58:58.234490,-0.966,-0.579,-0.154,120.549,7.866,100.976,15_6_3.csv
2018-07-11T17:58:58.313204,-0.967,-0.286,-0.008,120.915,32.256,18.354,15_6_3.csv
2018-07-11T17:58:58.361334,-0.967,-0.286,-0.008,110.854,37.378,5.427,15_6_3.csv
2018-07-11T17:58:58.560072,-0.918,0.234,-0.386,-96.89,-4.39,-10.854,15_6_3.csv
2018-07-11T17:58:58.609209,-0.918,0.234,-0.386,-180.0,33.72,-9.939,15_6_3.csv
2018-07-11T17:58:58.654330,-1.005,-0.025,-0.593,-162.988,61.341,24.024,15_6_3.csv
2018-07-11T17:58:58.703967,-1.005,-0.025,-0.593,-81.768,61.037,60.915,15_6_3.csv
2018-07-11T17:58:58.771652,-0.938,0.263,-0.341,-54.878,22.317,41.585,15_6_3.csv
2018-07-11T17:58:58.827807,-0.869,0.134,-0.327,-111.159,21.89,25.549,15_6_3.csv
2018-07-11T17:58:58.877943,-1.141,0.036,-0.236,-77.866,89.39,98.171,15_6_3.csv
2018-07-11T17:58:58.929085,-1.141,0.036,-0.236,-88.354,96.829,109.634,15_6_3.csv
2018-07-11T17:58:58.984234,-1.512,-0.029,-0.172,-111.646,75.061,99.207,15_6_3.csv
2018-07-11T17:58:59.034373,-1.512,-0.029,-0.172,-95.183,42.683,82.134,15_6_3.csv
2018-07-11T17:58:59.076487,-1.524,-0.11,-0.277,-26.646,-33.11,-11.28,15_6_3.csv
2018-07-11T17:58:59.123619,-1.241,-0.154,-0.207,-14.878,-51.098,-77.927,15_6_3.csv
2018-07-11T17:58:59.170746,-1.241,-0.154,-0.207,35.732,-35.854,-107.5,15_6_3.csv
2018-07-11T17:58:59.218882,-0.972,-0.056,-0.379,69.512,-44.268,-118.049,15_6_3.csv
2018-07-11T17:58:59.266009,-0.972,-0.056,-0.379,80.488,-68.841,-122.195,15_6_3.csv
2018-07-11T17:58:59.330730,-0.969,-0.19,-0.562,193.963,-75.793,-19.573,15_6_3.csv
2018-07-11T17:58:59.424987,-0.906,-0.055,-0.303,176.524,-58.963,-4.756,15_6_3.csv
2018-07-11T17:58:59.474119,-1.104,0.07,-0.25,121.707,-87.439,-44.268,15_6_3.csv
2018-07-11T17:58:59.536499,-1.148,0.094,-0.074,45.427,-184.634,-100.915,15_6_3.csv
2018-07-11T17:58:59.576608,-1.148,0.094,-0.074,-11.585,-173.049,-136.159,15_6_3.csv
2018-07-11T17:58:59.647805,-0.908,0.111,0.079,-166.402,-33.293,-140.61,15_6_3.csv
2018-07-11T17:58:59.688915,-0.789,-0.289,0.118,-156.951,5.732,-63.841,15_6_3.csv
2018-07-11T17:58:59.786182,-0.9,-0.094,0.082,60.671,71.646,89.573,15_6_3.csv
2018-07-11T17:58:59.840334,-0.985,0.05,0.21,25.305,21.098,103.781,15_6_3.csv
2018-07-11T17:58:59.910525,-0.985,0.05,0.21,-29.756,38.232,114.329,15_6_3.csv
2018-07-11T17:58:59.959658,-1.093,-0.047,0.295,-139.573,92.195,138.781,15_6_3.csv
2018-07-11T17:59:00.015809,-1.496,-0.378,0.113,-162.683,77.012,152.927,15_6_3.csv
2018-07-11T17:59:00.062434,-1.496,-0.378,0.113,-128.415,49.146,170.244,15_6_3.csv
2018-07-11T17:59:00.113071,-1.539,-0.645,-0.004,-45.183,21.098,174.39,15_6_3.csv
2018-07-11T17:59:00.174738,-1.261,-0.169,0.116,82.073,-35.488,32.317,15_6_3.csv
2018-07-11T17:59:00.238412,-1.261,-0.169,0.116,29.939,-32.622,-106.89,15_6_3.csv
2018-07-11T17:59:00.299078,-1.178,-0.165,-0.146,-21.402,-121.098,-211.524,15_6_3.csv
2018-07-11T17:59:00.361750,-1.096,-0.417,-0.082,57.866,-177.256,-188.963,15_6_3.csv
2018-07-11T17:59:00.405871,-0.956,-0.182,0.153,169.573,0.549,-108.842,15_6_3.csv
2018-07-11T17:59:00.459016,-0.956,-0.182,0.153,132.378,61.037,-106.463,15_6_3.csv
2018-07-11T17:59:00.520187,-1.166,-0.112,-0.17,84.939,19.878,-100.976,15_6_3.csv
2018-07-11T17:59:00.577340,-1.021,0.014,-0.065,69.573,-74.756,-100.671,15_6_3.csv
2018-07-11T17:59:00.626478,-1.021,0.014,-0.065,42.866,-54.085,-119.634,15_6_3.csv
2018-07-11T17:59:00.673606,-0.893,0.231,0.184,-44.024,5.061,-138.781,15_6_3.csv
2018-07-11T17:59:00.741794,-0.866,-0.234,0.243,-92.378,113.293,12.134,15_6_3.csv
2018-07-11T17:59:00.795942,-0.866,-0.234,0.243,54.268,140.671,124.451,15_6_3.csv
2018-07-11T17:59:00.859115,-1.03,0.029,0.176,79.268,62.561,152.012,15_6_3.csv
2018-07-11T17:59:00.905743,-1.165,0.042,0.384,-7.683,68.415,174.817,15_6_3.csv
2018-07-11T17:59:00.952370,-1.165,0.042,0.384,-160.366,106.037,169.207,15_6_3.csv
2018-07-11T17:59:00.999501,-1.614,-0.684,0.065,-287.622,146.342,139.024,15_6_3.csv
2018-07-11T17:59:01.068690,-1.389,-1.187,-0.315,-54.329,-68.171,104.146,15_6_3.csv
2018-07-11T17:59:01.187012,-1.361,-0.328,-0.218,67.988,-147.927,-112.988,15_6_3.csv
2018-07-11T17:59:01.241163,-1.081,-0.4,-0.038,3.841,-152.622,-199.146,15_6_3.csv
2018-07-11T17:59:01.296815,-1.191,-0.409,-0.332,150.976,23.659,-162.195,15_6_3.csv
2018-07-11T17:59:01.346452,-1.191,-0.409,-0.332,246.159,-19.756,-133.537,15_6_3.csv
2018-07-11T17:59:01.397091,-1.145,-0.247,-0.235,280.549,-44.634,-77.195,15_6_3.csv
2018-07-11T17:59:01.461768,-1.055,-0.123,-0.153,237.378,45.915,-44.207,15_6_3.csv
2018-07-11T17:59:01.514915,-1.055,-0.123,-0.153,166.22,20.366,-57.927,15_6_3.csv
2018-07-11T17:59:01.563045,-1.05,-0.14,-0.207,123.537,-28.415,-72.439,15_6_3.csv
2018-07-11T17:59:01.608670,-1.05,-0.14,-0.207,103.537,-42.866,-99.634,15_6_3.csv
2018-07-11T17:59:01.667830,-1.071,-0.068,-0.042,36.646,27.805,-179.817,15_6_3.csv
2018-07-11T17:59:01.719469,-1.027,0.28,0.175,45.122,84.817,-189.817,15_6_3.csv
2018-07-11T17:59:01.766094,-1.027,0.28,0.175,-18.963,95.427,-176.098,15_6_3.csv
2018-07-11T17:59:01.814726,-0.902,-0.167,0.299,35.0,224.085,137.561,15_6_3.csv
2018-07-11T17:59:01.860850,-1.272,-0.058,0.009,176.037,181.281,205.732,15_6_3.csv
2018-07-11T17:59:01.907477,-1.272,-0.058,0.009,217.5,93.049,199.573,15_6_3.csv
2018-07-11T17:59:01.957110,-1.249,0.249,0.278,120.305,47.012,162.134,15_6_3.csv
2018-07-11T17:59:02.016771,-1.215,-0.401,0.21,-209.207,69.085,2.5,15_6_3.csv
2018-07-11T17:59:02.078939,-1.215,-0.401,0.21,-192.378,81.768,-30.244,15_6_3.csv
2018-07-11T17:59:02.125565,-1.238,-0.993,-0.223,-25.915,52.195,-7.866,15_6_3.csv
2018-07-11T17:59:02.172692,-1.191,-0.324,-0.161,263.354,-7.317,8.11,15_6_3.csv
2018-07-11T17:59:02.220821,-1.191,-0.324,-0.161,180.061,-11.159,-36.28,15_6_3.csv
2018-07-11T17:59:02.282989,-0.909,-0.211,0.026,85.793,-7.805,-81.951,15_6_3.csv
2018-07-11T17:59:02.337636,-0.931,-0.506,-0.086,27.5,6.707,-116.585,15_6_3.csv
2018-07-11T17:59:02.394245,-0.931,-0.506,-0.086,65.366,-19.756,-66.829,15_6_3.csv
2018-07-11T17:59:02.441372,-0.944,-0.405,-0.068,124.329,-44.146,-23.049,15_6_3.csv
2018-07-11T17:59:02.580758,-0.926,-0.246,-0.07,33.902,-68.78,-9.634,15_6_3.csv
2018-07-11T17:59:02.622871,-0.926,-0.246,-0.07,26.037,-67.805,26.89,15_6_3.csv
2018-07-11T17:59:02.690057,-1.124,-0.144,-0.184,35.488,-69.756,49.146,15_6_3.csv
2018-07-11T17:59:02.740192,-0.984,-0.165,-0.034,-72.317,-64.634,10.61,15_6_3.csv
2018-07-11T17:59:02.797351,-0.984,-0.165,-0.034,-125.732,9.939,0.305,15_6_3.csv
2018-07-11T17:59:02.862029,-0.932,-0.352,0.064,30.427,187.378,-9.39,15_6_3.csv
2018-07-11T17:59:02.918682,-1.046,-0.15,0.022,60.183,149.39,3.476,15_6_3.csv
2018-07-11T17:59:02.970321,-1.046,-0.15,0.022,3.11,89.695,36.22,15_6_3.csv
2018-07-11T17:59:03.016445,-0.964,-0.257,0.182,-82.134,53.598,67.622,15_6_3.csv
2018-07-11T17:59:03.063572,-1.184,-0.583,0.14,-98.11,63.537,63.963,15_6_3.csv
2018-07-11T17:59:03.110198,-1.184,-0.583,0.14,-95.366,61.28,71.585,15_6_3.csv
2018-07-11T17:59:03.155821,-1.489,-0.873,-0.125,-27.012,39.817,89.207,15_6_3.csv
2018-07-11T17:59:03.223503,-1.277,-0.587,-0.134,159.268,-68.963,89.878,15_6_3.csv
2018-07-11T17:59:03.270130,-1.277,-0.587,-0.134,191.098,-95.427,54.268,15_6_3.csv
2018-07-11T17:59:03.324276,-0.885,-0.103,-0.027,143.11,-97.073,-24.878,15_6_3.csv
2018-07-11T17:59:03.374411,-0.885,-0.103,-0.027,56.524,-99.817,-87.5,15_6_3.csv
2018-07-11T17:59:03.435074,-1.009,-0.417,-0.064,16.28,-80.854,-53.415,15_6_3.csv
2018-07-11T17:59:03.483705,-1.021,-0.354,-0.235,84.207,-85.488,-35.183,15_6_3.csv
2018-07-11T17:59:03.533841,-1.021,-0.354,-0.235,111.342,-98.476,-44.695,15_6_3.csv
2018-07-11T17:59:03.582973,-1.085,-0.008,-0.299,-7.927,-106.281,-107.683,15_6_3.csv
2018-07-11T17:59:03.646143,-0.965,0.067,-0.23,-117.744,-104.939,-159.878,15_6_3.csv
2018-07-11T17:59:03.685750,-0.965,0.067,-0.23,-181.89,-51.098,-166.585,15_6_3.csv
2018-07-11T17:59:03.737893,-0.793,-0.18,-0.01,-133.659,42.866,-106.037,15_6_3.csv
2018-07-11T17:59:03.784017,-1.175,-0.563,0.323,-20.183,92.378,-10.427,15_6_3.csv
2018-07-11T17:59:03.879279,-0.905,-0.991,0.391,-138.598,-44.512,-21.646,15_6_3.csv
2018-07-11T17:59:03.942455,-0.142,-1.426,0.808,-88.72,-34.39,62.073,15_6_3.csv
2018-07-11T17:59:03.999610,-0.142,-1.426,0.808,-41.707,-44.268,77.134,15_6_3.csv
2018-07-11T17:59:04.082838,-0.557,-1.325,0.23,29.085,-69.817,74.634,15_6_3.csv
2018-07-11T17:59:04.126961,-1.007,-1.135,-0.025,195.61,-39.573,14.085,15_6_3.csv
2018-07-11T17:59:04.179102,-1.007,-1.135,-0.025,221.403,-26.037,-46.098,15_6_3.csv
2018-07-11T17:59:04.217207,-0.801,-0.818,0.087,206.281,-0.244,-85.854,15_6_3.csv
2018-07-11T17:59:04.276369,-0.79,-0.788,0.063,269.451,22.195,-31.098,15_6_3.csv
2018-07-11T17:59:04.348568,-0.973,-0.534,-0.179,360.793,75.488,42.622,15_6_3.csv
2018-07-11T17:59:04.408733,-0.973,-0.534,-0.179,342.134,39.634,75.366,15_6_3.csv
2018-07-11T17:59:04.467894,-1.197,0.007,-0.224,48.049,-87.5,-32.256,15_6_3.csv
2018-07-11T17:59:04.519537,-1.02,0.068,-0.212,-158.598,-92.195,-193.963,15_6_3.csv
2018-07-11T17:59:04.581204,-1.02,0.068,-0.212,-231.829,-30.915,-312.988,15_6_3.csv
2018-07-11T17:59:04.627332,-1.076,-0.604,-0.144,223.415,203.415,-120.549,15_6_3.csv
2018-07-11T17:59:04.675462,-1.273,-0.113,-0.228,234.329,313.781,-5.671,15_6_3.csv
2018-07-11T17:59:04.719082,-1.273,-0.113,-0.228,227.988,309.146,-53.537,15_6_3.csv
2018-07-11T17:59:04.767212,-1.73,0.404,0.804,203.171,213.354,-121.524,15_6_3.csv
2018-07-11T17:59:04.827374,-1.6,0.692,1.012,141.829,257.683,-25.793,15_6_3.csv
2018-07-11T17:59:04.878512,-1.6,0.692,1.012,-96.037,-24.085,-83.415,15_6_3.csv
2018-07-11T17:59:04.928146,-0.678,-0.159,-0.227,-87.927,-87.134,28.049,15_6_3.csv
2018-07-11T17:59:04.984799,-0.678,-0.159,-0.227,-92.378,-62.073,30.122,15_6_3.csv
2018-07-11T17:59:05.032428,-0.779,-0.402,-0.194,-58.78,3.11,111.646,15_6_3.csv
2018-07-11T17:59:05.078552,-1.457,-0.419,-0.097,-24.329,11.585,142.195,15_6_3.csv
2018-07-11T17:59:05.141722,-1.457,-0.419,-0.097,35.488,-33.415,150.427,15_6_3.csv
2018-07-11T17:59:05.240488,-1.151,-0.155,0.016,158.902,42.988,57.622,15_6_3.csv
2018-07-11T17:59:05.284607,-1.151,-0.155,0.016,126.342,13.415,48.78,15_6_3.csv
2018-07-11T17:59:05.328225,-1.155,-0.184,0.235,150.0,16.402,76.829,15_6_3.csv
2018-07-11T17:59:05.379363,-1.155,-0.184,0.235,142.195,23.354,64.817,15_6_3.csv
2018-07-11T17:59:05.420978,-1.099,0.146,0.038,80.305,-18.171,11.585,15_6_3.csv
2018-07-11T17:59:05.477130,-0.931,0.064,-0.12,-109.939,-160.366,-100.793,15_6_3.csv
2018-07-11T17:59:05.530278,-0.931,0.064,-0.12,-192.866,-167.622,-139.207,15_6_3.csv
2018-07-11T17:59:05.576402,-0.944,-0.175,-0.083,-239.573,-117.195,-156.037,15_6_3.csv
2018-07-11T17:59:05.632559,-1.014,-0.465,-0.009,-140.854,16.585,-61.951,15_6_3.csv
2018-07-11T17:59:05.677681,-1.014,-0.465,-0.009,10.061,65.976,18.537,15_6_3.csv
2018-07-11T17:59:05.721805,-1.17,-0.159,-0.116,163.354,101.829,43.476,15_6_3.csv
2018-07-11T17:59:05.774949,-1.17,-0.159,-0.116,207.012,55.732,30.488,15_6_3.csv
2018-07-11T17:59:05.826090,-1.039,0.219,-0.106,124.573,-40.061,-6.524,15_6_3.csv
2018-07-11T17:59:05.873218,-0.664,-0.219,0.043,-103.598,9.756,-51.524,15_6_3.csv
2018-07-11T17:59:05.924362,-0.664,-0.219,0.043,-116.646,68.72,-6.463,15_6_3.csv
2018-07-11T17:59:05.967478,-0.852,-0.589,-0.077,-23.11,99.268,67.439,15_6_3.csv
2018-07-11T17:59:06.018621,-0.852,-0.589,-0.077,131.342,97.744,148.842,15_6_3.csv
2018-07-11T17:59:06.074772,-1.153,-0.37,-0.151,339.512,92.744,208.293,15_6_3.csv
2018-07-11T17:59:06.123910,-1.725,0.596,0.272,335.549,103.537,161.342,15_6_3.csv
2018-07-11T17:59:06.176050,-1.725,0.596,0.272,136.159,125.0,-37.561,15_6_3.csv
2018-07-11T17:59:06.222179,-1.18,0.412,0.312,68.476,-8.354,-48.537,15_6_3.csv
2018-07-11T17:59:06.270309,-1.18,0.412,0.312,11.768,-40.549,37.744,15_6_3.csv
2018-07-11T17:59:06.327468,-1.342,-0.088,-0.043,-135.183,-168.232,12.073,15_6_3.csv
2018-07-11T17:59:06.377603,-1.351,-0.489,-0.35,-32.256,-290.549,72.927,15_6_3.csv
2018-07-11T17:59:06.452811,-0.855,0.041,-0.109,46.28,-241.159,6.159,15_6_3.csv
2018-07-11T17:59:06.518993,-0.849,-0.128,-0.128,-141.402,-54.695,-165.793,15_6_3.csv
2018-07-11T17:59:06.610877,-0.914,-0.387,-0.226,-84.085,46.707,-115.366,15_6_3.csv
2018-07-11T17:59:06.654996,-0.914,-0.387,-0.226,33.293,46.037,-70.122,15_6_3.csv
2018-07-11T17:59:06.710149,-1.18,-0.197,-0.017,137.927,79.268,-51.037,15_6_3.csv
2018-07-11T17:59:06.782848,-1.241,0.174,0.201,198.415,134.756,-73.293,15_6_3.csv
2018-07-11T17:59:06.834156,-1.184,0.433,0.209,156.829,162.378,-86.22,15_6_3.csv
2018-07-11T17:59:06.881788,-1.184,0.433,0.209,-12.378,98.902,-108.11,15_6_3.csv
2018-07-11T17:59:06.921394,-1.037,0.219,0.231,-68.232,52.561,-56.585,15_6_3.csv
2018-07-11T17:59:06.975039,-1.037,0.219,0.231,-95.122,13.415,13.537,15_6_3.csv
2018-07-11T17:59:07.020661,-0.997,-0.352,0.368,-150.427,-66.646,6.402,15_6_3.csv
2018-07-11T17:59:07.089347,-1.049,-0.219,0.377,34.573,8.963,203.903,15_6_3.csv
2018-07-11T17:59:07.161040,-1.401,0.307,0.125,28.963,115.366,195.0,15_6_3.csv
2018-07-11T17:59:07.220200,-1.401,0.307,0.125,-103.902,59.024,117.744,15_6_3.csv
2018-07-11T17:59:07.269336,-1.591,-0.069,-0.208,-202.317,-31.098,43.293,15_6_3.csv
2018-07-11T17:59:07.327491,-0.796,-0.531,-0.044,-211.159,-135.854,-23.841,15_6_3.csv
2018-07-11T17:59:07.374624,-0.796,-0.531,-0.044,-111.281,-72.805,-41.829,15_6_3.csv
2018-07-11T17:59:07.420748,-0.855,-0.519,-0.07,4.207,-21.098,-55.854,15_6_3.csv
2018-07-11T17:59:07.488820,-1.203,-0.285,-0.173,185.183,-18.841,5.122,15_6_3.csv
2018-07-11T17:59:07.550993,-1.203,-0.285,-0.173,213.842,-30.854,-27.012,15_6_3.csv
2018-07-11T17:59:07.598120,-1.14,-0.057,0.0,185.427,-17.744,-91.463,15_6_3.csv
2018-07-11T17:59:07.643745,-1.246,-0.096,0.015,142.683,-4.573,-155.305,15_6_3.csv
2018-07-11T17:59:07.688368,-1.246,-0.096,0.015,162.805,-17.073,-150.854,15_6_3.csv
2018-07-11T17:59:07.741514,-1.224,0.011,0.003,158.963,-30.305,-139.207,15_6_3.csv
2018-07-11T17:59:07.785636,-1.224,0.011,0.003,137.744,-34.756,-132.805,15_6_3.csv
2018-07-11T17:59:07.826747,-1.117,0.106,0.054,106.768,-24.878,-128.232,15_6_3.csv
2018-07-11T17:59:07.894432,-0.878,-0.005,0.265,32.927,19.329,-87.683,15_6_3.csv
2018-07-11T17:59:08.016261,-0.809,0.074,0.236,9.024,100.122,18.049,15_6_3.csv
2018-07-11T17:59:08.061884,-1.091,0.219,-0.005,-35.854,27.622,17.439,15_6_3.csv
2018-07-11T17:59:08.111520,-1.091,0.219,-0.005,-108.842,-45.0,32.622,15_6_3.csv
2018-07-11T17:59:08.160653,-0.984,-0.045,0.014,-192.378,-82.378,49.39,15_6_3.csv
2018-07-11T17:59:08.214804,-1.0,-0.236,0.128,-164.756,-12.134,96.768,15_6_3.csv
2018-07-11T17:59:08.265443,-1.0,-0.236,0.128,-108.11,44.451,137.134,15_6_3.csv
2018-07-11T17:59:08.331122,-1.283,-0.233,0.235,32.378,151.829,246.585,15_6_3.csv
2018-07-11T17:59:08.379254,-1.78,-0.03,0.082,49.695,159.268,275.793,15_6_3.csv
2018-07-11T17:59:08.425380,-1.78,-0.03,0.082,-2.561,102.683,241.646,15_6_3.csv
2018-07-11T17:59:08.500588,-1.428,-0.099,0.074,-116.463,-51.463,-22.866,15_6_3.csv
2018-07-11T17:59:08.546712,-0.888,-0.238,-0.001,-96.768,-18.902,-135.0,15_6_3.csv
2018-07-11T17:59:08.627936,-1.249,-0.419,-0.269,2.927,-126.646,-174.634,15_6_3.csv
2018-07-11T17:59:08.687100,-1.0,-0.054,0.004,191.89,-141.646,-82.927,15_6_3.csv
2018-07-11T17:59:08.738238,-1.0,-0.054,0.004,154.573,-47.5,-115.244,15_6_3.csv
2018-07-11T17:59:08.802417,-0.95,-0.043,-0.044,68.049,9.207,-143.476,15_6_3.csv
2018-07-11T17:59:08.844530,-0.95,-0.043,-0.044,42.073,9.39,-146.281,15_6_3.csv
2018-07-11T17:59:08.889153,-1.162,-0.101,-0.165,90.061,-39.573,-101.768,15_6_3.csv
2018-07-11T17:59:08.940793,-1.073,0.202,-0.018,49.146,-36.22,-82.378,15_6_3.csv
2018-07-11T17:59:09.003962,-1.073,0.202,-0.018,-14.39,14.268,-75.732,15_6_3.csv
2018-07-11T17:59:09.078163,-0.955,0.322,0.261,-235.122,138.293,36.341,15_6_3.csv
2018-07-11T17:59:09.129303,-1.255,-0.222,0.028,191.524,114.573,245.976,15_6_3.csv
2018-07-11T17:59:09.191974,-1.313,0.196,-0.268,230.427,-54.573,206.159,15_6_3.csv
2018-07-11T17:59:09.249633,-0.929,0.032,0.218,27.256,-106.524,93.354,15_6_3.csv
2018-07-11T17:59:09.449757,-1.035,-0.405,0.112,169.329,33.841,98.537,15_6_3.csv
2018-07-11T17:59:09.500899,-1.283,-0.026,-0.052,174.329,-39.878,80.854,15_6_3.csv
2018-07-11T17:59:09.550032,-1.283,-0.026,-0.052,124.756,-120.732,34.146,15_6_3.csv
2018-07-11T17:59:09.596803,-1.537,0.0,-0.14,76.524,-175.549,-26.28,15_6_3.csv
2018-07-11T17:59:09.641924,-1.537,0.0,-0.14,56.829,-185.732,-80.915,15_6_3.csv
2018-07-11T17:59:09.687048,-1.146,-0.139,-0.046,21.89,-128.232,-106.707,15_6_3.csv
2018-07-11T17:59:09.740194,-1.292,-0.233,-0.403,57.683,-17.988,-115.61,15_6_3.csv
2018-07-11T17:59:09.803369,-1.292,-0.233,-0.403,97.683,-55.61,-57.012,15_6_3.csv
2018-07-11T17:59:09.877569,-1.205,0.126,-0.836,44.451,-213.963,-78.963,15_6_3.csv
2018-07-11T17:59:09.937482,-0.533,-0.017,-0.16,-42.317,68.902,-98.72,15_6_3.csv
2018-07-11T17:59:09.985112,-0.532,-0.45,0.019,-93.232,217.378,-46.098,15_6_3.csv
2018-07-11T17:59:10.030738,-0.532,-0.45,0.019,-43.72,257.195,-64.451,15_6_3.csv
2018-07-11T17:59:10.083884,-1.38,-0.711,-0.148,86.037,201.646,-83.171,15_6_3.csv
2018-07-11T17:59:10.131512,-1.77,-0.123,0.042,196.463,52.805,14.451,15_6_3.csv
2018-07-11T17:59:10.193680,-1.77,-0.123,0.042,196.342,74.146,10.549,15_6_3.csv
2018-07-11T17:59:10.244316,-1.106,0.045,0.174,79.146,99.329,7.866,15_6_3.csv
2018-07-11T17:59:10.311999,-1.007,-0.279,-0.127,127.805,71.098,143.598,15_6_3.csv
2018-07-11T17:59:10.358627,-1.007,-0.279,-0.127,210.244,-7.561,153.842,15_6_3.csv
2018-07-11T17:59:10.411770,-0.644,0.084,0.053,163.293,-72.195,106.951,15_6_3.csv
2018-07-11T17:59:10.461910,-0.739,-0.383,0.329,-90.0,8.232,30.61,15_6_3.csv
2018-07-11T17:59:10.529093,-0.739,-0.383,0.329,-99.451,105.061,78.537,15_6_3.csv
2018-07-11T17:59:10.603260,-1.46,-0.693,-0.151,-165.549,82.012,-178.72,15_6_3.csv
2018-07-11T17:59:10.692505,-1.02,-0.975,-0.392,101.89,9.573,-161.342,15_6_3.csv
2018-07-11T17:59:10.740641,-0.762,-0.473,-0.207,173.963,-30.61,-47.744,15_6_3.csv
2018-07-11T17:59:10.781751,-0.941,-0.631,-0.162,18.963,38.232,-48.049,15_6_3.csv
2018-07-11T17:59:10.843923,-0.941,-0.631,-0.162,-12.683,111.89,-15.732,15_6_3.csv
2018-07-11T17:59:10.904085,-0.798,-0.724,-0.442,261.22,-35.61,46.402,15_6_3.csv
2018-07-11T17:59:10.964250,-0.657,-0.051,-0.185,321.524,-52.134,24.024,15_6_3.csv
2018-07-11T17:59:11.020401,-1.096,0.057,-0.013,157.073,-99.817,-6.829,15_6_3.csv
2018-07-11T17:59:11.076555,-1.096,0.057,-0.013,60.61,-86.707,14.878,15_6_3.csv
2018-07-11T17:59:11.125688,-1.283,0.039,-0.093,-13.232,-47.134,36.463,15_6_3.csv
2018-07-11T17:59:11.172819,-1.283,0.039,-0.093,-101.585,-22.134,15.976,15_6_3.csv
2018-07-11T17:59:11.219946,-1.147,-0.193,-0.069,-169.878,49.268,75.488,15_6_3.csv
2018-07-11T17:59:11.288135,-0.933,-0.366,0.143,-60.427,98.841,148.11,15_6_3.csv
2018-07-11T17:59:11.358329,-0.864,0.001,0.193,122.073,192.561,205.915,15_6_3.csv
2018-07-11T17:59:11.405456,-0.864,0.001,0.193,26.037,157.5,205.305,15_6_3.csv
2018-07-11T17:59:11.472642,-1.271,-0.24,0.111,-6.463,46.159,215.0,15_6_3.csv
2018-07-11T17:59:11.535815,-1.71,-0.376,0.247,21.341,30.488,149.512,15_6_3.csv
2018-07-11T17:59:11.594977,-2.157,-0.29,-0.151,37.561,15.732,-7.805,15_6_3.csv
2018-07-11T17:59:11.641605,-2.157,-0.29,-0.151,98.293,-94.085,-102.256,15_6_3.csv
2018-07-11T17:59:11.686228,-1.854,0.048,-0.561,106.098,-269.024,-175.488,15_6_3.csv
2018-07-11T17:59:11.753414,-0.924,-0.038,-0.075,-5.244,-308.842,-264.817,15_6_3.csv
2018-07-11T17:59:11.811572,-0.924,-0.038,-0.075,-68.659,-183.049,-252.317,15_6_3.csv
2018-07-11T17:59:11.861712,-0.634,-0.248,-0.061,22.744,37.073,-203.293,15_6_3.csv
2018-07-11T17:59:11.911847,-1.148,-0.212,-0.325,129.39,15.549,-160.732,15_6_3.csv
2018-07-11T17:59:11.959982,-1.148,-0.212,-0.325,161.951,-47.195,-87.927,15_6_3.csv
2018-07-11T17:59:12.055241,-1.144,0.084,-0.226,54.329,-40.793,-33.537,15_6_3.csv
2018-07-11T17:59:12.109889,-0.775,0.105,-0.034,-236.159,32.073,-39.817,15_6_3.csv
2018-07-11T17:59:12.155512,-0.931,-0.561,0.185,-18.354,225.549,154.756,15_6_3.csv
2018-07-11T17:59:12.204645,-0.931,-0.561,0.185,240.427,370.427,295.671,15_6_3.csv
2018-07-11T17:59:12.248262,-1.283,0.101,-0.144,282.5,321.829,288.598,15_6_3.csv
2018-07-11T17:59:12.295890,-1.283,0.101,-0.144,189.817,225.793,215.244,15_6_3.csv
2018-07-11T17:59:12.358559,-1.2,0.132,0.111,88.902,92.256,80.549,15_6_3.csv
2018-07-11T17:59:12.410201,-1.349,-0.01,0.453,64.573,106.463,51.402,15_6_3.csv
2018-07-11T17:59:12.467356,-1.794,-0.098,0.279,41.098,148.354,93.171,15_6_3.csv
2018-07-11T17:59:12.521505,-1.794,-0.098,0.279,100.549,93.72,116.768,15_6_3.csv
2018-07-11T17:59:12.561614,-2.19,-0.024,-0.341,109.695,-65.915,130.793,15_6_3.csv
2018-07-11T17:59:12.613757,-2.19,-0.024,-0.341,89.268,-229.817,145.976,15_6_3.csv
2018-07-11T17:59:12.670911,-1.532,-0.036,-0.294,-69.573,-318.659,24.39,15_6_3.csv
2018-07-11T17:59:12.718539,-0.858,-0.183,-0.082,-123.72,-257.744,-65.183,15_6_3.csv
2018-07-11T17:59:12.765667,-0.858,-0.183,-0.082,-134.329,-163.781,-129.329,15_6_3.csv
2018-07-11T17:59:12.827835,-1.416,-0.269,-0.478,-13.293,-169.451,-149.329,15_6_3.csv
2018-07-11T17:59:12.883986,-1.566,-0.035,-0.541,13.415,-230.061,-112.317,15_6_3.csv
2018-07-11T17:59:12.944148,-1.566,-0.035,-0.541,-69.634,-220.183,-120.854,15_6_3.csv
2018-07-11T17:59:12.984256,-0.624,0.86,-0.008,-284.085,-110.366,-213.232,15_6_3.csv
2018-07-11T17:59:13.031383,-0.696,0.136,0.5,-336.585,355.427,-178.598,15_6_3.csv
2018-07-11T17:59:13.094053,-0.696,0.136,0.5,-114.512,467.988,339.207,15_6_3.csv
2018-07-11T17:59:13.141180,-1.882,-0.115,-0.43,124.024,231.037,553.232,15_6_3.csv
2018-07-11T17:59:13.195326,-1.3,0.586,0.139,301.098,-75.061,495.915,15_6_3.csv
2018-07-11T17:59:13.250975,-1.3,0.586,0.139,54.024,-24.695,284.451,15_6_3.csv
2018-07-11T17:59:13.301111,-1.122,-0.184,0.493,-118.171,45.671,91.951,15_6_3.csv
2018-07-11T17:59:13.347737,-1.944,-0.337,-0.384,-162.5,105.488,-2.744,15_6_3.csv
2018-07-11T17:59:13.455883,-1.944,-0.337,-0.384,245.183,-99.39,67.561,15_6_3.csv
2018-07-11T17:59:13.508028,-1.932,0.299,-0.363,254.756,-295.61,3.841,15_6_3.csv
2018-07-11T17:59:13.598776,-1.932,0.299,-0.363,-14.817,-309.329,-337.195,15_6_3.csv
2018-07-11T17:59:13.710076,-1.481,-0.223,-0.323,8.11,-40.305,-339.329,15_6_3.csv
2018-07-11T17:59:13.756702,-1.47,-0.106,-0.38,130.549,-25.915,-285.854,15_6_3.csv
2018-07-11T17:59:13.812853,-1.47,-0.106,-0.38,154.146,-56.829,-214.085,15_6_3.csv
2018-07-11T17:59:13.860983,-1.118,0.095,-0.228,104.878,-76.28,-173.537,15_6_3.csv
2018-07-11T17:59:13.912622,-0.847,0.012,0.022,3.72,47.256,-225.915,15_6_3.csv
2018-07-11T17:59:13.958245,-0.847,0.012,0.022,36.707,125.793,-202.988,15_6_3.csv
2018-07-11T17:59:14.017906,-0.757,-0.06,0.293,123.476,206.707,-124.817,15_6_3.csv
2018-07-11T17:59:14.069545,-0.757,-0.06,0.293,194.512,276.342,-25.305,15_6_3.csv
2018-07-11T17:59:14.110656,-0.962,0.512,0.341,148.293,358.049,66.89,15_6_3.csv
2018-07-11T17:59:14.156279,-1.608,0.116,0.108,-245.244,211.098,72.622,15_6_3.csv
2018-07-11T17:59:14.212932,-1.608,0.116,0.108,-390.244,130.549,73.049,15_6_3.csv
2018-07-11T17:59:14.264572,-1.577,-0.93,-0.06,-406.342,52.866,97.256,15_6_3.csv
2018-07-11T17:59:14.342281,-0.922,-0.967,0.273,-15.793,-112.012,179.146,15_6_3.csv
2018-07-11T17:59:14.422500,-1.125,-0.196,0.286,226.89,210.61,206.403,15_6_3.csv
2018-07-11T17:59:14.489182,-1.537,-0.03,-0.096,33.232,105.61,87.134,15_6_3.csv
2018-07-11T17:59:14.535808,-1.537,-0.03,-0.096,-15.427,-19.512,12.317,15_6_3.csv
2018-07-11T17:59:14.578924,-1.729,-0.196,-0.159,-33.232,-138.781,-56.098,15_6_3.csv
2018-07-11T17:59:14.627054,-1.729,-0.196,-0.159,-56.037,-200.122,-103.72,15_6_3.csv
2018-07-11T17:59:14.678693,-1.102,-0.097,0.003,-98.232,-90.61,-248.903,15_6_3.csv
2018-07-11T17:59:14.781473,-1.256,-0.26,-0.191,59.085,-81.585,-179.756,15_6_3.csv
2018-07-11T17:59:14.833614,-0.939,-0.1,-0.058,147.256,-117.012,-122.988,15_6_3.csv
2018-07-11T17:59:14.883754,-0.734,-0.082,0.013,82.5,-0.305,-50.549,15_6_3.csv
2018-07-11T17:59:14.952940,-0.734,-0.082,0.013,82.866,10.0,-29.756,15_6_3.csv
2018-07-11T17:59:15.001574,-0.663,-0.071,-0.042,36.341,12.378,-16.037,15_6_3.csv
2018-07-11T17:59:15.047197,-0.703,-0.063,-0.12,-5.061,26.524,-14.695,15_6_3.csv
2018-07-11T17:59:15.093321,-0.703,-0.063,-0.12,-27.622,43.598,17.805,15_6_3.csv
2018-07-11T17:59:15.148470,-1.286,-0.542,-0.094,-14.207,33.049,68.78,15_6_3.csv
2018-07-11T17:59:15.223673,-1.564,0.31,0.167,563.415,330.854,214.146,15_6_3.csv
2018-07-11T17:59:15.268293,-1.564,0.31,0.167,458.171,298.415,155.793,15_6_3.csv
2018-07-11T17:59:15.319934,-1.496,1.802,0.602,-350.915,-271.342,-100.488,15_6_3.csv
2018-07-11T17:59:15.379092,-0.963,0.129,-0.554,-455.427,-160.0,-203.354,15_6_3.csv
2018-07-11T17:59:15.424214,-0.963,0.129,-0.554,-670.366,-154.085,-121.098,15_6_3.csv
2018-07-11T17:59:15.469837,-0.681,-0.187,-0.853,-709.146,-192.134,-89.695,15_6_3.csv
2018-07-11T17:59:15.519471,-0.554,-0.312,-0.617,-488.354,-191.159,-116.951,15_6_3.csv
2018-07-11T17:59:15.578630,-0.554,-0.312,-0.617,-245.122,-214.39,38.171,15_6_3.csv
2018-07-11T17:59:15.630771,-0.78,-1.161,-0.374,105.793,-165.305,266.463,15_6_3.csv
2018-07-11T17:59:15.686922,-0.984,-0.568,-1.668,1029.878,409.634,563.781,15_6_3.csv
2018-07-11T17:59:15.735052,-0.984,-0.568,-1.668,882.317,287.317,447.866,15_6_3.csv
2018-07-11T17:59:15.786692,-1.707,1.14,-0.412,523.963,67.805,201.403,15_6_3.csv
2018-07-11T17:59:15.845852,-0.897,1.048,0.002,-86.951,-129.268,-147.195,15_6_3.csv
2018-07-11T17:59:15.890973,-0.897,1.048,0.002,-231.342,-156.098,-105.732,15_6_3.csv
2018-07-11T17:59:15.962666,-0.689,0.133,-0.378,286.402,-171.585,162.012,15_6_3.csv
2018-07-11T17:59:16.024332,-1.26,0.321,0.304,580.854,-9.451,202.073,15_6_3.csv
2018-07-11T17:59:16.065945,-1.26,0.321,0.304,514.634,187.5,-4.451,15_6_3.csv
2018-07-11T17:59:16.297578,-0.915,-0.17,-0.435,-467.012,-153.11,-261.463,15_6_3.csv
2018-07-11T17:59:16.361751,-1.284,-0.325,-0.586,-352.866,-138.902,-250.61,15_6_3.csv
2018-07-11T17:59:16.424926,-1.156,-0.132,-0.169,-177.866,-127.561,-237.073,15_6_3.csv
2018-07-11T17:59:16.476067,-1.156,-0.132,-0.169,-149.634,1.463,-211.585,15_6_3.csv
2018-07-11T17:59:16.534226,-0.778,-0.381,0.037,151.281,252.134,-100.671,15_6_3.csv
2018-07-11T17:59:16.602414,-1.021,-0.052,-0.195,325.061,259.146,-90.854,15_6_3.csv
2018-07-11T17:59:16.654555,-1.003,0.657,0.683,183.842,131.585,-48.963,15_6_3.csv
2018-07-11T17:59:16.710208,-1.003,0.657,0.683,-85.061,137.805,6.829,15_6_3.csv
2018-07-11T17:59:16.773379,-1.923,-0.43,-0.076,-502.378,147.805,-259.207,15_6_3.csv
2018-07-11T17:59:16.834042,-0.695,-0.946,-0.92,109.329,-307.622,-331.402,15_6_3.csv
2018-07-11T17:59:16.891197,-0.122,-0.195,0.199,-52.012,-461.463,-49.451,15_6_3.csv
2018-07-11T17:59:16.937323,-0.122,-0.195,0.199,-100.915,-213.171,102.134,15_6_3.csv
2018-07-11T17:59:16.985453,-0.625,-0.124,-0.178,-174.329,-57.866,131.22,15_6_3.csv
2018-07-11T17:59:17.029577,-0.625,-0.124,-0.178,-188.11,-46.098,130.366,15_6_3.csv
2018-07-11T17:59:17.090743,-1.25,-0.391,-0.655,-272.012,-76.829,207.012,15_6_3.csv
2018-07-11T17:59:17.149906,-1.459,-1.201,-0.795,-40.244,-170.854,231.524,15_6_3.csv
2018-07-11T17:59:17.210573,-1.263,-0.749,-0.453,608.354,39.024,248.903,15_6_3.csv
2018-07-11T17:59:17.253190,-1.263,-0.749,-0.453,579.939,156.22,132.378,15_6_3.csv
2018-07-11T17:59:17.300821,-1.224,0.046,-0.037,422.5,148.963,-33.476,15_6_3.csv
2018-07-11T17:59:17.344441,-1.224,0.046,-0.037,326.098,49.878,-102.256,15_6_3.csv
2018-07-11T17:59:17.405108,-0.638,0.898,-0.221,620.976,-138.11,67.561,15_6_3.csv
2018-07-11T17:59:17.507890,-1.437,0.157,0.06,-62.5,32.073,177.927,15_6_3.csv
2018-07-11T17:59:17.582093,-1.952,-0.673,-0.271,113.537,-112.439,213.232,15_6_3.csv
2018-07-11T17:59:17.627220,-1.245,-0.164,-0.267,107.561,-200.671,179.573,15_6_3.csv
2018-07-11T17:59:17.678358,-1.245,-0.164,-0.267,19.695,-223.659,30.122,15_6_3.csv
2018-07-11T17:59:17.720976,-0.915,0.119,-0.101,-118.902,-185.427,-161.829,15_6_3.csv
2018-07-11T17:59:17.804702,-0.968,-0.376,-0.298,-252.988,-60.183,-322.256,15_6_3.csv
2018-07-11T17:59:17.877397,-1.223,-0.3,-0.146,45.427,-24.573,-243.232,15_6_3.csv
2018-07-11T17:59:17.924023,-1.223,-0.3,-0.146,190.244,4.878,-203.781,15_6_3.csv
2018-07-11T17:59:17.969144,-1.07,0.338,0.006,232.622,37.195,-175.976,15_6_3.csv
2018-07-11T17:59:18.016274,-0.61,0.449,0.334,-40.976,76.707,-116.524,15_6_3.csv
2018-07-11T17:59:18.078444,-0.61,0.449,0.334,-129.451,177.927,1.463,15_6_3.csv
2018-07-11T17:59:18.138609,-0.991,0.341,0.263,-181.159,210.732,219.939,15_6_3.csv
2018-07-11T17:59:18.199777,-1.591,-0.48,-0.257,-118.476,83.659,279.634,15_6_3.csv
2018-07-11T17:59:18.250915,-1.591,-0.48,-0.257,97.805,-83.902,339.024,15_6_3.csv
2018-07-11T17:59:18.298047,-1.432,0.186,-0.183,85.061,-52.439,29.634,15_6_3.csv
2018-07-11T17:59:18.345175,-1.593,0.115,-0.061,-141.89,-38.598,-148.293,15_6_3.csv
2018-07-11T17:59:18.390299,-1.593,0.115,-0.061,-258.171,57.683,-220.549,15_6_3.csv
2018-07-11T17:59:18.452468,-1.388,-0.618,-0.254,-295.793,159.39,-249.512,15_6_3.csv
2018-07-11T17:59:18.519653,-0.876,-1.004,-0.021,-180.671,-60.183,-234.451,15_6_3.csv
2018-07-11T17:59:18.569787,-0.876,-1.004,-0.021,-18.476,-166.89,-145.305,15_6_3.csv
2018-07-11T17:59:18.624437,-0.369,-0.72,0.476,-324.451,-59.024,-86.22,15_6_3.csv
2018-07-11T17:59:18.675074,-0.629,-0.979,-0.229,-413.902,25.0,-28.537,15_6_3.csv
2018-07-11T17:59:18.719193,-0.629,-0.979,-0.229,-21.646,56.951,-106.707,15_6_3.csv
2018-07-11T17:59:18.781862,-0.435,-0.638,-1.039,246.037,101.159,-258.963,15_6_3.csv
2018-07-11T17:59:18.951826,0.469,-0.316,0.665,102.744,222.683,-106.646,15_6_3.csv
2018-07-11T17:59:19.000959,0.362,-1.688,-0.721,32.317,209.695,70.305,15_6_3.csv
2018-07-11T17:59:19.046086,0.362,-1.688,-0.721,95.122,100.305,178.293,15_6_3.csv
2018-07-11T17:59:19.096221,-0.391,-2.913,-1.185,198.842,422.744,-172.805,15_6_3.csv
2018-07-11T17:59:19.141348,-0.513,-0.465,-0.459,148.781,458.232,-86.098,15_6_3.csv
2018-07-11T17:59:19.199504,-0.513,-0.465,-0.459,227.195,424.573,66.463,15_6_3.csv
2018-07-11T17:59:19.261676,-0.531,-0.161,-0.084,133.293,327.317,103.415,15_6_3.csv
2018-07-11T17:59:19.314321,-0.773,-0.305,-0.198,45.732,343.72,98.537,15_6_3.csv
2018-07-11T17:59:19.374987,-0.773,-0.305,-0.198,-6.768,278.11,94.695,15_6_3.csv
2018-07-11T17:59:19.423121,-0.704,-0.429,-0.037,88.963,151.646,84.268,15_6_3.csv
2018-07-11T17:59:19.468244,-0.629,-0.227,0.129,204.939,27.622,57.561,15_6_3.csv
2018-07-11T17:59:19.528411,-0.629,-0.227,0.129,218.171,-114.695,-5.793,15_6_3.csv
2018-07-11T17:59:19.585566,-0.817,0.143,0.044,-73.232,-248.11,-84.085,15_6_3.csv
2018-07-11T17:59:19.640719,-1.228,0.108,-0.588,-262.195,-380.976,-75.183,15_6_3.csv
2018-07-11T17:59:19.702887,-1.554,-0.496,-1.547,-518.781,-584.268,62.561,15_6_3.csv
2018-07-11T17:59:19.753025,-1.554,-0.496,-1.547,-679.39,-554.878,126.585,15_6_3.csv
2018-07-11T17:59:19.797145,-1.257,-2.836,-0.86,-518.415,-497.622,170.305,15_6_3.csv
2018-07-11T17:59:19.856308,-1.257,-2.836,-0.86,129.512,-83.476,211.159,15_6_3.csv
2018-07-11T17:59:19.921987,-0.75,-1.417,-0.458,-340.305,-125.244,-73.171,15_6_3.csv
2018-07-11T17:59:19.976637,-0.22,-0.658,-0.566,-66.037,-25.732,-29.695,15_6_3.csv
2018-07-11T17:59:20.023265,-0.082,-0.702,-0.566,-84.39,-39.268,28.293,15_6_3.csv
2018-07-11T17:59:20.067886,-0.082,-0.702,-0.566,-88.354,-41.951,37.683,15_6_3.csv
2018-07-11T17:59:20.112006,-0.169,-1.114,-0.457,-73.049,-35.549,17.195,15_6_3.csv
2018-07-11T17:59:20.231328,-0.352,-1.061,-0.092,-17.256,-26.22,-87.5,15_6_3.csv
2018-07-11T17:59:20.295502,0.086,-0.822,-0.191,-129.695,-89.329,-93.232,15_6_3.csv
2018-07-11T17:59:20.359679,-0.341,-1.649,-0.437,-23.78,235.366,148.049,15_6_3.csv
2018-07-11T17:59:20.406307,-0.341,-1.649,-0.437,273.659,160.549,156.585,15_6_3.csv
2018-07-11T17:59:20.453938,-1.3,-2.696,-1.784,659.024,102.744,213.293,15_6_3.csv
2018-07-11T17:59:20.501066,-1.3,-2.696,-1.784,1257.927,87.744,414.146,15_6_3.csv
2018-07-11T17:59:20.559226,-1.069,1.277,-0.818,-145.305,-314.39,-31.098,15_6_3.csv
2018-07-11T17:59:20.616385,0.117,0.366,-0.085,-266.646,-418.902,-305.732,15_6_3.csv
2018-07-11T17:59:20.678552,-0.056,-2.041,0.155,-126.159,9.085,-145.793,15_6_3.csv
2018-07-11T17:59:20.718665,-0.056,-2.041,0.155,248.903,66.098,111.646,15_6_3.csv
2018-07-11T17:59:20.768800,-0.322,-0.748,0.203,327.5,154.329,144.878,15_6_3.csv
2018-07-11T17:59:20.811919,-0.322,-0.748,0.203,208.049,266.585,78.049,15_6_3.csv
2018-07-11T17:59:20.874588,-0.737,-0.264,0.252,24.39,219.451,-111.585,15_6_3.csv
2018-07-11T17:59:20.935251,-1.079,-0.665,0.407,2.561,119.695,-170.549,15_6_3.csv
2018-07-11T17:59:21.003435,-0.849,-0.453,0.545,75.854,-17.744,-129.695,15_6_3.csv
2018-07-11T17:59:21.055578,-0.849,-0.453,0.545,83.293,17.012,-90.61,15_6_3.csv
2018-07-11T17:59:21.096689,-0.922,0.01,0.512,50.854,96.28,-76.037,15_6_3.csv
2018-07-11T17:59:21.140813,-0.922,0.01,0.512,-4.146,175.854,-28.354,15_6_3.csv
2018-07-11T17:59:21.199973,-1.314,0.134,0.22,-167.012,109.146,58.598,15_6_3.csv
2018-07-11T17:59:21.260140,-1.045,-0.061,0.069,-147.805,45.427,124.451,15_6_3.csv
2018-07-11T17:59:21.313283,-1.292,0.06,-0.164,-115.61,-82.561,163.537,15_6_3.csv
2018-07-11T17:59:21.359412,-1.292,0.06,-0.164,-184.024,-123.11,164.512,15_6_3.csv
2018-07-11T17:59:21.414561,-1.602,-0.146,-0.234,-301.159,-128.781,160.122,15_6_3.csv
2018-07-11T17:59:21.474727,-1.22,-0.36,-0.201,-360.549,-88.415,131.585,15_6_3.csv
2018-07-11T17:59:21.603079,-1.043,-0.479,-0.023,-128.354,40.0,81.768,15_6_3.csv
2018-07-11T17:59:21.669262,-0.99,-0.532,-0.114,-25.976,-28.171,89.817,15_6_3.csv
2018-07-11T17:59:21.718395,-1.174,-0.581,-0.164,21.646,-28.598,81.402,15_6_3.csv
2018-07-11T17:59:21.763152,-1.174,-0.581,-0.164,63.72,-29.817,46.768,15_6_3.csv
2018-07-11T17:59:21.813001,-1.016,-0.437,0.032,93.476,-2.805,-30.732,15_6_3.csv
2018-07-11T17:59:21.857374,-1.016,-0.437,0.032,108.902,86.098,-107.378,15_6_3.csv
2018-07-11T17:59:21.904502,-1.389,-0.412,-0.296,142.5,93.293,-147.622,15_6_3.csv
2018-07-11T17:59:21.997779,-1.609,-0.103,-0.309,395.305,-40.976,-133.781,15_6_3.csv
2018-07-11T17:59:22.045915,-1.254,0.181,0.003,286.89,-12.195,-172.744,15_6_3.csv
2018-07-11T17:59:22.112093,-0.977,-0.069,0.027,65.549,9.085,-179.878,15_6_3.csv
2018-07-11T17:59:22.156216,-0.977,-0.069,0.027,53.476,1.829,-147.317,15_6_3.csv
2018-07-11T17:59:22.207354,-0.851,-0.09,0.006,58.902,-15.549,-114.39,15_6_3.csv
2018-07-11T17:59:22.248468,-0.851,-0.09,0.006,44.573,-22.988,-87.134,15_6_3.csv
2018-07-11T17:59:22.307126,-0.858,-0.042,0.098,26.341,-10.854,-61.707,15_6_3.csv
2018-07-11T17:59:22.361272,-0.988,-0.064,0.231,-9.024,37.073,16.341,15_6_3.csv
2018-07-11T17:59:22.406394,-0.988,-0.064,0.231,-18.902,51.037,69.329,15_6_3.csv
2018-07-11T17:59:22.462046,-0.92,-0.04,0.268,-37.012,77.988,120.305,15_6_3.csv
2018-07-11T17:59:22.516192,-1.349,-0.029,0.01,-80.915,52.134,151.463,15_6_3.csv
2018-07-11T17:59:22.578364,-1.349,-0.029,0.01,-98.476,-2.805,157.378,15_6_3.csv
2018-07-11T17:59:22.627499,-1.276,-0.107,0.017,-144.085,-38.354,138.963,15_6_3.csv
2018-07-11T17:59:22.670618,-1.276,-0.107,0.017,-182.073,-17.012,102.744,15_6_3.csv
2018-07-11T17:59:22.722759,-1.133,-0.207,0.001,-190.976,29.268,62.927,15_6_3.csv
2018-07-11T17:59:22.765881,-1.222,-0.306,-0.031,-173.72,2.317,62.5,15_6_3.csv
2018-07-11T17:59:22.827549,-1.222,-0.306,-0.031,-153.11,-19.573,70.061,15_6_3.csv
2018-07-11T17:59:22.875180,-1.196,-0.363,-0.021,-213.598,-12.927,52.805,15_6_3.csv
2018-07-11T17:59:22.958409,-1.259,-0.901,-0.225,-34.573,-73.598,18.598,15_6_3.csv
2018-07-11T17:59:23.006539,-0.86,-0.443,0.019,114.39,-34.268,-28.476,15_6_3.csv
2018-07-11T17:59:23.077736,-1.396,-0.238,-0.216,43.963,54.939,-180.122,15_6_3.csv
2018-07-11T17:59:23.124864,-1.396,-0.238,-0.216,43.537,-25.244,-192.073,15_6_3.csv
2018-07-11T17:59:23.170993,-1.397,-0.301,-0.221,140.915,-51.098,-174.146,15_6_3.csv
2018-07-11T17:59:23.221128,-1.397,-0.301,-0.221,219.756,-15.122,-159.878,15_6_3.csv
2018-07-11T17:59:23.265251,-1.039,-0.154,-0.175,227.5,30.732,-150.244,15_6_3.csv
2018-07-11T17:59:23.312379,-1.039,-0.154,-0.175,232.683,55.549,-135.061,15_6_3.csv
2018-07-11T17:59:23.384578,-1.031,-0.117,-0.234,265.976,69.085,-98.11,15_6_3.csv
2018-07-11T17:59:23.445747,-1.005,-0.012,-0.146,148.293,57.744,-94.512,15_6_3.csv
2018-07-11T17:59:23.499894,-1.056,-0.028,-0.039,90.976,66.159,-104.085,15_6_3.csv
2018-07-11T17:59:23.547024,-1.056,-0.028,-0.039,63.78,85.671,-107.317,15_6_3.csv
2018-07-11T17:59:23.604178,-0.954,-0.012,0.157,45.244,124.085,-76.037,15_6_3.csv
2018-07-11T17:59:23.660834,-1.087,-0.03,0.188,44.939,160.854,-10.427,15_6_3.csv
2018-07-11T17:59:23.703449,-1.087,-0.03,0.188,42.988,152.012,71.768,15_6_3.csv
2018-07-11T17:59:23.757094,-1.249,-0.099,0.142,59.39,104.268,142.5,15_6_3.csv
2018-07-11T17:59:23.802717,-1.548,-0.279,0.644,17.317,123.415,144.207,15_6_3.csv
2018-07-11T17:59:23.844329,-1.548,-0.279,0.644,-332.5,-33.415,-125.244,15_6_3.csv
2018-07-11T17:59:23.907499,-0.787,-1.086,0.358,-222.5,-76.646,-20.0,15_6_3.csv
2018-07-11T17:59:23.962648,-0.864,-0.205,-0.053,292.622,76.524,88.902,15_6_3.csv
2018-07-11T17:59:24.013786,-0.864,-0.205,-0.053,246.646,44.573,88.11,15_6_3.csv
2018-07-11T17:59:24.064422,-1.179,0.122,-0.178,159.146,12.561,90.244,15_6_3.csv
2018-07-11T17:59:24.109043,-1.179,0.122,-0.178,69.451,-12.378,47.256,15_6_3.csv
2018-07-11T17:59:24.154679,-1.082,0.557,-0.127,-38.598,-61.28,-28.72,15_6_3.csv
2018-07-11T17:59:24.210831,-0.974,0.0,-0.021,-371.524,-21.098,-148.537,15_6_3.csv
2018-07-11T17:59:24.324141,-1.074,-0.116,-0.014,66.037,-41.646,92.805,15_6_3.csv
2018-07-11T17:59:24.388319,-1.106,0.278,-0.063,21.341,-63.598,96.22,15_6_3.csv
2018-07-11T17:59:24.438957,-1.106,0.278,-0.063,-86.402,-69.573,80.183,15_6_3.csv
2018-07-11T17:59:24.485585,-1.119,-0.013,-0.036,-106.037,-23.963,67.683,15_6_3.csv
2018-07-11T17:59:24.531211,-1.057,-0.11,0.003,-67.622,-12.5,72.378,15_6_3.csv
2018-07-11T17:59:24.583855,-1.057,-0.11,0.003,-40.854,-9.512,74.878,15_6_3.csv
2018-07-11T17:59:24.643017,-0.987,-0.011,0.061,-46.037,7.012,68.902,15_6_3.csv
2018-07-11T17:59:24.692151,-1.049,-0.04,0.07,-60.061,20.305,43.841,15_6_3.csv
2018-07-11T17:59:24.765354,-1.104,-0.392,0.421,8.11,-44.451,-19.695,15_6_3.csv
2018-07-11T17:59:24.813484,-1.104,-0.392,0.421,93.415,-98.11,-42.744,15_6_3.csv
2018-07-11T17:59:24.860113,-1.214,-0.756,0.391,93.415,-100.427,9.39,15_6_3.csv
2018-07-11T17:59:24.912253,-1.214,-0.756,0.391,-144.024,-136.707,-13.659,15_6_3.csv
2018-07-11T17:59:24.972415,-1.275,-1.115,-1.184,292.378,-1.951,-247.866,15_6_3.csv
2018-07-11T17:59:25.018540,-2.039,1.253,-0.938,151.342,147.927,-379.024,15_6_3.csv
2018-07-11T17:59:25.066168,-2.039,1.253,-0.938,-6.951,191.159,-316.159,15_6_3.csv
2018-07-11T17:59:25.126831,-1.907,1.1,0.66,54.329,215.488,-103.049,15_6_3.csv
2018-07-11T17:59:25.172956,-1.365,0.39,1.279,79.573,78.841,-33.171,15_6_3.csv
2018-07-11T17:59:25.228105,-1.365,0.39,1.279,-29.817,62.073,56.646,15_6_3.csv
2018-07-11T17:59:25.281249,-0.97,-0.851,0.63,-72.256,61.829,127.378,15_6_3.csv
2018-07-11T17:59:25.327372,-0.97,-0.851,0.63,-52.012,-4.451,107.195,15_6_3.csv
2018-07-11T17:59:25.375502,-0.466,-1.479,-0.158,-34.573,-66.402,-8.415,15_6_3.csv
2018-07-11T17:59:25.422128,-0.889,-1.027,-0.272,87.988,13.963,-51.22,15_6_3.csv
2018-07-11T17:59:25.469757,-0.889,-1.027,-0.272,118.232,28.293,-98.232,15_6_3.csv
2018-07-11T17:59:25.528916,-1.434,-0.328,-0.187,48.293,30.122,-147.195,15_6_3.csv
2018-07-11T17:59:25.594092,-1.318,-0.193,0.008,37.134,57.805,-154.634,15_6_3.csv
2018-07-11T17:59:25.681831,-1.053,0.176,0.415,177.561,111.707,-81.524,15_6_3.csv
2018-07-11T17:59:25.739993,-1.182,0.38,0.561,104.085,-17.012,121.707,15_6_3.csv
2018-07-11T17:59:25.788122,-1.182,0.38,0.561,40.671,-43.049,164.268,15_6_3.csv
2018-07-11T17:59:25.827232,-1.419,0.234,0.199,-45.244,-82.683,174.329,15_6_3.csv
2018-07-11T17:59:25.889400,-1.419,0.234,0.199,-203.293,-115.366,154.573,15_6_3.csv
2018-07-11T17:59:25.937536,-1.381,-0.059,-0.271,-358.963,-143.049,110.244,15_6_3.csv
2018-07-11T17:59:25.983659,-1.031,-0.311,-0.319,-295.732,-123.598,101.402,15_6_3.csv
2018-07-11T17:59:26.031796,-1.031,-0.311,-0.319,-170.61,-96.524,129.939,15_6_3.csv
2018-07-11T17:59:26.075913,-0.914,-0.388,-0.195,-62.927,-65.732,169.024,15_6_3.csv
2018-07-11T17:59:26.124047,-0.914,-0.388,-0.195,31.463,-24.268,215.0,15_6_3.csv
2018-07-11T17:59:26.182205,-1.028,-0.633,0.018,201.585,145.793,281.342,15_6_3.csv
2018-07-11T17:59:26.238360,-1.477,-0.495,0.451,239.695,205.976,237.256,15_6_3.csv
2018-07-11T17:59:26.282479,-1.477,-0.495,0.451,243.903,269.329,130.183,15_6_3.csv
2018-07-11T17:59:26.329611,-2.138,0.351,0.122,139.878,208.537,-52.073,15_6_3.csv
2018-07-11T17:59:26.374732,-2.11,0.354,-0.29,74.695,-274.512,-341.281,15_6_3.csv
2018-07-11T17:59:26.426878,-2.11,0.354,-0.29,133.049,-447.317,-337.439,15_6_3.csv
2018-07-11T17:59:26.482027,-1.003,0.2,0.269,123.781,-456.281,-298.171,15_6_3.csv
2018-07-11T17:59:26.537678,-0.521,-0.153,0.126,-116.89,-50.183,-135.732,15_6_3.csv
2018-07-11T17:59:26.581296,-0.521,-0.153,0.126,-143.72,52.744,-54.512,15_6_3.csv
2018-07-11T17:59:26.626418,-0.928,-0.505,-0.391,-34.451,50.366,19.512,15_6_3.csv
2018-07-11T17:59:26.689588,-0.928,-0.505,-0.391,165.976,-23.78,63.963,15_6_3.csv
2018-07-11T17:59:26.735712,-0.885,-0.136,-0.493,342.805,-87.744,46.89,15_6_3.csv
2018-07-11T17:59:26.788355,-0.693,0.3,-0.087,122.5,-52.744,-64.817,15_6_3.csv
2018-07-11T17:59:26.832474,-0.693,0.3,-0.087,-98.415,52.195,-145.183,15_6_3.csv
2018-07-11T17:59:26.875089,-0.962,-0.281,-0.208,-203.598,170.671,-127.256,15_6_3.csv
2018-07-11T17:59:26.923218,-0.962,-0.281,-0.208,-170.061,245.671,-44.39,15_6_3.csv
2018-07-11T17:59:26.969343,-1.547,-0.532,-0.417,-3.963,254.268,22.5,15_6_3.csv
2018-07-11T17:59:27.063096,-2.346,-0.319,-0.89,790.427,230.244,-7.927,15_6_3.csv
2018-07-11T17:59:27.119753,-2.684,1.237,-0.531,860.305,75.244,-196.098,15_6_3.csv
2018-07-11T17:59:27.176913,-0.897,1.073,0.391,86.28,-83.902,-332.134,15_6_3.csv
2018-07-11T17:59:27.217022,-0.897,1.073,0.391,143.11,19.085,-110.976,15_6_3.csv
2018-07-11T17:59:27.275184,-0.138,0.568,0.212,41.098,44.329,-57.134,15_6_3.csv
2018-07-11T17:59:27.343366,-0.358,0.394,0.032,-267.988,93.476,-16.524,15_6_3.csv
2018-07-11T17:59:27.390498,-0.358,0.394,0.032,-385.671,108.537,41.463,15_6_3.csv
2018-07-11T17:59:27.464701,-2.535,-0.25,-0.865,-286.707,-152.439,416.037,15_6_3.csv
2018-07-11T17:59:27.515843,-2.397,-0.038,-0.964,-250.061,-473.842,382.927,15_6_3.csv
2018-07-11T17:59:27.562470,-2.397,-0.038,-0.964,-575.671,-479.756,145.488,15_6_3.csv
2018-07-11T17:59:27.613108,-0.588,-0.247,0.408,-662.927,-81.28,13.72,15_6_3.csv
2018-07-11T17:59:27.656225,-0.588,-0.247,0.408,-381.707,282.866,7.134,15_6_3.csv
2018-07-11T17:59:27.708923,-1.286,-0.333,-0.712,224.878,131.646,12.988,15_6_3.csv
2018-07-11T17:59:27.758560,-0.744,0.079,-0.487,272.073,-168.659,61.037,15_6_3.csv
2018-07-11T17:59:27.805187,-0.744,0.079,-0.487,224.817,-221.829,101.524,15_6_3.csv
2018-07-11T17:59:27.843289,-0.471,0.297,0.252,145.427,-145.305,102.866,15_6_3.csv
2018-07-11T17:59:27.894432,-0.471,0.297,0.252,1.768,-38.598,71.159,15_6_3.csv
2018-07-11T17:59:27.937548,-0.75,-0.127,0.06,-120.366,56.707,78.598,15_6_3.csv
2018-07-11T17:59:27.989691,-1.014,-0.708,-0.009,-25.427,153.537,177.805,15_6_3.csv
2018-07-11T17:59:28.044839,-1.014,-0.708,-0.009,270.244,237.927,233.963,15_6_3.csv
2018-07-11T17:59:28.111018,-1.576,0.046,-0.194,459.512,279.939,175.671,15_6_3.csv
2018-07-11T17:59:28.156139,-2.164,1.35,-0.454,114.817,114.878,-33.537,15_6_3.csv
2018-07-11T17:59:28.210285,-2.164,1.35,-0.454,25.61,-213.415,-93.232,15_6_3.csv
2018-07-11T17:59:28.249893,-1.043,0.975,-0.445,-54.39,-478.781,-104.024,15_6_3.csv
2018-07-11T17:59:28.296518,-1.043,0.975,-0.445,-242.988,-460.061,-54.573,15_6_3.csv
2018-07-11T17:59:28.503575,-0.762,-0.051,-0.351,-76.524,-148.415,24.573,15_6_3.csv
2018-07-11T17:59:28.560230,-0.914,-0.253,-0.306,-128.354,-66.098,99.024,15_6_3.csv
2018-07-11T17:59:28.609867,-0.914,-0.253,-0.306,-47.988,11.159,107.744,15_6_3.csv
2018-07-11T17:59:28.657498,-1.036,-0.289,-0.336,121.585,59.939,64.756,15_6_3.csv
2018-07-11T17:59:28.707134,-1.372,-0.195,-0.178,355.244,206.646,-31.829,15_6_3.csv
2018-07-11T17:59:28.749752,-1.372,-0.195,-0.178,435.122,270.488,-52.439,15_6_3.csv
2018-07-11T17:59:28.797882,-1.647,0.164,-0.198,467.012,271.524,-71.28,15_6_3.csv
2018-07-11T17:59:28.847020,-1.647,0.164,-0.198,416.707,219.451,-72.073,15_6_3.csv
2018-07-11T17:59:28.912199,-1.403,0.529,0.327,113.232,55.61,-69.634,15_6_3.csv
2018-07-11T17:59:28.971360,-1.415,0.546,0.896,27.683,131.22,-109.451,15_6_3.csv
2018-07-11T17:59:29.022502,-1.415,0.546,0.896,-73.049,14.756,-37.866,15_6_3.csv
2018-07-11T17:59:29.067624,-1.176,-0.155,0.079,-170.366,-157.866,-31.524,15_6_3.csv
2018-07-11T17:59:29.125786,-0.792,-0.216,-0.037,-59.146,-192.012,58.232,15_6_3.csv
2018-07-11T17:59:29.171911,-0.792,-0.216,-0.037,-15.122,-167.744,128.902,15_6_3.csv
2018-07-11T17:59:29.219042,-0.92,-0.089,0.067,-37.378,-102.927,147.927,15_6_3.csv
2018-07-11T17:59:29.286223,-1.098,-0.398,0.012,-3.354,30.976,214.939,15_6_3.csv
2018-07-11T17:59:29.331349,-1.098,-0.398,0.012,118.415,62.927,229.207,15_6_3.csv
2018-07-11T17:59:29.377474,-1.019,-0.232,-0.1,217.561,50.366,204.085,15_6_3.csv
2018-07-11T17:59:29.439646,-1.386,0.201,0.043,163.049,21.28,35.549,15_6_3.csv
2018-07-11T17:59:29.499808,-1.386,0.201,0.043,78.78,-11.524,-66.646,15_6_3.csv
2018-07-11T17:59:29.547941,-1.137,0.141,0.101,-34.329,-32.744,-156.037,15_6_3.csv
2018-07-11T17:59:29.595068,-1.396,0.091,-0.184,-83.293,-16.463,-264.573,15_6_3.csv
2018-07-11T17:59:29.661251,-1.396,0.091,-0.184,-60.488,-68.659,-252.561,15_6_3.csv
2018-07-11T17:59:29.779575,-0.72,-0.138,0.167,106.159,78.11,-73.415,15_6_3.csv
2018-07-11T17:59:29.831720,-0.809,0.115,0.021,147.683,100.488,15.671,15_6_3.csv
2018-07-11T17:59:29.894891,-0.809,0.115,0.021,20.183,68.232,59.024,15_6_3.csv
2018-07-11T17:59:29.943024,-1.011,-0.097,-0.007,-81.524,38.841,80.366,15_6_3.csv
2018-07-11T17:59:29.992157,-1.303,-0.32,-0.086,-52.195,0.915,106.707,15_6_3.csv
2018-07-11T17:59:30.035276,-1.303,-0.32,-0.086,17.561,-19.39,117.195,15_6_3.csv
2018-07-11T17:59:30.112484,-1.187,-0.097,0.104,45.732,3.598,61.524,15_6_3.csv
2018-07-11T17:59:30.158107,-1.013,0.005,0.187,-17.439,49.146,25.122,15_6_3.csv
2018-07-11T17:59:30.203730,-1.013,0.005,0.187,-58.537,42.378,10.61,15_6_3.csv
2018-07-11T17:59:30.249856,-1.082,-0.047,-0.018,-59.939,-6.89,12.134,15_6_3.csv
2018-07-11T17:59:30.298989,-1.082,-0.047,-0.018,-64.573,-51.159,3.78,15_6_3.csv
2018-07-11T17:59:30.344115,-1.001,-0.036,-0.039,-74.878,-74.39,-10.305,15_6_3.csv
2018-07-11T17:59:30.407285,-0.948,-0.074,0.042,-70.854,-30.305,-38.11,15_6_3.csv
2018-07-11T17:59:30.465448,-0.948,-0.074,0.042,-45.793,4.329,-30.549,15_6_3.csv
2018-07-11T17:59:30.524611,-0.983,-0.109,0.092,40.183,35.671,20.061,15_6_3.csv
2018-07-11T17:59:30.566727,-1.005,-0.049,0.144,69.268,41.585,35.549,15_6_3.csv
2018-07-11T17:59:30.612851,-1.005,-0.049,0.144,83.78,43.354,42.134,15_6_3.csv
2018-07-11T17:59:30.655973,-1.072,0.028,0.159,74.939,32.561,38.72,15_6_3.csv
2018-07-11T17:59:30.719146,-1.092,0.079,0.183,49.085,1.341,8.841,15_6_3.csv
2018-07-11T17:59:30.774296,-1.092,0.079,0.183,22.561,-4.817,-6.585,15_6_3.csv
2018-07-11T17:59:30.828946,-1.025,0.093,0.127,3.171,-7.378,-12.744,15_6_3.csv
2018-07-11T17:59:30.880586,-0.966,0.084,0.072,-40.305,-8.659,-21.646,15_6_3.csv
2018-07-11T17:59:30.927716,-0.966,0.084,0.072,-49.085,-6.646,-21.159,15_6_3.csv
2018-07-11T17:59:30.974845,-0.976,0.041,0.091,-49.329,1.829,-9.39,15_6_3.csv
2018-07-11T17:59:31.057571,-1.013,0.029,0.091,-8.659,13.171,31.341,15_6_3.csv
2018-07-11T17:59:31.136785,-1.07,0.05,0.089,-6.89,12.256,30.854,15_6_3.csv
2018-07-11T17:59:31.187422,-1.07,0.05,0.089,-18.841,13.72,30.122,15_6_3.csv
2018-07-11T17:59:31.242069,-1.125,-0.021,0.066,3.659,8.72,26.585,15_6_3.csv
2018-07-11T17:59:31.302733,-1.1,-0.039,0.015,9.024,-4.817,11.098,15_6_3.csv
2018-07-11T17:59:31.365403,-1.0,-0.091,0.013,20.061,-20.244,-18.171,15_6_3.csv
2018-07-11T17:59:31.429580,-1.0,-0.091,0.013,38.415,-16.524,-19.451,15_6_3.csv
2018-07-11T17:59:31.501775,-1.09,-0.022,-0.049,38.11,-35.244,-23.963,15_6_3.csv
2018-07-11T17:59:31.563945,-1.079,0.036,-0.108,-28.902,-32.5,-60.061,15_6_3.csv
2018-07-11T17:59:31.610069,-0.999,-0.031,-0.076,-35.854,-14.451,-75.488,15_6_3.csv
2018-07-11T17:59:31.657697,-0.999,-0.031,-0.076,-21.28,7.256,-74.329,15_6_3.csv
2018-07-11T17:59:31.702819,-0.985,-0.087,-0.012,5.366,20.183,-54.268,15_6_3.csv
2018-07-11T17:59:31.761978,-0.964,-0.049,0.04,53.841,23.841,1.646,15_6_3.csv
2018-07-11T17:59:31.822642,-0.964,-0.049,0.04,55.488,19.512,20.488,15_6_3.csv
2018-07-11T17:59:31.878292,-1.082,-0.009,0.059,46.098,17.378,37.683,15_6_3.csv
2018-07-11T17:59:31.931453,-1.114,-0.041,0.118,17.744,14.39,52.073,15_6_3.csv
2018-07-11T17:59:31.986103,-1.114,-0.041,0.118,25.793,30.122,38.659,15_6_3.csv
2018-07-11T17:59:32.030222,-1.096,0.017,0.113,23.598,30.854,20.854,15_6_3.csv
2018-07-11T17:59:32.094400,-1.017,0.022,0.082,-25.793,-12.744,-2.5,15_6_3.csv
2018-07-11T17:59:32.152059,-1.017,0.022,0.082,-38.293,-16.585,-7.622,15_6_3.csv
2018-07-11T17:59:32.209717,-0.987,0.013,0.072,-50.976,-5.366,-4.817,15_6_3.csv
2018-07-11T17:59:32.254340,-1.039,0.016,0.042,-36.159,-6.098,-1.159,15_6_3.csv
2018-07-11T17:59:32.297959,-1.039,0.016,0.042,-15.61,-10.427,-1.585,15_6_3.csv
2018-07-11T17:59:32.344084,-1.033,0.056,0.058,-17.805,-12.683,-6.707,15_6_3.csv
2018-07-11T17:59:32.410267,-0.959,-0.016,0.105,-13.72,3.902,-1.402,15_6_3.csv
2018-07-11T17:59:32.511545,-0.933,-0.007,0.136,14.939,7.561,17.5,15_6_3.csv
2018-07-11T17:59:32.567701,-0.972,-0.037,0.134,7.988,17.988,21.28,15_6_3.csv
2018-07-11T17:59:32.614828,-0.972,-0.037,0.134,23.415,22.134,24.085,15_6_3.csv
2018-07-11T17:59:32.681011,-1.096,0.006,0.092,42.256,22.5,24.512,15_6_3.csv
2018-07-11T17:59:32.736160,-1.158,0.093,0.059,38.476,10.854,20.366,15_6_3.csv
2018-07-11T17:59:32.782290,-1.158,0.093,0.059,8.841,3.232,8.049,15_6_3.csv
2018-07-11T17:59:32.828414,-1.077,0.111,-0.009,-27.561,-7.256,-18.598,15_6_3.csv
2018-07-11T17:59:32.887576,-1.015,0.026,-0.053,-68.415,-13.11,-41.22,15_6_3.csv
2018-07-11T17:59:32.958266,-1.015,0.026,-0.053,-55.732,-14.268,-33.841,15_6_3.csv
2018-07-11T17:59:33.003889,-0.981,-0.028,-0.057,-28.72,-15.671,-19.817,15_6_3.csv
2018-07-11T17:59:33.048008,-1.005,0.005,-0.055,10.549,-8.963,1.951,15_6_3.csv
2018-07-11T17:59:33.110176,-1.005,0.005,-0.055,0.854,-9.085,2.195,15_6_3.csv
2018-07-11T17:59:33.176856,-1.05,-0.028,-0.065,-16.524,-10.366,-3.902,15_6_3.csv
2018-07-11T17:59:33.219471,-1.029,-0.094,-0.042,-13.049,-1.524,-5.549,15_6_3.csv
2018-07-11T17:59:33.273118,-1.029,-0.094,-0.042,1.585,5.976,-2.744,15_6_3.csv
2018-07-11T17:59:33.328267,-1.035,-0.099,-0.007,30.854,5.366,4.878,15_6_3.csv
2018-07-11T17:59:33.385426,-1.057,-0.061,0.012,30.976,5.915,0.854,15_6_3.csv
2018-07-11T17:59:33.455621,-1.049,-0.06,0.013,11.22,0.732,-11.951,15_6_3.csv
2018-07-11T17:59:33.504754,-1.049,-0.06,0.013,7.073,0.671,-14.39,15_6_3.csv
2018-07-11T17:59:33.566926,-1.024,-0.071,0.015,12.622,2.683,-10.488,15_6_3.csv
2018-07-11T17:59:33.612048,-1.044,-0.041,0.031,20.183,2.927,7.195,15_6_3.csv
2018-07-11T17:59:33.671212,-1.044,-0.041,0.031,11.707,8.293,15.854,15_6_3.csv
2018-07-11T17:59:33.727364,-0.994,-0.076,0.078,2.134,18.476,16.951,15_6_3.csv
2018-07-11T17:59:33.786528,-1.051,-0.088,0.11,24.634,20.732,22.622,15_6_3.csv
2018-07-11T17:59:33.865748,-1.081,0.245,0.117,37.866,6.707,33.171,15_6_3.csv
2018-07-11T17:59:33.930922,-1.081,0.245,0.117,-19.756,-4.817,17.012,15_6_3.csv
2018-07-11T17:59:33.989083,-1.035,0.322,-0.007,-218.415,12.439,-1.768,15_6_3.csv
2018-07-11T17:59:34.057272,-1.063,-0.037,-0.061,90.488,-38.537,36.098,15_6_3.csv
2018-07-11T17:59:34.118437,-0.95,0.255,0.048,69.695,-36.341,37.988,15_6_3.csv
2018-07-11T17:59:34.177098,-0.964,0.157,0.049,-79.39,5.305,0.305,15_6_3.csv
2018-07-11T17:59:34.235756,-0.964,0.157,0.049,-92.012,6.768,-5.183,15_6_3.csv
2018-07-11T17:59:34.282884,-0.994,-0.008,0.047,-64.024,4.695,-1.159,15_6_3.csv
2018-07-11T17:59:34.329008,-0.994,-0.008,0.047,-26.463,4.207,1.402,15_6_3.csv
2018-07-11T17:59:34.389170,-0.981,0.064,0.105,3.902,17.561,-2.317,15_6_3.csv
2018-07-11T17:59:34.459359,-0.988,0.056,0.159,13.537,24.451,23.049,15_6_3.csv
2018-07-11T17:59:34.516012,-1.074,0.098,0.184,37.805,25.244,30.061,15_6_3.csv
2018-07-11T17:59:34.563139,-1.074,0.098,0.184,43.293,24.512,24.39,15_6_3.csv
2018-07-11T17:59:34.612272,-1.125,0.297,0.127,11.28,11.646,7.5,15_6_3.csv
2018-07-11T17:59:34.658898,-1.012,0.344,0.045,-92.5,-16.159,-41.585,15_6_3.csv
2018-07-11T17:59:34.756661,-1.004,0.046,-0.053,-131.951,-25.366,-48.72,15_6_3.csv
2018-07-11T17:59:34.808300,-1.004,0.046,-0.053,-68.232,-29.878,-25.0,15_6_3.csv
2018-07-11T17:59:34.859439,-1.051,-0.129,-0.076,105.0,-24.817,-4.024,15_6_3.csv
2018-07-11T17:59:34.910078,-1.013,0.072,-0.045,78.72,-16.037,-18.354,15_6_3.csv
2018-07-11T17:59:34.960213,-1.013,0.072,-0.045,1.341,-5.183,-11.463,15_6_3.csv
2018-07-11T17:59:35.006343,-0.968,-0.093,-0.134,-12.5,3.598,2.317,15_6_3.csv
2018-07-11T17:59:35.064501,-1.02,-0.073,-0.161,71.89,4.39,0.854,15_6_3.csv
2018-07-11T17:59:35.129682,-1.02,-0.073,-0.161,95.915,15.61,-5.732,15_6_3.csv
2018-07-11T17:59:35.229955,-1.117,-0.023,-0.021,129.146,43.293,-16.89,15_6_3.csv
2018-07-11T17:59:35.287114,-1.117,-0.023,-0.021,145.488,29.146,-14.207,15_6_3.csv
2018-07-11T17:59:35.328225,-1.144,0.055,-0.002,154.451,8.78,-15.793,15_6_3.csv
2018-07-11T17:59:35.375855,-1.144,0.055,-0.002,141.159,-4.39,-20.976,15_6_3.csv
2018-07-11T17:59:35.438527,-1.046,0.133,0.061,62.073,-9.817,-30.122,15_6_3.csv
2018-07-11T17:59:35.496688,-1.03,0.096,0.016,5.305,-9.329,-24.39,15_6_3.csv
2018-07-11T17:59:35.547826,-0.981,-0.043,-0.039,-65.122,-16.768,4.695,15_6_3.csv
2018-07-11T17:59:35.592952,-0.981,-0.043,-0.039,-63.476,-4.634,18.354,15_6_3.csv
2018-07-11T17:59:35.641081,-1.002,-0.142,-0.023,-21.402,9.512,32.744,15_6_3.csv
2018-07-11T17:59:35.688214,-1.002,-0.142,-0.023,41.037,12.256,48.963,15_6_3.csv
2018-07-11T17:59:35.750382,-1.057,0.039,0.002,15.244,-6.646,38.232,15_6_3.csv
2018-07-11T17:59:35.820572,-1.024,0.068,-0.01,-85.0,-8.841,-11.768,15_6_3.csv
2018-07-11T17:59:35.875220,-1.008,-0.034,-0.022,-83.049,-2.378,-21.707,15_6_3.csv
2018-07-11T17:59:35.922848,-1.008,-0.034,-0.022,-54.329,1.463,-20.915,15_6_3.csv
2018-07-11T17:59:35.971479,-1.06,-0.005,0.038,-15.915,1.28,-13.415,15_6_3.csv
2018-07-11T17:59:36.017103,-1.06,-0.005,0.038,10.671,-3.293,-4.695,15_6_3.csv
2018-07-11T17:59:36.075761,-1.043,0.049,0.191,-11.463,-16.646,-13.72,15_6_3.csv
2018-07-11T17:59:36.138430,-0.961,0.008,0.096,-16.341,0.915,-11.098,15_6_3.csv
2018-07-11T17:59:36.194581,-0.986,-0.005,0.037,5.61,4.695,9.39,15_6_3.csv
2018-07-11T17:59:36.236193,-0.986,-0.005,0.037,6.28,6.463,12.5,15_6_3.csv
2018-07-11T17:59:36.284323,-1.036,-0.024,0.138,0.732,-2.195,6.524,15_6_3.csv
2018-07-11T17:59:36.344486,-0.984,-0.045,0.108,-18.902,6.951,-6.341,15_6_3.csv
2018-07-11T17:59:36.409160,-0.984,-0.045,0.108,-8.537,21.707,-1.585,15_6_3.csv
2018-07-11T17:59:36.468319,-1.036,-0.023,0.105,-10.671,12.012,1.89,15_6_3.csv
2018-07-11T17:59:36.517453,-1.076,-0.038,0.058,5.671,12.134,8.537,15_6_3.csv
2018-07-11T17:59:36.593660,-1.058,0.104,-0.047,43.476,18.049,17.927,15_6_3.csv
2018-07-11T17:59:36.645303,-1.058,0.104,-0.047,7.561,4.146,-2.561,15_6_3.csv
2018-07-11T17:59:36.692933,-1.024,0.106,-0.071,-36.707,-7.012,-19.146,15_6_3.csv
2018-07-11T17:59:36.737054,-1.024,0.106,-0.071,-56.585,-7.622,-23.659,15_6_3.csv
2018-07-11T17:59:36.787192,-0.967,0.0,-0.082,-39.939,5.671,-0.915,15_6_3.csv
2018-07-11T17:59:36.834824,-0.988,-0.041,-0.096,-13.171,4.329,12.988,15_6_3.csv
2018-07-11T17:59:36.878444,-0.988,-0.041,-0.096,12.805,-0.061,26.707,15_6_3.csv
2018-07-11T17:59:36.921560,-1.081,-0.018,-0.092,22.683,-2.012,33.72,15_6_3.csv
2018-07-11T17:59:36.975709,-1.081,-0.018,-0.092,13.049,-3.415,33.11,15_6_3.csv
2018-07-11T17:59:37.020834,-1.081,-0.044,-0.084,-1.037,-1.341,26.646,15_6_3.csv
2018-07-11T17:59:37.080995,-1.051,-0.056,-0.063,4.939,8.78,1.707,15_6_3.csv
2018-07-11T17:59:37.129131,-1.051,-0.056,-0.063,14.878,5.061,-3.72,15_6_3.csv
2018-07-11T17:59:37.188292,-1.05,-0.009,-0.06,-5.488,-3.293,-10.915,15_6_3.csv
2018-07-11T17:59:37.234419,-1.045,-0.02,-0.062,-3.659,-0.793,-12.927,15_6_3.csv
2018-07-11T17:59:37.282549,-1.045,-0.02,-0.062,1.28,1.402,-14.634,15_6_3.csv
2018-07-11T17:59:37.347730,-1.036,-0.034,-0.024,4.512,1.707,-15.122,15_6_3.csv
2018-07-11T17:59:37.406894,-1.046,-0.06,-0.007,16.402,-4.207,-9.573,15_6_3.csv
2018-07-11T17:59:37.469062,-1.083,-0.046,-0.011,29.817,-12.195,6.707,15_6_3.csv
2018-07-11T17:59:37.516194,-1.083,-0.046,-0.011,25.671,-14.39,10.061,15_6_3.csv
2018-07-11T17:59:37.562319,-1.009,-0.056,0.027,13.415,-3.963,3.659,15_6_3.csv
2018-07-11T17:59:37.610453,-1.009,-0.056,0.027,15.244,6.159,-0.976,15_6_3.csv
2018-07-11T17:59:37.675629,-1.024,-0.016,0.042,37.378,-8.78,8.11,15_6_3.csv
2018-07-11T17:59:37.735795,-1.044,0.032,0.028,15.305,-12.073,3.11,15_6_3.csv
2018-07-11T17:59:37.800976,-1.022,0.05,0.012,9.756,-16.22,-14.939,15_6_3.csv
2018-07-11T17:59:37.843091,-1.022,0.05,0.012,10.061,-13.902,-18.841,15_6_3.csv
2018-07-11T17:59:37.891725,-0.975,0.064,0.026,9.695,-10.488,-17.988,15_6_3.csv
2018-07-11T17:59:38.080002,-1.022,0.035,0.123,23.415,6.768,19.817,15_6_3.csv
2018-07-11T17:59:38.140672,-1.016,0.034,0.09,-15.976,-0.793,4.207,15_6_3.csv
2018-07-11T17:59:38.201837,-1.007,-0.049,0.053,-17.927,-3.049,-6.585,15_6_3.csv
2018-07-11T17:59:38.267018,-1.007,-0.049,0.053,12.012,1.037,5.488,15_6_3.csv
2018-07-11T17:59:38.314145,-1.022,-0.012,0.061,32.744,4.573,16.341,15_6_3.csv
2018-07-11T17:59:38.361277,-1.023,0.028,0.095,23.963,6.341,7.866,15_6_3.csv
2018-07-11T17:59:38.422946,-1.023,0.028,0.095,17.988,9.695,1.89,15_6_3.csv
2018-07-11T17:59:38.470576,-1.087,0.148,0.123,18.232,14.695,0.427,15_6_3.csv
2018-07-11T17:59:38.529738,-0.983,0.618,0.086,-47.134,13.841,-5.671,15_6_3.csv
2018-07-11T17:59:38.579875,-0.983,0.618,0.086,-187.073,22.012,-24.817,15_6_3.csv
2018-07-11T17:59:38.627004,-1.04,0.217,-0.113,-270.793,20.732,-13.78,15_6_3.csv
2018-07-11T17:59:38.682976,-1.125,-0.05,-0.082,-9.146,-83.232,94.573,15_6_3.csv
2018-07-11T17:59:38.721582,-1.125,-0.05,-0.082,81.28,-73.72,116.524,15_6_3.csv
2018-07-11T17:59:38.781245,-1.034,0.109,0.056,60.61,-18.171,96.707,15_6_3.csv
2018-07-11T17:59:38.834390,-1.034,0.109,0.056,-10.854,19.024,55.488,15_6_3.csv
2018-07-11T17:59:38.890544,-1.083,-0.267,0.023,82.439,2.378,-9.878,15_6_3.csv
2018-07-11T17:59:38.943692,-1.206,-0.009,0.023,165.488,-13.415,-30.183,15_6_3.csv
2018-07-11T17:59:38.987811,-1.206,-0.009,0.023,122.256,-55.427,-70.854,15_6_3.csv
2018-07-11T17:59:39.031933,-1.096,0.092,0.006,14.451,-74.512,-103.537,15_6_3.csv
2018-07-11T17:59:39.095106,-1.003,-0.184,-0.051,1.89,-50.366,-100.122,15_6_3.csv
2018-07-11T17:59:39.152264,-1.003,-0.184,-0.051,61.098,-28.537,-72.683,15_6_3.csv
2018-07-11T17:59:39.203402,-1.111,-0.129,-0.085,164.634,-6.646,-34.939,15_6_3.csv
2018-07-11T17:59:39.251536,-1.157,0.05,-0.054,167.439,-14.451,-43.354,15_6_3.csv
2018-07-11T17:59:39.360836,-1.079,0.077,0.006,47.439,4.085,-73.78,15_6_3.csv
2018-07-11T17:59:39.408965,-1.013,-0.027,0.029,21.22,14.695,-64.512,15_6_3.csv
2018-07-11T17:59:39.468128,-1.013,-0.027,0.029,19.512,34.512,-56.707,15_6_3.csv
2018-07-11T17:59:39.526786,-0.944,-0.085,0.176,74.146,77.744,-22.561,15_6_3.csv
2018-07-11T17:59:39.578425,-0.934,-0.003,0.226,92.683,80.061,10.854,15_6_3.csv
2018-07-11T17:59:39.625553,-0.934,-0.003,0.226,82.134,62.561,37.561,15_6_3.csv
2018-07-11T17:59:39.676189,-1.026,0.016,0.208,62.256,41.829,57.683,15_6_3.csv
2018-07-11T17:59:39.720308,-1.149,0.032,0.189,53.598,15.671,78.354,15_6_3.csv
2018-07-11T17:59:39.783979,-1.149,0.032,0.189,36.768,6.098,73.841,15_6_3.csv
2018-07-11T17:59:39.837123,-1.127,0.054,0.145,11.159,-7.439,55.915,15_6_3.csv
2018-07-11T17:59:39.893776,-1.037,0.008,0.097,-37.622,-19.573,12.5,15_6_3.csv
2018-07-11T17:59:39.939399,-1.037,0.008,0.097,-43.415,-21.098,-3.293,15_6_3.csv
2018-07-11T17:59:39.990537,-0.984,-0.057,0.086,-35.427,-19.939,-10.915,15_6_3.csv
2018-07-11T17:59:40.036160,-0.984,-0.057,0.086,-15.488,-12.439,-8.659,15_6_3.csv
2018-07-11T17:59:40.097325,-0.959,-0.067,0.114,28.11,2.927,-2.561,15_6_3.csv
2018-07-11T17:59:40.149465,-1.0,0.004,0.12,33.659,5.61,-9.085,15_6_3.csv
2018-07-11T17:59:40.209126,-1.007,0.041,0.112,19.146,0.305,-19.207,15_6_3.csv
2018-07-11T17:59:40.269790,-1.007,0.041,0.112,5.915,4.634,-19.329,15_6_3.csv
2018-07-11T17:59:40.318922,-0.97,-0.015,0.126,5.976,12.683,-12.927,15_6_3.csv
2018-07-11T17:59:40.361540,-0.97,-0.015,0.126,21.951,20.244,1.524,15_6_3.csv
2018-07-11T17:59:40.419697,-0.987,-0.022,0.168,44.268,30.549,24.451,15_6_3.csv
2018-07-11T17:59:40.475852,-1.074,0.013,0.182,45.0,30.976,28.537,15_6_3.csv
2018-07-11T17:59:40.535014,-1.118,0.08,0.157,28.963,19.573,28.049,15_6_3.csv
2018-07-11T17:59:40.582840,-1.118,0.08,0.157,7.073,9.878,17.622,15_6_3.csv
2018-07-11T17:59:40.688125,-1.094,0.17,-0.071,-165.061,-28.476,-55.732,15_6_3.csv
2018-07-11T17:59:40.744277,-1.094,0.17,-0.071,-158.11,-33.537,-46.159,15_6_3.csv
2018-07-11T17:59:40.808950,-0.99,-0.008,-0.015,-20.915,-14.573,13.476,15_6_3.csv
2018-07-11T17:59:40.886663,-0.996,-0.021,0.025,79.573,-12.256,60.61,15_6_3.csv
2018-07-11T17:59:40.938304,-1.095,0.026,-0.012,75.854,-16.707,57.012,15_6_3.csv
2018-07-11T17:59:41.005485,-1.095,0.026,-0.012,56.28,-30.427,36.402,15_6_3.csv
2018-07-11T17:59:41.054618,-1.033,-0.047,0.031,8.354,-12.866,-21.098,15_6_3.csv
2018-07-11T17:59:41.094726,-0.973,-0.165,0.047,29.634,9.695,-29.207,15_6_3.csv
2018-07-11T17:59:41.156894,-0.973,-0.165,0.047,67.683,12.256,-25.366,15_6_3.csv
2018-07-11T17:59:41.216554,-0.953,-0.124,0.021,104.451,7.256,-1.22,15_6_3.csv
2018-07-11T17:59:41.266188,-1.118,-0.209,-0.034,114.817,8.659,17.073,15_6_3.csv
2018-07-11T17:59:41.313816,-1.118,-0.209,-0.034,152.317,4.695,32.683,15_6_3.csv
2018-07-11T17:59:41.361947,-1.287,-0.084,-0.114,198.781,-15.061,23.659,15_6_3.csv
2018-07-11T17:59:41.407570,-1.287,-0.084,-0.114,179.512,-31.463,-32.256,15_6_3.csv
2018-07-11T17:59:41.466729,-1.304,0.154,-0.072,49.39,-37.5,-164.878,15_6_3.csv
2018-07-11T17:59:41.532406,-1.061,0.022,0.077,42.012,21.829,-152.866,15_6_3.csv
2018-07-11T17:59:41.588558,-0.799,0.001,0.142,52.378,47.439,-111.22,15_6_3.csv
2018-07-11T17:59:41.635685,-0.799,0.001,0.142,60.61,48.049,-59.878,15_6_3.csv
2018-07-11T17:59:41.676796,-0.893,-0.049,0.122,77.866,37.927,-2.317,15_6_3.csv
2018-07-11T17:59:41.725427,-0.893,-0.049,0.122,97.378,23.659,57.561,15_6_3.csv
2018-07-11T17:59:41.777068,-1.032,0.002,0.094,78.354,5.976,89.817,15_6_3.csv
2018-07-11T17:59:41.837233,-1.044,0.088,0.116,14.634,7.988,65.671,15_6_3.csv
2018-07-11T17:59:41.895392,-1.063,-0.019,0.048,-102.317,19.817,45.915,15_6_3.csv
2018-07-11T17:59:41.942522,-1.063,-0.019,0.048,-114.39,8.11,40.549,15_6_3.csv
2018-07-11T17:59:42.046306,-1.061,-0.043,-0.049,-128.963,-17.317,23.049,15_6_3.csv
2018-07-11T17:59:42.094436,-0.982,-0.135,-0.021,-93.78,15.61,34.146,15_6_3.csv
2018-07-11T17:59:42.158609,-0.999,-0.195,0.003,-31.768,32.378,51.341,15_6_3.csv
2018-07-11T17:59:42.214259,-1.073,-0.015,0.047,60.244,28.963,57.378,15_6_3.csv
2018-07-11T17:59:42.271414,-1.073,-0.015,0.047,49.634,33.11,37.317,15_6_3.csv
2018-07-11T17:59:42.319042,-1.032,0.484,0.047,-16.89,35.305,2.866,15_6_3.csv
2018-07-11T17:59:42.362159,-1.032,0.484,0.047,-147.378,45.671,-29.146,15_6_3.csv
2018-07-11T17:59:42.411291,-1.111,0.27,-0.15,-291.585,40.122,-45.122,15_6_3.csv
2018-07-11T17:59:42.468948,-1.169,-0.001,0.008,-4.695,-17.622,80.488,15_6_3.csv
2018-07-11T17:59:42.525603,-1.169,-0.001,0.008,147.256,-71.22,84.085,15_6_3.csv
2018-07-11T17:59:42.579250,-1.073,0.267,0.302,-45.854,-160.854,-21.037,15_6_3.csv
2018-07-11T17:59:42.626380,-0.945,-0.283,0.426,-170.671,-89.268,-31.28,15_6_3.csv
2018-07-11T17:59:42.673509,-0.945,-0.283,0.426,-128.171,-68.11,-26.89,15_6_3.csv
2018-07-11T17:59:42.721139,-0.979,-0.467,0.293,-12.683,-85.915,-50.0,15_6_3.csv
2018-07-11T17:59:42.780803,-1.051,-0.297,0.183,9.207,-20.732,-76.951,15_6_3.csv
2018-07-11T17:59:42.839964,-1.051,-0.297,0.183,7.927,30.793,-66.341,15_6_3.csv
2018-07-11T17:59:42.893609,-1.231,-0.205,-0.115,38.659,71.463,-49.695,15_6_3.csv
2018-07-11T17:59:42.942240,-1.25,-0.063,-0.262,119.085,52.439,-87.683,15_6_3.csv
2018-07-11T17:59:42.986861,-1.25,-0.063,-0.262,140.854,21.89,-111.281,15_6_3.csv
2018-07-11T17:59:43.034489,-1.15,-0.008,-0.159,141.768,6.22,-116.159,15_6_3.csv
2018-07-11T17:59:43.117212,-1.052,-0.018,-0.122,101.89,62.195,-105.793,15_6_3.csv
2018-07-11T17:59:43.172863,-1.052,-0.018,-0.122,88.963,79.695,-94.512,15_6_3.csv
2018-07-11T17:59:43.225003,-1.044,-0.101,-0.098,161.281,88.537,-51.22,15_6_3.csv
2018-07-11T17:59:43.273133,-1.112,-0.065,-0.078,220.854,93.232,-24.39,15_6_3.csv
2018-07-11T17:59:43.329786,-1.112,-0.065,-0.078,264.268,97.317,-11.159,15_6_3.csv
2018-07-11T17:59:43.412509,-1.107,0.099,0.025,255.793,133.659,-13.476,15_6_3.csv
2018-07-11T17:59:43.455404,-1.076,0.201,0.207,192.256,147.988,-12.744,15_6_3.csv
2018-07-11T17:59:43.501029,-1.174,0.082,0.277,42.134,148.72,26.585,15_6_3.csv
2018-07-11T17:59:43.553674,-1.174,0.082,0.277,55.976,119.268,61.585,15_6_3.csv
2018-07-11T17:59:43.611332,-1.242,0.11,0.123,43.72,61.585,90.854,15_6_3.csv
2018-07-11T17:59:43.669992,-1.142,0.2,0.038,-17.012,-79.451,81.829,15_6_3.csv
2018-07-11T17:59:43.735172,-1.142,0.2,0.038,-104.695,-94.512,55.122,15_6_3.csv
2018-07-11T17:59:43.798343,-1.131,0.151,-0.055,-291.524,-72.195,-9.207,15_6_3.csv
2018-07-11T17:59:43.844472,-1.0,-0.097,-0.231,-322.378,-66.159,-36.768,15_6_3.csv
2018-07-11T17:59:43.893604,-1.0,-0.097,-0.231,-292.134,-65.671,-51.951,15_6_3.csv
2018-07-11T17:59:43.938731,-0.88,-0.309,-0.152,-193.842,-56.646,-41.89,15_6_3.csv
2018-07-11T17:59:44.007920,-0.878,-0.145,-0.053,48.171,-13.415,20.488,15_6_3.csv
2018-07-11T17:59:44.059061,-0.878,-0.145,-0.053,79.817,14.085,30.793,15_6_3.csv
2018-07-11T17:59:44.127252,-0.901,-0.036,-0.014,26.402,63.841,22.622,15_6_3.csv
2018-07-11T17:59:44.173376,-0.993,-0.177,-0.013,14.512,83.598,21.341,15_6_3.csv
2018-07-11T17:59:44.220508,-0.993,-0.177,-0.013,43.415,95.549,28.476,15_6_3.csv
2018-07-11T17:59:44.266632,-1.372,-0.138,0.19,132.988,46.585,30.854,15_6_3.csv
2018-07-11T17:59:44.329807,-1.22,-0.004,0.873,-17.622,-165.854,-50.0,15_6_3.csv
2018-07-11T17:59:44.389969,-1.168,-0.041,-0.033,30.732,96.037,-13.11,15_6_3.csv
2018-07-11T17:59:44.441111,-1.168,-0.041,-0.033,-0.305,114.024,-54.329,15_6_3.csv
2018-07-11T17:59:44.492250,-1.076,-0.014,-0.4,-46.707,-13.963,-66.463,15_6_3.csv
2018-07-11T17:59:44.538380,-1.076,-0.014,-0.4,-58.72,-105.305,-95.915,15_6_3.csv
2018-07-11T17:59:44.594531,-0.734,-0.112,-0.022,-74.634,-64.695,-72.012,15_6_3.csv
2018-07-11T17:59:44.670739,-0.927,-0.176,-0.072,-79.695,9.939,26.098,15_6_3.csv
2018-07-11T17:59:44.775521,-1.069,-0.19,-0.278,-85.671,-23.659,11.585,15_6_3.csv
2018-07-11T17:59:44.846214,-0.902,-0.334,-0.174,-45.366,28.598,-7.439,15_6_3.csv
2018-07-11T17:59:44.893341,-0.945,-0.494,0.001,36.28,79.085,25.976,15_6_3.csv
2018-07-11T17:59:44.943481,-0.945,-0.494,0.001,85.122,108.232,57.927,15_6_3.csv
2018-07-11T17:59:44.987600,-1.118,-0.315,-0.089,-4.39,39.024,17.073,15_6_3.csv
2018-07-11T17:59:45.057793,-1.093,-0.321,-0.115,-59.329,0.854,-35.854,15_6_3.csv
2018-07-11T17:59:45.116957,-1.035,-0.399,-0.138,-89.878,-7.256,-88.293,15_6_3.csv
2018-07-11T17:59:45.177121,-1.035,-0.399,-0.138,-83.598,-16.402,-75.366,15_6_3.csv
2018-07-11T17:59:45.224253,-0.94,-0.606,0.076,-46.707,-30.732,-47.439,15_6_3.csv
2018-07-11T17:59:45.268372,-1.108,-0.224,0.217,188.72,40.183,53.415,15_6_3.csv
2018-07-11T17:59:45.335555,-1.108,-0.224,0.217,149.634,-28.049,82.988,15_6_3.csv
2018-07-11T17:59:45.390202,-1.214,0.1,-0.131,-29.024,-255.61,93.232,15_6_3.csv
2018-07-11T17:59:45.450365,-1.051,-0.059,0.117,-22.195,-264.024,72.439,15_6_3.csv
2018-07-11T17:59:45.503006,-1.051,-0.059,0.117,-41.037,-173.537,51.22,15_6_3.csv
2018-07-11T17:59:45.547627,-0.843,-0.109,0.122,-79.024,-44.024,33.232,15_6_3.csv
2018-07-11T17:59:45.595757,-0.863,-0.111,-0.015,-56.28,32.988,-21.585,15_6_3.csv
2018-07-11T17:59:45.647396,-0.863,-0.111,-0.015,-16.524,14.207,-17.439,15_6_3.csv
2018-07-11T17:59:45.721095,-0.793,-0.071,0.209,3.537,43.537,47.195,15_6_3.csv
2018-07-11T17:59:45.777246,-0.87,-0.072,0.308,-8.049,64.268,72.256,15_6_3.csv
2018-07-11T17:59:45.832899,-1.086,-0.05,0.336,21.098,85.915,109.207,15_6_3.csv
2018-07-11T17:59:45.878020,-1.086,-0.05,0.336,33.537,86.585,116.281,15_6_3.csv
2018-07-11T17:59:45.927158,-1.236,0.067,0.311,11.402,78.78,104.024,15_6_3.csv
2018-07-11T17:59:45.974284,-1.236,0.067,0.311,-31.524,53.293,74.207,15_6_3.csv
2018-07-11T17:59:46.031442,-1.164,-0.064,0.248,-51.037,27.561,40.793,15_6_3.csv
2018-07-11T17:59:46.136731,-1.144,-0.112,0.108,1.951,-28.232,-14.207,15_6_3.csv
2018-07-11T17:59:46.188871,-1.103,0.128,0.093,27.012,-43.11,-20.488,15_6_3.csv
2018-07-11T17:59:46.236001,-1.05,0.44,0.096,-87.439,2.5,-92.195,15_6_3.csv
2018-07-11T17:59:46.304185,-1.05,0.44,0.096,-149.878,23.171,-124.39,15_6_3.csv
2018-07-11T17:59:46.345796,-1.033,0.231,0.216,-134.024,47.5,-110.854,15_6_3.csv
2018-07-11T17:59:46.406961,-1.04,0.036,0.177,20.488,13.354,30.549,15_6_3.csv
2018-07-11T17:59:46.461107,-1.04,0.036,0.177,81.707,-29.756,82.744,15_6_3.csv
2018-07-11T17:59:46.517761,-1.079,-0.001,0.032,128.354,-77.195,81.402,15_6_3.csv
2018-07-11T17:59:46.563885,-1.084,0.081,0.091,95.305,-70.61,36.341,15_6_3.csv
2018-07-11T17:59:46.612516,-1.084,0.081,0.091,17.927,-38.537,-13.841,15_6_3.csv
2018-07-11T17:59:46.657136,-0.933,-0.11,0.075,-49.329,-2.378,-42.988,15_6_3.csv
2018-07-11T17:59:46.721811,-0.962,-0.293,-0.036,12.683,8.171,-19.146,15_6_3.csv
2018-07-11T17:59:46.777962,-0.962,-0.293,-0.036,100.61,-8.841,7.683,15_6_3.csv
2018-07-11T17:59:46.830103,-1.034,-0.136,-0.078,156.646,-15.671,17.195,15_6_3.csv
2018-07-11T17:59:46.879235,-1.17,-0.04,-0.087,174.268,-3.11,-5.854,15_6_3.csv
2018-07-11T17:59:46.938900,-1.17,-0.04,-0.087,162.561,1.524,-27.988,15_6_3.csv
2018-07-11T17:59:47.007086,-1.271,-0.015,-0.036,183.171,7.073,-92.195,15_6_3.csv
2018-07-11T17:59:47.064742,-1.26,0.141,0.093,176.403,17.134,-128.354,15_6_3.csv
2018-07-11T17:59:47.122396,-1.26,0.141,0.093,110.183,3.598,-148.049,15_6_3.csv
