time,accel_x_list,accel_y_list,accel_z_list,gyro_x_list,gyro_y_list,gyro_z_list,filename
2018-07-11T17:56:37.389436,-1.325,-0.1,-0.186,65.61,-167.561,-218.903,15_6_1.csv
2018-07-11T17:56:37.434559,-1.325,-0.1,-0.186,65.61,-167.561,-218.903,15_6_1.csv
2018-07-11T17:56:37.489712,-1.308,-0.007,-0.149,73.171,-281.89,-205.305,15_6_1.csv
2018-07-11T17:56:37.555391,-0.753,-0.102,0.336,-34.634,-122.988,-210.61,15_6_1.csv
2018-07-11T17:56:37.603021,-0.753,-0.102,0.336,-111.951,54.146,-191.585,15_6_1.csv
2018-07-11T17:56:37.650148,-0.789,-0.405,-0.004,51.037,116.037,-122.439,15_6_1.csv
2018-07-11T17:56:37.697281,-0.7,-0.223,0.083,86.951,45.0,-88.354,15_6_1.csv
2018-07-11T17:56:37.744408,-0.7,-0.223,0.083,59.451,24.695,-51.463,15_6_1.csv
2018-07-11T17:56:37.803570,-0.579,-0.215,0.305,14.573,44.085,-12.134,15_6_1.csv
2018-07-11T17:56:37.865236,-1.069,-0.181,0.152,21.524,77.378,80.793,15_6_1.csv
2018-07-11T17:56:37.961998,-1.261,-0.222,0.276,12.927,17.012,174.817,15_6_1.csv
2018-07-11T17:56:38.011129,-1.458,0.261,-0.026,44.756,68.415,154.329,15_6_1.csv
2018-07-11T17:56:38.058256,-1.458,0.261,-0.026,-66.037,-28.171,34.878,15_6_1.csv
2018-07-11T17:56:38.109394,-1.11,0.104,0.033,-196.342,-46.28,-52.988,15_6_1.csv
2018-07-11T17:56:38.184598,-0.833,-0.423,-0.055,-298.659,-12.927,-37.378,15_6_1.csv
2018-07-11T17:56:38.239746,-0.833,-0.423,-0.055,-172.805,-30.061,13.049,15_6_1.csv
2018-07-11T17:56:38.294393,-0.895,-0.389,0.052,-29.451,-34.085,134.573,15_6_1.csv
2018-07-11T17:56:38.336507,-1.063,-0.327,0.153,-20.915,-1.463,170.488,15_6_1.csv
2018-07-11T17:56:38.386141,-1.063,-0.327,0.153,-8.476,22.561,169.451,15_6_1.csv
2018-07-11T17:56:38.436279,-1.453,-0.345,0.648,20.976,48.598,149.085,15_6_1.csv
2018-07-11T17:56:38.494438,-2.836,0.379,0.484,42.134,231.707,61.585,15_6_1.csv
2018-07-11T17:56:38.564630,-2.836,0.379,0.484,-117.988,32.866,-131.524,15_6_1.csv
2018-07-11T17:56:38.635323,-2.607,0.103,-0.624,-23.354,-430.488,-343.415,15_6_1.csv
2018-07-11T17:56:38.681949,-1.828,-0.131,-1.049,-14.146,-638.415,-387.195,15_6_1.csv
2018-07-11T17:56:38.729076,-1.828,-0.131,-1.049,105.488,-714.878,-342.195,15_6_1.csv
2018-07-11T17:56:38.775200,-0.71,0.226,-0.269,-112.012,-387.683,-327.195,15_6_1.csv
2018-07-11T17:56:38.833858,-0.044,0.133,-0.154,-83.963,-326.585,-361.098,15_6_1.csv
2018-07-11T17:56:38.900037,0.057,0.153,-0.339,-48.841,-60.305,-168.415,15_6_1.csv
2018-07-11T17:56:38.947666,0.057,0.153,-0.339,-117.988,28.841,-67.378,15_6_1.csv
2018-07-11T17:56:38.994793,0.128,0.332,-0.108,-145.366,127.866,14.024,15_6_1.csv
2018-07-11T17:56:39.048438,0.128,0.332,-0.108,-68.354,284.451,64.817,15_6_1.csv
2018-07-11T17:56:39.103085,0.006,0.912,0.521,225.793,819.695,196.037,15_6_1.csv
2018-07-11T17:56:39.162746,-3.04,2.458,-1.779,-72.195,1265.976,398.842,15_6_1.csv
2018-07-11T17:56:39.214385,-3.056,0.866,-1.024,-360.366,179.39,163.354,15_6_1.csv
2018-07-11T17:56:39.325687,-1.338,-0.867,-0.234,-630.061,10.915,-94.451,15_6_1.csv
2018-07-11T17:56:39.368804,-1.338,-0.867,-0.234,-471.22,23.598,-25.122,15_6_1.csv
2018-07-11T17:56:39.417942,-0.931,-0.869,-0.372,50.427,-119.268,111.402,15_6_1.csv
2018-07-11T17:56:39.479107,-0.712,-0.26,-0.004,107.805,-26.341,65.488,15_6_1.csv
2018-07-11T17:56:39.524234,-0.712,-0.26,-0.004,75.366,62.256,27.622,15_6_1.csv
2018-07-11T17:56:39.572363,-0.867,-0.329,-0.074,72.866,107.866,-5.854,15_6_1.csv
2018-07-11T17:56:39.638544,-1.343,-0.563,-0.133,193.903,157.5,-3.902,15_6_1.csv
2018-07-11T17:56:39.697704,-1.858,0.68,-0.751,541.22,164.268,59.329,15_6_1.csv
2018-07-11T17:56:39.769397,-1.858,0.68,-0.751,713.781,52.866,80.488,15_6_1.csv
2018-07-11T17:56:39.827052,-1.106,2.527,-0.778,300.976,-143.049,279.817,15_6_1.csv
2018-07-11T17:56:39.900250,-1.254,0.979,0.147,-494.451,39.573,-54.39,15_6_1.csv
2018-07-11T17:56:39.947377,-0.883,-0.084,-0.767,-631.281,30.793,-240.671,15_6_1.csv
2018-07-11T17:56:40.030100,-0.944,-0.656,-0.721,-354.939,-161.89,-270.854,15_6_1.csv
2018-07-11T17:56:40.088758,-0.944,-0.656,-0.721,-106.585,-259.146,-193.415,15_6_1.csv
2018-07-11T17:56:40.145915,-0.712,-0.24,-0.011,126.22,-128.659,-68.963,15_6_1.csv
2018-07-11T17:56:40.213098,-0.482,-0.036,0.266,119.573,24.634,-84.451,15_6_1.csv
2018-07-11T17:56:40.262233,-0.7,-0.29,0.269,135.915,244.634,-54.878,15_6_1.csv
2018-07-11T17:56:40.314377,-0.7,-0.29,0.269,224.268,277.134,35.793,15_6_1.csv
2018-07-11T17:56:40.359498,-1.101,0.128,0.1,212.195,196.707,124.085,15_6_1.csv
2018-07-11T17:56:40.418663,-1.234,0.328,0.124,20.671,16.646,116.463,15_6_1.csv
2018-07-11T17:56:40.478824,-1.234,0.328,0.124,-61.829,-11.22,61.768,15_6_1.csv
2018-07-11T17:56:40.530970,-1.33,0.045,0.154,-122.195,18.78,25.305,15_6_1.csv
2018-07-11T17:56:40.573083,-1.33,0.045,0.154,-182.378,43.78,34.268,15_6_1.csv
2018-07-11T17:56:40.626230,-0.942,-0.193,0.221,-119.878,125.793,50.0,15_6_1.csv
2018-07-11T17:56:40.743552,-1.167,0.045,-0.044,-90.61,-86.646,-0.671,15_6_1.csv
2018-07-11T17:56:40.799705,-1.167,0.045,-0.044,-173.293,-93.963,-52.012,15_6_1.csv
2018-07-11T17:56:40.870788,-0.746,-0.036,0.02,-216.463,-2.195,-135.915,15_6_1.csv
2018-07-11T17:56:40.930955,-0.828,-0.276,-0.018,-187.927,22.073,-93.902,15_6_1.csv
2018-07-11T17:56:40.977079,-0.828,-0.276,-0.018,-113.537,26.463,-3.476,15_6_1.csv
2018-07-11T17:56:41.025214,-1.038,-0.034,0.583,-100.915,76.585,100.671,15_6_1.csv
2018-07-11T17:56:41.071338,-1.52,-0.46,0.267,-292.134,175.305,8.72,15_6_1.csv
2018-07-11T17:56:41.119472,-1.52,-0.46,0.267,-46.951,122.012,30.183,15_6_1.csv
2018-07-11T17:56:41.173618,-1.361,-0.339,-0.3,240.61,-71.707,165.915,15_6_1.csv
2018-07-11T17:56:41.227771,-0.884,0.536,0.099,70.488,-128.659,118.476,15_6_1.csv
2018-07-11T17:56:41.295954,-0.884,0.536,0.099,-131.524,-119.756,-57.195,15_6_1.csv
2018-07-11T17:56:41.344088,-0.979,-0.051,-0.043,-300.549,-74.512,-157.561,15_6_1.csv
2018-07-11T17:56:41.388207,-0.804,-0.494,-0.077,-180.0,-54.512,-105.549,15_6_1.csv
2018-07-11T17:56:41.431329,-0.804,-0.494,-0.077,2.988,-47.622,-63.659,15_6_1.csv
2018-07-11T17:56:41.489485,-0.742,-0.162,0.058,120.976,-33.232,-27.805,15_6_1.csv
2018-07-11T17:56:41.547646,-0.849,0.044,0.137,90.122,14.329,-3.171,15_6_1.csv
2018-07-11T17:56:41.588757,-0.849,0.044,0.137,24.39,36.768,-2.866,15_6_1.csv
2018-07-11T17:56:41.635890,-1.101,-0.065,0.099,-7.988,50.122,8.841,15_6_1.csv
2018-07-11T17:56:41.681011,-1.101,-0.065,0.099,-4.085,54.085,30.854,15_6_1.csv
2018-07-11T17:56:41.730147,-1.374,-0.073,0.079,0.549,54.817,44.146,15_6_1.csv
2018-07-11T17:56:41.781786,-1.374,-0.073,0.079,4.146,47.439,55.976,15_6_1.csv
2018-07-11T17:56:41.839943,-0.973,-0.089,0.319,50.122,170.854,40.915,15_6_1.csv
2018-07-11T17:56:41.888072,-1.107,0.232,-0.063,25.061,96.951,-27.988,15_6_1.csv
2018-07-11T17:56:41.934197,-1.107,0.232,-0.063,-61.098,-39.512,-69.695,15_6_1.csv
2018-07-11T17:56:41.977814,-1.077,0.154,0.02,-150.366,-121.463,-68.049,15_6_1.csv
2018-07-11T17:56:42.086610,-0.792,-0.127,0.212,-289.39,-94.756,-30.427,15_6_1.csv
2018-07-11T17:56:42.140760,-0.778,-0.396,0.153,-158.354,41.28,16.22,15_6_1.csv
2018-07-11T17:56:42.184880,-0.778,-0.396,0.153,-44.207,82.378,86.524,15_6_1.csv
2018-07-11T17:56:42.244045,-1.091,-0.277,0.104,142.927,114.695,181.098,15_6_1.csv
2018-07-11T17:56:42.293679,-1.778,0.147,0.07,151.89,126.22,180.366,15_6_1.csv
2018-07-11T17:56:42.354346,-1.207,0.127,0.077,-66.89,-14.268,39.756,15_6_1.csv
2018-07-11T17:56:42.405486,-1.207,0.127,0.077,-120.793,-52.378,-77.683,15_6_1.csv
2018-07-11T17:56:42.473168,-1.151,-0.032,-0.152,-112.5,-179.146,-205.366,15_6_1.csv
2018-07-11T17:56:42.524808,-1.005,-0.202,-0.027,-87.561,-212.622,-158.902,15_6_1.csv
2018-07-11T17:56:42.571935,-1.005,-0.202,-0.027,-45.549,-172.622,-111.463,15_6_1.csv
2018-07-11T17:56:42.622571,-0.687,-0.135,0.172,-2.439,-77.988,-88.171,15_6_1.csv
2018-07-11T17:56:42.665687,-0.687,-0.135,0.172,21.341,-12.988,-68.78,15_6_1.csv
2018-07-11T17:56:42.712821,-0.712,-0.056,0.09,27.866,-1.768,-22.256,15_6_1.csv
2018-07-11T17:56:42.767964,-0.785,-0.026,0.108,4.695,-1.463,2.195,15_6_1.csv
2018-07-11T17:56:42.823613,-0.785,-0.026,0.108,-15.488,15.488,33.049,15_6_1.csv
2018-07-11T17:56:42.873748,-1.088,-0.045,0.084,-43.72,56.829,102.683,15_6_1.csv
2018-07-11T17:56:42.921380,-1.385,-0.143,0.11,-47.744,78.049,124.817,15_6_1.csv
2018-07-11T17:56:42.962491,-1.385,-0.143,0.11,-14.512,99.512,147.988,15_6_1.csv
2018-07-11T17:56:43.013634,-1.119,-0.07,0.192,43.049,148.537,150.671,15_6_1.csv
2018-07-11T17:56:43.071791,-1.119,-0.07,0.192,47.866,160.976,96.524,15_6_1.csv
2018-07-11T17:56:43.117921,-1.187,0.219,-0.13,-112.866,-72.073,-55.366,15_6_1.csv
2018-07-11T17:56:43.173068,-0.9,0.024,-0.025,-216.037,-107.805,-94.268,15_6_1.csv
2018-07-11T17:56:43.249278,-0.756,-0.24,-0.001,-312.561,-25.488,-86.829,15_6_1.csv
2018-07-11T17:56:43.290390,-0.756,-0.24,-0.001,-245.854,11.22,-53.902,15_6_1.csv
2018-07-11T17:56:43.340529,-0.931,-0.35,0.127,-157.378,20.61,2.134,15_6_1.csv
2018-07-11T17:56:43.433784,-1.269,-0.238,0.304,77.866,112.134,143.476,15_6_1.csv
2018-07-11T17:56:43.478404,-1.771,0.295,0.047,158.781,153.72,163.049,15_6_1.csv
2018-07-11T17:56:43.529541,-1.771,0.295,0.047,-6.098,13.354,85.915,15_6_1.csv
2018-07-11T17:56:43.573159,-1.09,0.029,-0.063,-115.0,-93.11,0.915,15_6_1.csv
2018-07-11T17:56:43.623796,-1.09,0.029,-0.063,-98.659,-140.366,-95.61,15_6_1.csv
2018-07-11T17:56:43.689475,-1.16,-0.164,-0.149,-47.439,-223.232,-147.256,15_6_1.csv
2018-07-11T17:56:43.763678,-0.958,-0.162,-0.01,-29.878,-111.951,-81.829,15_6_1.csv
2018-07-11T17:56:43.810807,-0.688,-0.157,0.034,-24.756,-31.037,-93.659,15_6_1.csv
2018-07-11T17:56:43.862950,-0.688,-0.157,0.034,-9.817,6.768,-90.0,15_6_1.csv
2018-07-11T17:56:43.921110,-0.761,-0.14,-0.059,42.744,-3.659,-66.341,15_6_1.csv
2018-07-11T17:56:43.979271,-0.915,-0.106,0.066,38.78,7.134,-41.098,15_6_1.csv
2018-07-11T17:56:44.026398,-0.915,-0.106,0.066,46.22,49.268,6.463,15_6_1.csv
2018-07-11T17:56:44.085562,-1.184,-0.047,0.06,48.963,97.012,61.646,15_6_1.csv
2018-07-11T17:56:44.145724,-1.246,-0.111,0.183,39.878,102.317,78.659,15_6_1.csv
2018-07-11T17:56:44.196864,-1.246,-0.111,0.183,62.622,135.976,104.451,15_6_1.csv
2018-07-11T17:56:44.244994,-1.002,0.015,0.167,78.537,143.781,51.098,15_6_1.csv
2018-07-11T17:56:44.291620,-1.283,0.393,0.032,-17.256,-4.756,7.561,15_6_1.csv
2018-07-11T17:56:44.346270,-1.283,0.393,0.032,-181.403,-143.598,-45.305,15_6_1.csv
2018-07-11T17:56:44.412450,-0.971,-0.06,-0.026,-396.037,-75.488,-58.78,15_6_1.csv
2018-07-11T17:56:44.469607,-0.791,-0.416,-0.067,-332.988,-38.598,-30.488,15_6_1.csv
2018-07-11T17:56:44.526765,-1.0,-0.405,0.139,-56.829,51.402,32.988,15_6_1.csv
2018-07-11T17:56:44.572889,-1.0,-0.405,0.139,50.366,67.195,94.39,15_6_1.csv
2018-07-11T17:56:44.621021,-1.172,-0.092,0.222,139.756,84.146,128.598,15_6_1.csv
2018-07-11T17:56:44.667149,-1.172,-0.092,0.222,154.817,98.415,127.988,15_6_1.csv
2018-07-11T17:56:44.781461,-1.01,-0.182,0.019,-153.659,-94.024,-29.451,15_6_1.csv
2018-07-11T17:56:44.826584,-1.01,-0.182,0.019,-108.476,-77.134,-85.976,15_6_1.csv
2018-07-11T17:56:44.869703,-1.083,-0.234,-0.145,-46.098,-88.049,-127.134,15_6_1.csv
2018-07-11T17:56:44.916833,-1.083,-0.234,-0.145,-1.341,-120.305,-116.037,15_6_1.csv
2018-07-11T17:56:44.963962,-1.019,-0.195,-0.046,57.622,-79.39,-48.415,15_6_1.csv
2018-07-11T17:56:45.010087,-0.727,-0.156,0.116,65.122,-4.695,-59.085,15_6_1.csv
2018-07-11T17:56:45.071257,-0.727,-0.156,0.116,74.756,40.183,-69.39,15_6_1.csv
2018-07-11T17:56:45.125405,-0.831,-0.116,0.063,114.39,31.89,-38.78,15_6_1.csv
2018-07-11T17:56:45.170529,-0.896,0.01,0.035,73.841,3.11,-25.671,15_6_1.csv
2018-07-11T17:56:45.214148,-0.896,0.01,0.035,23.841,-1.402,-16.768,15_6_1.csv
2018-07-11T17:56:45.264787,-1.117,-0.092,0.057,-1.037,17.439,-0.854,15_6_1.csv
2018-07-11T17:56:45.336987,-1.385,-0.193,0.195,69.939,95.427,68.049,15_6_1.csv
2018-07-11T17:56:45.390130,-1.385,-0.193,0.195,146.585,138.781,104.329,15_6_1.csv
2018-07-11T17:56:45.432248,-1.165,0.184,0.239,170.305,168.049,105.976,15_6_1.csv
2018-07-11T17:56:45.478372,-1.165,0.184,0.239,92.866,105.061,55.183,15_6_1.csv
2018-07-11T17:56:45.527006,-1.249,0.684,0.07,-147.866,-253.537,-36.098,15_6_1.csv
2018-07-11T17:56:45.571628,-0.777,0.314,-0.207,-300.305,-215.061,-62.317,15_6_1.csv
2018-07-11T17:56:45.634299,-0.777,0.314,-0.207,-579.817,-134.085,-101.342,15_6_1.csv
2018-07-11T17:56:45.690951,-0.626,-0.356,-0.444,-496.89,-53.476,-56.28,15_6_1.csv
2018-07-11T17:56:45.746100,-0.746,-0.723,-0.082,-211.342,-49.329,36.22,15_6_1.csv
2018-07-11T17:56:45.793728,-0.746,-0.723,-0.082,92.683,-7.195,176.829,15_6_1.csv
2018-07-11T17:56:45.838850,-1.153,-0.354,0.02,299.756,69.756,287.012,15_6_1.csv
2018-07-11T17:56:45.891993,-1.791,0.399,0.009,265.976,207.5,297.317,15_6_1.csv
2018-07-11T17:56:45.982237,-1.04,0.191,0.057,-151.159,12.195,-52.927,15_6_1.csv
2018-07-11T17:56:46.045407,-1.04,0.191,0.057,-195.61,-39.817,-195.427,15_6_1.csv
2018-07-11T17:56:46.143173,-1.019,-0.332,-0.073,-31.829,-255.366,-152.622,15_6_1.csv
2018-07-11T17:56:46.184284,-1.019,-0.332,-0.073,30.671,-174.085,-80.061,15_6_1.csv
2018-07-11T17:56:46.248462,-0.653,-0.073,0.146,39.634,-27.378,-80.793,15_6_1.csv
2018-07-11T17:56:46.294586,-0.793,-0.161,-0.068,41.585,81.402,-87.195,15_6_1.csv
2018-07-11T17:56:46.360769,-0.793,-0.161,-0.068,76.341,62.805,-48.293,15_6_1.csv
2018-07-11T17:56:46.428455,-0.801,-0.082,-0.009,88.72,51.524,16.341,15_6_1.csv
2018-07-11T17:56:46.500151,-1.073,-0.021,0.272,34.756,137.744,90.915,15_6_1.csv
2018-07-11T17:56:46.545277,-1.958,0.327,0.36,9.756,308.293,110.732,15_6_1.csv
2018-07-11T17:56:46.596415,-1.958,0.327,0.36,-93.659,305.61,91.037,15_6_1.csv
2018-07-11T17:56:46.640539,-1.05,-0.103,-0.28,-206.768,-101.098,50.488,15_6_1.csv
2018-07-11T17:56:46.699698,-1.035,0.026,-0.186,-99.817,-253.598,-69.329,15_6_1.csv
2018-07-11T17:56:46.748835,-1.035,0.026,-0.186,-255.915,-254.39,-112.012,15_6_1.csv
2018-07-11T17:56:46.790948,-1.016,-0.155,-0.116,-348.902,-198.415,-50.854,15_6_1.csv
2018-07-11T17:56:46.838079,-1.016,-0.155,-0.116,-380.976,-96.524,-12.134,15_6_1.csv
2018-07-11T17:56:46.886209,-0.512,-0.231,-0.222,-339.329,-29.512,-41.098,15_6_1.csv
2018-07-11T17:56:46.931334,-0.687,-0.429,-0.107,-34.756,31.22,31.402,15_6_1.csv
2018-07-11T17:56:46.995509,-0.687,-0.429,-0.107,120.549,70.488,159.024,15_6_1.csv
2018-07-11T17:56:47.057682,-1.038,-0.363,0.118,363.11,260.488,282.622,15_6_1.csv
2018-07-11T17:56:47.109822,-2.246,0.631,0.062,366.951,395.854,283.11,15_6_1.csv
2018-07-11T17:56:47.157956,-2.246,0.631,0.062,116.89,311.159,138.415,15_6_1.csv
2018-07-11T17:56:47.214108,-1.368,0.366,-0.159,-121.402,-224.39,-89.878,15_6_1.csv
2018-07-11T17:56:47.259233,-0.75,0.035,-0.235,-149.268,-285.488,-177.195,15_6_1.csv
2018-07-11T17:56:47.322406,-0.75,0.035,-0.235,-209.329,-323.293,-246.829,15_6_1.csv
2018-07-11T17:56:47.377557,-1.223,-0.407,-0.123,-163.293,-259.573,-44.268,15_6_1.csv
2018-07-11T17:56:47.446750,-0.9,-0.24,0.116,-117.195,-114.878,23.476,15_6_1.csv
2018-07-11T17:56:47.559058,-0.941,-0.094,-0.019,132.439,66.037,-131.524,15_6_1.csv
2018-07-11T17:56:47.609193,-0.722,0.11,0.035,96.524,8.354,-72.195,15_6_1.csv
2018-07-11T17:56:47.654321,-0.722,0.11,0.035,15.976,-19.878,-37.317,15_6_1.csv
2018-07-11T17:56:47.712477,-0.475,0.111,0.25,-88.902,51.402,45.427,15_6_1.csv
2018-07-11T17:56:47.774650,-0.819,-0.11,0.142,-84.085,52.5,127.683,15_6_1.csv
2018-07-11T17:56:47.821779,-1.485,-0.168,-0.137,-46.707,77.439,221.829,15_6_1.csv
2018-07-11T17:56:47.868909,-1.485,-0.168,-0.137,-52.561,96.585,236.281,15_6_1.csv
2018-07-11T17:56:47.917038,-1.69,-0.705,-0.89,154.878,226.159,242.439,15_6_1.csv
2018-07-11T17:56:47.962165,-1.69,-0.705,-0.89,533.049,290.366,221.098,15_6_1.csv
2018-07-11T17:56:48.027844,-1.792,-0.451,-0.843,-164.451,1.341,-461.402,15_6_1.csv
2018-07-11T17:56:48.093524,-1.166,-1.198,0.205,-144.207,-18.598,-439.939,15_6_1.csv
2018-07-11T17:56:48.150682,-0.713,-0.118,0.401,-23.354,-103.171,-229.512,15_6_1.csv
2018-07-11T17:56:48.195804,-0.713,-0.118,0.401,-89.878,-163.72,-188.049,15_6_1.csv
2018-07-11T17:56:48.245945,-0.765,-0.444,-0.152,-117.256,-163.598,-145.366,15_6_1.csv
2018-07-11T17:56:48.291066,-0.765,-0.444,-0.152,-109.207,-140.549,-120.976,15_6_1.csv
2018-07-11T17:56:48.355243,-0.626,-0.689,-0.551,-79.207,-63.476,-72.561,15_6_1.csv
2018-07-11T17:56:48.415406,-0.595,-0.536,-0.208,-144.207,-156.768,-98.232,15_6_1.csv
2018-07-11T17:56:48.479080,-0.58,-0.66,0.0,-146.89,-139.695,-99.268,15_6_1.csv
2018-07-11T17:56:48.525705,-0.58,-0.66,0.0,-73.354,-132.561,-43.476,15_6_1.csv
2018-07-11T17:56:48.572832,-0.75,-0.631,0.061,-59.573,-114.817,-25.305,15_6_1.csv
2018-07-11T17:56:48.621464,-0.972,-0.295,-0.04,-23.659,-45.244,46.402,15_6_1.csv
2018-07-11T17:56:48.686640,-0.972,-0.295,-0.04,-23.659,-75.183,76.951,15_6_1.csv
2018-07-11T17:56:48.760339,-0.832,-0.323,0.014,-129.146,-120.61,147.012,15_6_1.csv
2018-07-11T17:56:48.866123,-1.783,-1.129,0.453,-160.732,-281.159,99.085,15_6_1.csv
2018-07-11T17:56:48.920771,-1.783,-1.129,0.453,-173.049,-403.963,21.585,15_6_1.csv
2018-07-11T17:56:48.963888,-1.591,-1.207,1.112,-142.988,-386.768,-148.354,15_6_1.csv
2018-07-11T17:56:49.014023,-1.591,-1.207,1.112,-32.256,-315.488,-238.232,15_6_1.csv
2018-07-11T17:56:49.059144,0.058,-0.367,0.208,20.854,-315.244,-84.634,15_6_1.csv
2018-07-11T17:56:49.135351,0.624,-2.009,1.178,-181.159,-65.061,-140.305,15_6_1.csv
2018-07-11T17:56:49.181976,0.624,-2.009,1.178,-82.073,87.073,-183.171,15_6_1.csv
2018-07-11T17:56:49.229103,-0.368,-2.406,2.668,-130.244,-281.402,-103.842,15_6_1.csv
2018-07-11T17:56:49.290769,-3.032,-0.238,0.646,-238.842,-503.232,-54.878,15_6_1.csv
2018-07-11T17:56:49.342910,-3.032,-0.238,0.646,286.463,-540.61,-69.817,15_6_1.csv
2018-07-11T17:56:49.408088,-0.979,2.766,-1.424,253.232,-9.024,-54.634,15_6_1.csv
2018-07-11T17:56:49.450202,-0.903,1.0,-0.181,163.232,99.817,211.646,15_6_1.csv
2018-07-11T17:56:49.496330,-0.903,1.0,-0.181,-2.927,134.939,345.244,15_6_1.csv
2018-07-11T17:56:49.549474,0.244,-4.46,1.765,-10.488,271.281,70.549,15_6_1.csv
2018-07-11T17:56:49.604626,0.393,-2.114,1.176,146.463,212.561,-114.512,15_6_1.csv
2018-07-11T17:56:49.675821,0.398,0.496,-0.189,344.512,239.329,-65.549,15_6_1.csv
2018-07-11T17:56:49.728967,0.398,0.496,-0.189,443.171,123.72,19.329,15_6_1.csv
2018-07-11T17:56:49.775094,-0.546,0.16,-1.176,-166.037,34.024,92.744,15_6_1.csv
2018-07-11T17:56:49.826234,-3.341,-2.169,-0.104,-288.476,184.573,291.098,15_6_1.csv
2018-07-11T17:56:49.886901,-3.341,-2.169,-0.104,56.768,618.354,-280.061,15_6_1.csv
2018-07-11T17:56:49.932526,-3.947,-1.367,0.058,365.488,631.829,-411.524,15_6_1.csv
2018-07-11T17:56:49.978652,-3.947,-1.367,0.058,617.256,267.5,-193.781,15_6_1.csv
2018-07-11T17:56:50.025782,-1.7,3.377,0.831,250.183,-33.659,-172.805,15_6_1.csv
2018-07-11T17:56:50.070903,-1.689,1.046,-0.227,-339.451,-239.268,24.756,15_6_1.csv
2018-07-11T17:56:50.119037,-1.689,1.046,-0.227,-116.159,-487.073,283.11,15_6_1.csv
2018-07-11T17:56:50.228335,-2.368,-0.473,0.004,-66.22,-161.281,605.61,15_6_1.csv
2018-07-11T17:56:50.275967,-2.519,0.489,-0.453,-497.622,25.976,246.342,15_6_1.csv
2018-07-11T17:56:50.325602,-1.398,-0.429,-0.994,-424.329,-252.439,119.451,15_6_1.csv
2018-07-11T17:56:50.374734,-1.398,-0.429,-0.994,-362.927,-275.976,65.793,15_6_1.csv
2018-07-11T17:56:50.415349,-0.697,-0.551,-0.48,-293.781,-219.634,51.524,15_6_1.csv
2018-07-11T17:56:50.461977,-0.697,-0.551,-0.48,-186.342,-151.89,70.244,15_6_1.csv
2018-07-11T17:56:50.529160,-0.67,-0.272,-0.443,19.634,1.585,115.854,15_6_1.csv
2018-07-11T17:56:50.580301,-0.903,-0.45,-0.234,48.659,60.976,169.085,15_6_1.csv
2018-07-11T17:56:50.633949,-1.673,-0.864,0.329,-81.159,225.61,151.159,15_6_1.csv
2018-07-11T17:56:50.683082,-1.673,-0.864,0.329,-86.037,235.732,26.037,15_6_1.csv
2018-07-11T17:56:50.728202,-1.766,-1.758,1.603,-78.841,198.476,-156.037,15_6_1.csv
2018-07-11T17:56:50.775830,-1.766,-1.758,1.603,24.207,195.122,-241.951,15_6_1.csv
2018-07-11T17:56:50.825464,-2.01,-1.196,1.658,92.622,110.366,-260.0,15_6_1.csv
2018-07-11T17:56:50.874095,-1.39,-0.577,0.591,-16.22,-202.256,-211.463,15_6_1.csv
2018-07-11T17:56:50.916209,-1.39,-0.577,0.591,36.951,-174.695,-189.817,15_6_1.csv
2018-07-11T17:56:50.964840,-0.619,-0.298,0.07,82.988,-127.622,-162.134,15_6_1.csv
2018-07-11T17:56:51.008458,-0.619,-0.298,0.07,91.829,-106.89,-102.683,15_6_1.csv
2018-07-11T17:56:51.057593,-0.294,-0.076,-0.219,79.939,-87.866,-57.744,15_6_1.csv
2018-07-11T17:56:51.114248,-0.364,0.014,-0.304,41.646,-92.683,-36.89,15_6_1.csv
2018-07-11T17:56:51.164887,-0.364,0.014,-0.304,3.841,-80.244,-12.134,15_6_1.csv
2018-07-11T17:56:51.243102,-0.394,0.021,-0.302,-79.207,-19.329,64.024,15_6_1.csv
2018-07-11T17:56:51.291232,-0.71,-0.182,-0.279,-59.634,47.134,156.646,15_6_1.csv
2018-07-11T17:56:51.338363,-0.71,-0.182,-0.279,20.061,174.939,298.171,15_6_1.csv
2018-07-11T17:56:51.384487,-2.114,-1.917,-0.555,195.122,386.281,466.951,15_6_1.csv
2018-07-11T17:56:51.452674,-3.631,1.158,-1.588,808.659,749.695,149.451,15_6_1.csv
2018-07-11T17:56:51.512335,-3.631,1.158,-1.588,203.293,-231.463,-393.842,15_6_1.csv
2018-07-11T17:56:51.594055,-1.717,1.088,0.754,-105.549,-235.305,-395.671,15_6_1.csv
2018-07-11T17:56:51.641684,-0.512,-0.078,0.305,-26.707,-259.085,-10.488,15_6_1.csv
2018-07-11T17:56:51.680789,-0.166,0.043,-0.093,-24.634,-250.183,29.573,15_6_1.csv
2018-07-11T17:56:51.744962,-0.166,0.043,-0.093,-77.561,-242.744,107.744,15_6_1.csv
2018-07-11T17:56:51.820669,-0.439,-0.183,0.009,-115.427,-140.244,257.012,15_6_1.csv
2018-07-11T17:56:51.873312,-1.443,-0.45,-0.231,-121.707,-70.366,311.463,15_6_1.csv
2018-07-11T17:56:51.914924,-1.443,-0.45,-0.231,-109.39,-45.915,371.951,15_6_1.csv
2018-07-11T17:56:51.963556,-1.76,-0.924,-0.452,168.659,31.098,390.366,15_6_1.csv
2018-07-11T17:56:52.010181,-1.28,-0.219,-0.051,106.89,45.549,186.159,15_6_1.csv
2018-07-11T17:56:52.061821,-1.28,-0.219,-0.051,7.927,170.915,-102.012,15_6_1.csv
2018-07-11T17:56:52.121983,-2.033,-0.45,-0.295,-151.463,213.781,-257.744,15_6_1.csv
2018-07-11T17:56:52.171116,-2.253,-0.342,0.001,-19.634,160.732,-251.403,15_6_1.csv
2018-07-11T17:56:52.211725,-2.253,-0.342,0.001,233.903,197.866,-201.707,15_6_1.csv
2018-07-11T17:56:52.265372,-1.259,0.431,-0.027,246.463,-22.195,37.195,15_6_1.csv
2018-07-11T17:56:52.312499,-1.259,0.431,-0.027,239.207,-155.061,42.988,15_6_1.csv
2018-07-11T17:56:52.355620,-0.688,-0.363,-0.125,170.488,-199.512,9.146,15_6_1.csv
2018-07-11T17:56:52.425310,-0.626,-0.312,-0.12,116.159,-96.707,62.561,15_6_1.csv
2018-07-11T17:56:52.479957,-0.626,-0.312,-0.12,117.439,-122.744,27.012,15_6_1.csv
2018-07-11T17:56:52.528088,-0.567,-0.123,-0.166,-42.317,-111.159,-54.817,15_6_1.csv
2018-07-11T17:56:52.580228,-0.423,-0.527,-0.316,-64.146,-50.732,-74.329,15_6_1.csv
2018-07-11T17:56:52.638388,-0.423,-0.527,-0.316,-15.671,18.049,-54.695,15_6_1.csv
2018-07-11T17:56:52.699553,-0.467,-0.523,-0.397,20.183,110.305,-37.012,15_6_1.csv
2018-07-11T17:56:52.744680,-0.755,-0.45,-0.478,-4.207,144.268,-21.768,15_6_1.csv
2018-07-11T17:56:52.794815,-0.755,-0.45,-0.478,-1.524,168.659,31.098,15_6_1.csv
2018-07-11T17:56:52.842950,-2.159,-0.625,0.231,-8.659,409.695,191.951,15_6_1.csv
2018-07-11T17:56:52.891080,-3.176,-0.417,0.216,164.573,467.134,279.939,15_6_1.csv
2018-07-11T17:56:52.996368,-1.088,1.166,-0.76,394.085,-117.866,87.012,15_6_1.csv
2018-07-11T17:56:53.046508,-0.72,0.899,-1.64,-798.963,-520.366,-265.305,15_6_1.csv
2018-07-11T17:56:53.092632,-0.72,0.899,-1.64,-952.134,-454.512,-469.085,15_6_1.csv
2018-07-11T17:56:53.134751,-0.396,-0.502,-0.049,-587.256,-279.634,-259.634,15_6_1.csv
2018-07-11T17:56:53.185889,-0.396,-0.502,-0.049,59.512,-126.707,132.866,15_6_1.csv
2018-07-11T17:56:53.238033,-0.715,-0.049,-0.332,448.659,-29.451,284.817,15_6_1.csv
2018-07-11T17:56:53.294185,-1.069,0.12,-0.328,294.878,9.024,402.195,15_6_1.csv
2018-07-11T17:56:53.348333,-1.069,0.12,-0.328,143.232,81.098,305.122,15_6_1.csv
2018-07-11T17:56:53.400474,-1.181,-0.147,0.143,27.866,121.098,145.0,15_6_1.csv
2018-07-11T17:56:53.446598,-1.483,-0.423,0.054,-132.317,303.72,1.829,15_6_1.csv
2018-07-11T17:56:53.494226,-1.483,-0.423,0.054,-136.402,288.963,20.122,15_6_1.csv
2018-07-11T17:56:53.553386,-1.791,-0.461,0.058,-60.0,201.463,46.402,15_6_1.csv
2018-07-11T17:56:53.609538,-1.961,0.57,0.023,17.683,86.951,-42.927,15_6_1.csv
2018-07-11T17:56:53.653657,-1.961,0.57,0.023,-156.951,-37.683,-235.244,15_6_1.csv
2018-07-11T17:56:53.703290,-1.579,0.17,-0.329,-357.134,-138.171,-441.463,15_6_1.csv
2018-07-11T17:56:53.743900,-1.579,0.17,-0.329,-314.573,-154.451,-443.354,15_6_1.csv
2018-07-11T17:56:53.807071,-1.114,-0.775,-0.222,277.439,-186.463,-102.927,15_6_1.csv
2018-07-11T17:56:53.878262,-0.806,0.023,-0.125,394.451,-145.366,-56.646,15_6_1.csv
2018-07-11T17:56:53.936920,-0.785,-0.046,-0.105,127.622,-78.232,-72.134,15_6_1.csv
2018-07-11T17:56:53.979535,-0.785,-0.046,-0.105,-9.268,-56.22,-69.512,15_6_1.csv
2018-07-11T17:56:54.030172,-0.815,-0.436,-0.266,-9.512,-49.024,-68.415,15_6_1.csv
2018-07-11T17:56:54.074291,-0.815,-0.436,-0.266,-10.854,-56.768,-81.098,15_6_1.csv
2018-07-11T17:56:54.144480,-0.545,-0.387,0.104,-62.927,116.159,-124.085,15_6_1.csv
2018-07-11T17:56:54.212165,-0.707,-0.527,0.358,25.427,271.646,-37.866,15_6_1.csv
2018-07-11T17:56:54.322464,-1.301,-0.186,0.11,5.061,121.524,64.939,15_6_1.csv
2018-07-11T17:56:54.368589,-1.303,-0.197,0.292,-31.829,44.329,119.39,15_6_1.csv
2018-07-11T17:56:54.424740,-1.323,0.162,0.131,59.39,-43.598,210.732,15_6_1.csv
2018-07-11T17:56:54.478886,-1.323,0.162,0.131,-48.476,-111.402,152.866,15_6_1.csv
2018-07-11T17:56:54.539048,-1.15,0.048,-0.033,-338.963,-157.683,-2.073,15_6_1.csv
2018-07-11T17:56:54.604224,-0.783,-0.379,-0.051,-356.159,-92.012,-17.012,15_6_1.csv
2018-07-11T17:56:54.667395,-0.782,-0.418,-0.031,-188.903,-20.0,24.695,15_6_1.csv
2018-07-11T17:56:54.714021,-0.782,-0.418,-0.031,-108.232,-16.89,90.366,15_6_1.csv
2018-07-11T17:56:54.761147,-0.945,-0.415,0.103,-64.756,-6.402,160.549,15_6_1.csv
2018-07-11T17:56:54.808275,-0.945,-0.415,0.103,-40.183,27.073,211.159,15_6_1.csv
2018-07-11T17:56:54.869440,-1.273,-0.564,0.161,33.659,107.988,236.281,15_6_1.csv
2018-07-11T17:56:54.938626,-1.481,-0.361,0.033,61.951,97.256,56.89,15_6_1.csv
2018-07-11T17:56:54.994778,-1.605,-0.068,0.028,0.732,3.476,-99.573,15_6_1.csv
2018-07-11T17:56:55.041904,-1.605,-0.068,0.028,-65.976,-51.89,-230.793,15_6_1.csv
2018-07-11T17:56:55.090035,-1.406,-0.242,-0.005,-50.793,-39.634,-298.598,15_6_1.csv
2018-07-11T17:56:55.136660,-1.446,-0.081,-0.172,133.232,-150.854,-281.524,15_6_1.csv
2018-07-11T17:56:55.194823,-1.446,-0.081,-0.172,149.512,-196.951,-232.012,15_6_1.csv
2018-07-11T17:56:55.256994,-0.784,0.014,0.252,42.256,-13.598,-120.427,15_6_1.csv
2018-07-11T17:56:55.313145,-0.547,-0.083,0.237,8.415,60.854,-68.293,15_6_1.csv
2018-07-11T17:56:55.358272,-0.547,-0.083,0.237,-12.622,70.366,-15.061,15_6_1.csv
2018-07-11T17:56:55.406402,-0.661,-0.137,0.142,-28.537,52.561,24.939,15_6_1.csv
2018-07-11T17:56:55.451528,-0.661,-0.137,0.142,-47.012,26.402,55.244,15_6_1.csv
2018-07-11T17:56:55.511691,-0.907,-0.233,0.153,-63.537,-20.671,123.476,15_6_1.csv
2018-07-11T17:56:55.562833,-1.144,-0.25,0.111,-90.488,-23.293,152.134,15_6_1.csv
2018-07-11T17:56:55.681157,-1.507,-0.29,-0.085,-151.463,-46.646,204.878,15_6_1.csv
2018-07-11T17:56:55.728283,-1.52,-0.504,0.005,-173.171,-71.159,202.561,15_6_1.csv
2018-07-11T17:56:55.783436,-0.856,-0.536,0.244,-138.963,40.122,128.781,15_6_1.csv
2018-07-11T17:56:55.825550,-0.856,-0.536,0.244,-75.549,98.902,50.61,15_6_1.csv
2018-07-11T17:56:55.892736,-1.009,-0.328,-0.03,-30.488,87.195,-23.476,15_6_1.csv
2018-07-11T17:56:55.945380,-1.086,-0.261,0.079,-19.451,-76.402,-128.354,15_6_1.csv
2018-07-11T17:56:55.996019,-1.086,-0.261,0.079,5.549,-81.341,-135.061,15_6_1.csv
2018-07-11T17:56:56.043649,-0.846,-0.214,0.334,35.976,-27.561,-108.415,15_6_1.csv
2018-07-11T17:56:56.093286,-0.846,-0.214,0.334,50.244,21.951,-79.268,15_6_1.csv
2018-07-11T17:56:56.139913,-0.814,-0.073,0.352,28.232,46.646,-23.232,15_6_1.csv
2018-07-11T17:56:56.200579,-0.865,-0.063,0.385,15.732,53.049,11.037,15_6_1.csv
2018-07-11T17:56:56.264758,-1.05,-0.02,0.251,-12.378,36.89,55.427,15_6_1.csv
2018-07-11T17:56:56.306872,-1.05,-0.02,0.251,-52.256,-1.037,54.207,15_6_1.csv
2018-07-11T17:56:56.354000,-1.154,-0.101,0.118,-97.805,-27.073,48.841,15_6_1.csv
2018-07-11T17:56:56.401628,-1.154,-0.101,0.118,-138.537,-29.695,45.732,15_6_1.csv
2018-07-11T17:56:56.447252,-1.395,-0.337,-0.011,-164.085,-34.817,41.22,15_6_1.csv
2018-07-11T17:56:56.513430,-1.013,-0.413,0.241,-111.646,1.463,26.829,15_6_1.csv
2018-07-11T17:56:56.570584,-1.013,-0.413,0.241,-32.561,77.134,-17.683,15_6_1.csv
2018-07-11T17:56:56.620218,-1.117,-0.13,0.117,6.829,25.366,-70.976,15_6_1.csv
2018-07-11T17:56:56.675868,-1.226,-0.093,-0.013,-19.573,-74.512,-80.671,15_6_1.csv
2018-07-11T17:56:56.732022,-1.226,-0.093,-0.013,-10.366,-126.037,-78.72,15_6_1.csv
2018-07-11T17:56:56.775138,-1.035,-0.108,0.249,19.817,-100.366,-71.585,15_6_1.csv
2018-07-11T17:56:56.848119,-1.014,0.051,0.238,1.951,-21.341,-46.524,15_6_1.csv
2018-07-11T17:56:56.915306,-0.935,-0.099,0.158,-123.781,-66.951,-31.463,15_6_1.csv
2018-07-11T17:56:56.963435,-0.935,-0.099,0.158,-178.476,-76.22,-20.732,15_6_1.csv
2018-07-11T17:56:57.045664,-0.756,-0.55,0.104,-124.573,-67.683,24.268,15_6_1.csv
2018-07-11T17:56:57.091288,-0.659,-0.758,0.108,-40.061,-68.78,69.573,15_6_1.csv
2018-07-11T17:56:57.143934,-0.731,-0.646,0.177,-10.671,-40.854,83.72,15_6_1.csv
2018-07-11T17:56:57.201089,-0.731,-0.646,0.177,-41.159,-24.207,53.476,15_6_1.csv
2018-07-11T17:56:57.262257,-0.912,-0.623,0.186,-48.841,-9.573,35.183,15_6_1.csv
2018-07-11T17:56:57.312397,-1.012,-0.523,0.284,-16.89,32.073,35.915,15_6_1.csv
2018-07-11T17:56:57.371557,-1.012,-0.523,0.284,13.72,53.11,31.22,15_6_1.csv
2018-07-11T17:56:57.435735,-1.011,-0.188,0.292,26.768,27.195,-9.085,15_6_1.csv
2018-07-11T17:56:57.496400,-1.003,-0.102,0.228,-41.646,-39.817,-31.28,15_6_1.csv
2018-07-11T17:56:57.546037,-0.962,-0.318,0.312,-40.0,-75.976,-22.866,15_6_1.csv
2018-07-11T17:56:57.590158,-0.962,-0.318,0.312,11.037,-18.537,13.841,15_6_1.csv
2018-07-11T17:56:57.635282,-0.904,-0.159,0.333,12.744,33.72,38.354,15_6_1.csv
2018-07-11T17:56:57.699959,-0.904,-0.159,0.333,-27.622,32.134,38.232,15_6_1.csv
2018-07-11T17:56:57.760624,-0.979,-0.179,0.221,-76.159,-18.78,47.073,15_6_1.csv
2018-07-11T17:56:57.807756,-0.993,-0.333,0.278,-72.439,-5.854,66.646,15_6_1.csv
2018-07-11T17:56:57.853880,-0.993,-0.333,0.278,-51.098,23.232,83.049,15_6_1.csv
2018-07-11T17:56:57.901009,-1.076,-0.314,0.298,-34.268,35.793,86.89,15_6_1.csv
2018-07-11T17:56:57.946134,-1.076,-0.314,0.298,-36.524,23.171,71.585,15_6_1.csv
2018-07-11T17:56:57.994767,-1.243,-0.3,0.317,-51.28,-4.329,23.78,15_6_1.csv
2018-07-11T17:56:58.042398,-1.208,-0.214,0.415,-31.585,-9.451,-0.183,15_6_1.csv
2018-07-11T17:56:58.091031,-1.208,-0.214,0.415,-12.988,-19.024,-44.756,15_6_1.csv
2018-07-11T17:56:58.155705,-1.432,-0.116,0.634,-6.22,-97.317,-86.037,15_6_1.csv
2018-07-11T17:56:58.212358,-1.552,-0.393,0.858,-59.146,-107.073,-96.646,15_6_1.csv
2018-07-11T17:56:58.267507,-1.552,-0.393,0.858,-86.89,-149.817,-134.512,15_6_1.csv
2018-07-11T17:56:58.323157,-1.369,-0.667,0.51,-132.195,-244.817,-181.342,15_6_1.csv
2018-07-11T17:56:58.410894,-0.771,-0.701,0.138,-205.366,-201.707,-243.963,15_6_1.csv
2018-07-11T17:56:58.463536,-0.423,-0.589,-0.211,-188.963,-171.829,-258.963,15_6_1.csv
2018-07-11T17:56:58.514674,-0.134,-0.398,0.057,-1.159,-81.768,-215.671,15_6_1.csv
2018-07-11T17:56:58.557790,-0.134,-0.398,0.057,93.537,3.78,-174.451,15_6_1.csv
2018-07-11T17:56:58.619958,0.289,-0.306,0.549,186.037,91.463,-133.902,15_6_1.csv
2018-07-11T17:56:58.679117,0.497,-0.092,0.623,208.171,100.366,-78.841,15_6_1.csv
2018-07-11T17:56:58.730255,0.497,-0.092,0.623,159.634,83.476,-61.707,15_6_1.csv
2018-07-11T17:56:58.784903,0.433,0.051,0.574,42.073,46.585,-55.0,15_6_1.csv
2018-07-11T17:56:58.841054,0.534,-0.342,0.716,-112.195,59.207,-18.72,15_6_1.csv
2018-07-11T17:56:58.886677,0.534,-0.342,0.716,-80.122,79.878,8.537,15_6_1.csv
2018-07-11T17:56:58.945336,0.472,-0.581,0.848,5.122,101.037,26.951,15_6_1.csv
2018-07-11T17:56:59.004996,0.199,-0.487,0.965,39.329,89.451,27.195,15_6_1.csv
2018-07-11T17:56:59.062652,0.199,-0.487,0.965,-17.439,81.28,15.732,15_6_1.csv
2018-07-11T17:56:59.108776,-0.026,-0.746,1.115,-44.024,87.195,3.049,15_6_1.csv
2018-07-11T17:56:59.156405,-0.061,-0.553,1.046,50.793,43.232,-10.915,15_6_1.csv
2018-07-11T17:56:59.207543,-0.061,-0.553,1.046,59.512,27.988,-4.512,15_6_1.csv
2018-07-11T17:56:59.273723,-0.096,-0.046,0.218,-1.524,19.512,0.488,15_6_1.csv
2018-07-11T17:56:59.328874,-0.523,-0.52,0.291,-176.22,41.22,34.939,15_6_1.csv
2018-07-11T17:56:59.390041,-0.523,-0.52,0.291,36.341,146.89,114.085,15_6_1.csv
2018-07-11T17:56:59.442187,-0.687,-0.236,0.506,305.244,513.903,181.098,15_6_1.csv
2018-07-11T17:56:59.495330,-1.57,0.958,-0.211,137.012,535.793,202.256,15_6_1.csv
2018-07-11T17:56:59.547475,-1.57,0.958,-0.211,-99.939,274.39,69.634,15_6_1.csv
2018-07-11T17:56:59.609643,-1.79,0.225,0.102,-208.354,85.915,42.988,15_6_1.csv
2018-07-11T17:56:59.653766,-1.505,-0.455,0.267,-199.146,40.671,120.854,15_6_1.csv
2018-07-11T17:56:59.703901,-1.505,-0.455,0.267,-113.476,41.22,162.256,15_6_1.csv
2018-07-11T17:56:59.781114,-1.285,-0.209,0.326,43.537,105.915,42.256,15_6_1.csv
2018-07-11T17:56:59.835763,-1.21,0.022,0.093,26.585,32.5,-36.402,15_6_1.csv
2018-07-11T17:56:59.900441,-1.097,0.127,-0.072,-0.183,-142.012,-169.146,15_6_1.csv
2018-07-11T17:56:59.962615,-1.117,0.007,-0.061,-165.976,-154.085,-226.585,15_6_1.csv
2018-07-11T17:57:00.009741,-1.117,0.007,-0.061,-242.988,-85.183,-187.439,15_6_1.csv
2018-07-11T17:57:00.078932,-1.1,-0.278,-0.168,-159.573,18.232,-100.122,15_6_1.csv
2018-07-11T17:57:00.120043,-0.893,-0.392,0.001,-1.707,57.744,-52.439,15_6_1.csv
2018-07-11T17:57:00.190235,-0.893,-0.392,0.001,149.451,109.512,-1.829,15_6_1.csv
2018-07-11T17:57:00.256915,-0.977,-0.139,0.079,251.403,170.427,91.402,15_6_1.csv
2018-07-11T17:57:00.330112,-1.069,0.095,0.029,39.512,50.61,108.72,15_6_1.csv
2018-07-11T17:57:00.385261,-1.148,-0.113,0.07,-8.963,17.744,86.402,15_6_1.csv
2018-07-11T17:57:00.432891,-1.148,-0.113,0.07,-24.085,-11.524,72.866,15_6_1.csv
2018-07-11T17:57:00.480020,-1.156,-0.241,0.07,-15.854,-39.207,56.524,15_6_1.csv
2018-07-11T17:57:00.547204,-1.014,-0.223,0.055,-40.61,-27.866,24.207,15_6_1.csv
2018-07-11T17:57:00.604863,-0.97,-0.31,0.013,-40.244,-27.683,13.963,15_6_1.csv
2018-07-11T17:57:00.653494,-0.97,-0.31,0.013,-12.927,-23.598,19.817,15_6_1.csv
2018-07-11T17:57:00.704632,-1.101,-0.238,-0.013,9.268,-19.695,22.561,15_6_1.csv
2018-07-11T17:57:00.746745,-1.101,-0.238,-0.013,5.915,-13.354,13.598,15_6_1.csv
2018-07-11T17:57:00.791366,-1.254,-0.176,0.138,-16.098,-11.341,-12.439,15_6_1.csv
2018-07-11T17:57:00.851027,-1.047,0.33,0.286,11.646,52.378,-94.024,15_6_1.csv
2018-07-11T17:57:00.915200,-1.047,0.33,0.286,-59.329,16.585,-144.146,15_6_1.csv
2018-07-11T17:57:00.979373,-0.887,0.204,-0.128,-266.402,-112.927,-123.598,15_6_1.csv
2018-07-11T17:57:01.028506,-1.053,-0.513,-0.232,-136.098,-198.781,-41.89,15_6_1.csv
2018-07-11T17:57:01.074629,-1.053,-0.513,-0.232,31.402,-199.39,54.512,15_6_1.csv
2018-07-11T17:57:01.182420,-0.982,-0.126,0.167,65.183,113.598,88.049,15_6_1.csv
2018-07-11T17:57:01.240076,-0.982,-0.126,0.167,6.037,116.707,93.598,15_6_1.csv
2018-07-11T17:57:01.302745,-1.018,-0.237,0.092,2.927,40.0,71.89,15_6_1.csv
2018-07-11T17:57:01.360401,-1.024,-0.183,0.231,11.951,18.537,47.195,15_6_1.csv
2018-07-11T17:57:01.401511,-1.024,-0.183,0.231,-3.841,12.378,11.829,15_6_1.csv
2018-07-11T17:57:01.455158,-1.144,-0.045,0.251,-57.927,5.427,-75.305,15_6_1.csv
2018-07-11T17:57:01.496269,-1.344,-0.186,0.166,-58.415,-0.976,-80.122,15_6_1.csv
2018-07-11T17:57:01.558442,-1.344,-0.186,0.166,-23.232,-32.439,-41.463,15_6_1.csv
2018-07-11T17:57:01.610583,-0.913,-0.244,0.159,90.793,-25.976,-23.476,15_6_1.csv
2018-07-11T17:57:01.671752,-1.017,-0.11,0.044,94.939,-41.037,-24.39,15_6_1.csv
2018-07-11T17:57:01.731417,-1.044,-0.136,0.021,38.171,-63.72,-26.585,15_6_1.csv
2018-07-11T17:57:01.780052,-1.044,-0.136,0.021,31.585,-46.463,-44.634,15_6_1.csv
2018-07-11T17:57:01.839716,-0.931,-0.154,0.091,40.854,-15.488,-62.439,15_6_1.csv
2018-07-11T17:57:01.898374,-0.954,-0.134,0.186,58.72,-3.659,-84.085,15_6_1.csv
2018-07-11T17:57:01.966558,-0.954,-0.134,0.186,44.817,-37.134,-95.915,15_6_1.csv
2018-07-11T17:57:02.012682,-0.827,-0.303,0.424,-26.585,-38.171,-48.049,15_6_1.csv
2018-07-11T17:57:02.062316,-0.749,-0.505,0.588,-27.683,-9.817,-30.915,15_6_1.csv
2018-07-11T17:57:02.120475,-0.749,-0.505,0.588,3.72,8.537,-16.463,15_6_1.csv
2018-07-11T17:57:02.166600,-0.899,-0.526,0.599,36.037,17.256,7.378,15_6_1.csv
2018-07-11T17:57:02.258850,-1.076,-0.396,0.494,12.073,48.598,51.037,15_6_1.csv
2018-07-11T17:57:02.311493,-0.961,-0.113,0.312,2.439,66.707,33.476,15_6_1.csv
2018-07-11T17:57:02.373660,-0.938,-0.015,0.087,-32.012,8.171,-2.134,15_6_1.csv
2018-07-11T17:57:02.419785,-0.938,-0.015,0.087,-66.037,-44.085,-1.341,15_6_1.csv
2018-07-11T17:57:02.494488,-0.946,-0.267,0.184,12.805,-3.598,60.122,15_6_1.csv
2018-07-11T17:57:02.542617,-0.922,-0.184,0.299,57.073,40.61,70.0,15_6_1.csv
2018-07-11T17:57:02.600779,-0.922,-0.184,0.299,60.793,64.024,74.573,15_6_1.csv
2018-07-11T17:57:02.669965,-0.997,-0.063,0.282,-18.598,54.695,81.89,15_6_1.csv
2018-07-11T17:57:02.730133,-1.029,-0.149,0.243,-41.402,54.268,74.39,15_6_1.csv
2018-07-11T17:57:02.776259,-1.045,-0.153,0.218,-23.171,45.427,46.22,15_6_1.csv
2018-07-11T17:57:02.822885,-1.045,-0.153,0.218,-19.878,22.134,16.768,15_6_1.csv
2018-07-11T17:57:02.870012,-1.159,-0.076,0.136,-31.402,-1.89,-17.5,15_6_1.csv
2018-07-11T17:57:02.928169,-1.159,-0.076,0.136,-52.927,-13.476,-37.012,15_6_1.csv
2018-07-11T17:57:02.990337,-1.266,-0.325,0.25,13.841,3.415,16.341,15_6_1.csv
2018-07-11T17:57:03.046488,-1.06,-0.084,0.118,70.732,30.915,-11.098,15_6_1.csv
2018-07-11T17:57:03.090106,-1.06,-0.084,0.118,74.512,-13.354,-69.573,15_6_1.csv
2018-07-11T17:57:03.135228,-1.124,0.02,-0.077,-37.439,-155.488,-109.268,15_6_1.csv
2018-07-11T17:57:03.181853,-0.844,-0.21,0.147,-53.537,-112.561,-107.866,15_6_1.csv
2018-07-11T17:57:03.257557,-0.815,-0.195,0.171,32.988,38.963,-61.89,15_6_1.csv
2018-07-11T17:57:03.320226,-0.815,-0.195,0.171,53.78,60.854,-32.744,15_6_1.csv
2018-07-11T17:57:03.378885,-0.851,-0.117,0.188,2.805,60.549,18.963,15_6_1.csv
2018-07-11T17:57:03.423505,-0.868,-0.254,0.2,-14.329,52.5,42.5,15_6_1.csv
2018-07-11T17:57:03.464616,-0.868,-0.254,0.2,-5.366,54.634,66.768,15_6_1.csv
2018-07-11T17:57:03.513247,-1.097,-0.283,0.159,16.524,56.22,83.293,15_6_1.csv
2018-07-11T17:57:03.582935,-1.383,-0.04,0.114,28.293,25.793,66.707,15_6_1.csv
2018-07-11T17:57:03.643097,-1.383,-0.04,0.114,-4.817,-9.573,17.561,15_6_1.csv
2018-07-11T17:57:03.699750,-0.918,0.396,0.279,-235.122,53.963,-114.756,15_6_1.csv
2018-07-11T17:57:03.744371,-1.148,-0.256,-0.214,-248.354,35.366,-78.049,15_6_1.csv
2018-07-11T17:57:03.790998,-1.148,-0.256,-0.214,-90.488,-86.22,-2.5,15_6_1.csv
2018-07-11T17:57:03.916342,-0.844,-0.017,0.23,82.622,7.805,74.146,15_6_1.csv
2018-07-11T17:57:03.977513,-0.844,-0.017,0.23,-26.037,70.488,56.28,15_6_1.csv
2018-07-11T17:57:04.044196,-1.079,-0.309,0.011,-61.951,48.232,82.927,15_6_1.csv
2018-07-11T17:57:04.088816,-1.099,-0.399,0.043,1.89,25.732,73.476,15_6_1.csv
2018-07-11T17:57:04.134940,-1.099,-0.399,0.043,42.866,23.537,42.256,15_6_1.csv
2018-07-11T17:57:04.184574,-1.097,-0.134,0.178,21.951,20.793,-64.024,15_6_1.csv
2018-07-11T17:57:04.229696,-1.138,-0.055,0.136,-32.134,2.073,-102.744,15_6_1.csv
2018-07-11T17:57:04.299384,-1.332,-0.229,0.085,-52.012,-13.232,-116.159,15_6_1.csv
2018-07-11T17:57:04.356037,-1.332,-0.229,0.085,13.476,-41.524,-52.012,15_6_1.csv
2018-07-11T17:57:04.400658,-1.048,-0.234,0.147,54.268,-20.122,-15.305,15_6_1.csv
2018-07-11T17:57:04.462825,-1.121,-0.017,-0.004,100.427,-21.341,-66.159,15_6_1.csv
2018-07-11T17:57:04.511959,-1.121,-0.017,-0.004,62.744,-86.098,-77.5,15_6_1.csv
2018-07-11T17:57:04.556078,-0.912,-0.153,0.063,19.329,-97.256,-68.476,15_6_1.csv
2018-07-11T17:57:04.619254,-0.912,-0.153,0.063,-5.854,-61.646,-56.585,15_6_1.csv
2018-07-11T17:57:04.672901,-0.757,-0.358,0.153,-21.646,34.878,-26.707,15_6_1.csv
2018-07-11T17:57:04.728554,-0.827,-0.541,0.044,-67.256,61.951,-29.634,15_6_1.csv
2018-07-11T17:57:04.779192,-0.827,-0.541,0.044,-60.0,59.207,-36.707,15_6_1.csv
2018-07-11T17:57:04.825641,-0.81,-0.621,0.005,3.171,24.024,-53.354,15_6_1.csv
2018-07-11T17:57:04.873773,-0.818,-0.561,0.151,4.024,41.829,-52.073,15_6_1.csv
2018-07-11T17:57:04.941960,-0.818,-0.561,0.151,11.341,58.598,-42.439,15_6_1.csv
2018-07-11T17:57:05.003129,-1.108,-0.384,0.171,28.72,63.902,-13.537,15_6_1.csv
2018-07-11T17:57:05.061285,-1.227,-0.238,0.208,-0.427,8.963,5.061,15_6_1.csv
2018-07-11T17:57:05.111425,-0.934,-0.036,0.266,46.098,-14.329,99.817,15_6_1.csv
2018-07-11T17:57:05.425526,-1.008,-0.29,0.019,-56.402,2.927,100.305,15_6_1.csv
2018-07-11T17:57:05.479675,-1.008,-0.29,0.019,-42.195,-19.085,44.634,15_6_1.csv
2018-07-11T17:57:05.539841,-0.855,-0.189,0.23,-47.195,-3.354,-2.134,15_6_1.csv
2018-07-11T17:57:05.597000,-0.922,-0.179,0.227,-90.793,46.22,-47.561,15_6_1.csv
2018-07-11T17:57:05.656159,-0.922,-0.179,0.227,-62.744,39.024,-53.415,15_6_1.csv
2018-07-11T17:57:05.699281,-1.024,-0.073,0.273,-35.122,36.89,-44.817,15_6_1.csv
2018-07-11T17:57:05.767465,-1.18,-0.051,0.258,-29.146,22.561,-15.244,15_6_1.csv
2018-07-11T17:57:05.822619,-1.18,-0.051,0.258,-9.207,-2.744,-5.183,15_6_1.csv
2018-07-11T17:57:05.886797,-1.007,-0.057,0.27,23.049,24.878,-4.634,15_6_1.csv
2018-07-11T17:57:05.937935,-1.109,-0.05,0.1,13.659,-14.634,-29.207,15_6_1.csv
2018-07-11T17:57:05.980051,-1.109,-0.05,0.1,10.854,-29.085,-39.207,15_6_1.csv
2018-07-11T17:57:06.028185,-1.094,-0.003,0.199,41.098,-0.244,-62.622,15_6_1.csv
2018-07-11T17:57:06.075814,-1.14,-0.041,0.215,20.915,44.817,-63.293,15_6_1.csv
2018-07-11T17:57:06.148512,-1.114,-0.032,0.078,98.78,-21.28,-52.927,15_6_1.csv
2018-07-11T17:57:06.196648,-1.114,-0.032,0.078,104.695,-60.732,-54.207,15_6_1.csv
2018-07-11T17:57:06.255808,-0.695,-0.044,0.324,37.988,-49.878,-41.707,15_6_1.csv
2018-07-11T17:57:06.308957,-0.695,-0.044,0.324,-2.622,12.683,8.659,15_6_1.csv
2018-07-11T17:57:06.357086,-0.841,-0.177,0.326,11.646,86.098,86.28,15_6_1.csv
2018-07-11T17:57:06.406224,-1.117,-0.117,0.22,15.122,58.963,91.341,15_6_1.csv
2018-07-11T17:57:06.451345,-1.117,-0.117,0.22,6.341,25.305,81.585,15_6_1.csv
2018-07-11T17:57:06.493463,-1.086,-0.029,0.211,-14.573,11.89,59.939,15_6_1.csv
2018-07-11T17:57:06.593738,-1.257,-0.056,-0.079,-175.549,-81.951,-8.963,15_6_1.csv
2018-07-11T17:57:06.656909,-0.903,-0.349,0.22,-182.012,-85.793,4.878,15_6_1.csv
2018-07-11T17:57:06.706545,-0.903,-0.349,0.22,-112.927,31.829,31.463,15_6_1.csv
2018-07-11T17:57:06.747656,-0.942,-0.159,0.295,-3.354,129.573,38.72,15_6_1.csv
2018-07-11T17:57:06.795287,-1.199,0.213,0.067,-27.744,44.268,14.329,15_6_1.csv
2018-07-11T17:57:06.846424,-1.199,0.213,0.067,-125.549,-33.11,-33.598,15_6_1.csv
2018-07-11T17:57:06.908600,-1.106,-0.022,0.066,-150.244,-85.122,-67.744,15_6_1.csv
2018-07-11T17:57:06.978791,-0.878,-0.166,0.156,-111.707,-75.122,-50.0,15_6_1.csv
2018-07-11T17:57:07.028425,-0.878,-0.166,0.156,-94.268,-42.256,-11.098,15_6_1.csv
2018-07-11T17:57:07.073048,-0.886,-0.131,0.094,-59.939,-18.537,29.329,15_6_1.csv
2018-07-11T17:57:07.119172,-0.888,-0.151,0.168,-69.756,-0.61,45.183,15_6_1.csv
2018-07-11T17:57:07.170314,-0.888,-0.151,0.168,-64.085,29.756,64.512,15_6_1.csv
2018-07-11T17:57:07.216439,-0.972,-0.208,0.268,-43.537,61.585,88.537,15_6_1.csv
2018-07-11T17:57:07.306687,-1.181,-0.125,0.187,-23.841,72.622,108.537,15_6_1.csv
2018-07-11T17:57:07.359835,-1.44,-0.22,0.136,-62.012,18.171,33.963,15_6_1.csv
2018-07-11T17:57:07.400945,-1.44,-0.22,0.136,-57.439,-7.439,14.146,15_6_1.csv
2018-07-11T17:57:07.454592,-1.031,-0.309,0.206,-17.622,6.951,-10.854,15_6_1.csv
2018-07-11T17:57:07.495205,-1.031,-0.309,0.206,38.11,12.012,-56.585,15_6_1.csv
2018-07-11T17:57:07.552361,-1.214,-0.076,-0.017,56.463,-41.463,-93.841,15_6_1.csv
2018-07-11T17:57:07.605506,-1.076,-0.084,0.017,22.927,-142.439,-126.707,15_6_1.csv
2018-07-11T17:57:07.650631,-1.076,-0.084,0.017,4.695,-97.134,-129.512,15_6_1.csv
2018-07-11T17:57:07.713803,-0.824,-0.24,0.105,0.488,-30.488,-121.646,15_6_1.csv
2018-07-11T17:57:07.759429,-0.908,-0.279,0.096,62.988,51.341,-57.622,15_6_1.csv
2018-07-11T17:57:07.810575,-0.908,-0.279,0.096,50.61,58.049,-45.183,15_6_1.csv
2018-07-11T17:57:07.868234,-0.942,-0.384,0.152,28.049,59.695,-43.78,15_6_1.csv
2018-07-11T17:57:07.947951,-0.962,-0.405,0.185,59.268,60.915,-33.659,15_6_1.csv
2018-07-11T17:57:07.994580,-0.962,-0.405,0.185,70.61,28.659,-26.463,15_6_1.csv
2018-07-11T17:57:08.046723,-1.031,-0.226,0.3,38.963,39.939,-21.707,15_6_1.csv
2018-07-11T17:57:08.096860,-1.188,-0.146,0.241,-4.207,19.512,-15.061,15_6_1.csv
2018-07-11T17:57:08.152512,-1.188,-0.146,0.241,-18.415,-12.683,6.768,15_6_1.csv
2018-07-11T17:57:08.201145,-0.994,-0.108,0.249,-25.671,-17.561,48.902,15_6_1.csv
2018-07-11T17:57:08.260307,-0.891,-0.082,0.074,-40.488,-34.573,70.061,15_6_1.csv
2018-07-11T17:57:08.308439,-0.891,-0.082,0.074,-63.476,-72.317,83.049,15_6_1.csv
2018-07-11T17:57:08.354567,-0.994,-0.177,0.027,-87.378,-92.805,89.695,15_6_1.csv
2018-07-11T17:57:08.405708,-1.069,-0.288,0.134,-81.098,-4.573,146.463,15_6_1.csv
2018-07-11T17:57:08.462867,-1.069,-0.288,0.134,-58.476,46.585,151.098,15_6_1.csv
2018-07-11T17:57:08.510996,-1.149,-0.216,0.094,-29.695,72.988,129.207,15_6_1.csv
2018-07-11T17:57:08.560632,-1.149,-0.216,0.094,-26.28,58.049,93.72,15_6_1.csv
2018-07-11T17:57:08.608263,-1.116,-0.167,0.15,-60.244,14.634,1.951,15_6_1.csv
2018-07-11T17:57:08.656395,-1.034,-0.269,0.29,-45.488,25.427,-8.598,15_6_1.csv
2018-07-11T17:57:08.718564,-1.034,-0.269,0.29,-12.256,29.634,-6.524,15_6_1.csv
2018-07-11T17:57:08.762184,-1.133,-0.165,0.282,31.341,-8.78,-31.951,15_6_1.csv
2018-07-11T17:57:08.809813,-1.258,-0.003,0.248,27.805,-29.329,-49.817,15_6_1.csv
2018-07-11T17:57:08.855436,-1.258,-0.003,0.248,7.5,-51.159,-69.207,15_6_1.csv
2018-07-11T17:57:08.906574,-1.136,-0.046,0.297,-12.134,-68.78,-79.878,15_6_1.csv
2018-07-11T17:57:08.957210,-1.136,-0.046,0.297,-16.341,-51.768,-74.268,15_6_1.csv
2018-07-11T17:57:09.021884,-0.937,-0.093,0.239,27.256,-50.122,-64.878,15_6_1.csv
2018-07-11T17:57:09.074526,-1.049,-0.097,0.058,10.244,-79.329,-56.89,15_6_1.csv
2018-07-11T17:57:09.119147,-1.049,-0.097,0.058,-21.28,-95.427,-48.476,15_6_1.csv
2018-07-11T17:57:09.171791,-0.8,-0.277,0.145,-38.963,-12.256,-61.463,15_6_1.csv
2018-07-11T17:57:09.228447,-0.75,-0.417,0.254,-3.841,45.549,-62.683,15_6_1.csv
2018-07-11T17:57:09.318190,-0.875,-0.433,0.3,34.756,63.415,-32.927,15_6_1.csv
2018-07-11T17:57:09.386379,-0.879,-0.536,0.427,13.659,35.976,-28.841,15_6_1.csv
2018-07-11T17:57:09.433008,-0.879,-0.536,0.427,19.756,44.085,-27.378,15_6_1.csv
2018-07-11T17:57:09.478632,-0.959,-0.507,0.493,29.268,44.085,-24.268,15_6_1.csv
2018-07-11T17:57:09.526260,-0.949,-0.384,0.451,16.707,6.585,-25.244,15_6_1.csv
2018-07-11T17:57:09.573888,-0.949,-0.384,0.451,-8.232,-21.951,-20.671,15_6_1.csv
2018-07-11T17:57:09.620514,-0.898,-0.358,0.323,-17.561,-33.171,-5.0,15_6_1.csv
2018-07-11T17:57:09.675162,-0.898,-0.358,0.323,-36.89,-50.976,17.317,15_6_1.csv
2018-07-11T17:57:09.727803,-0.798,-0.336,0.249,-26.463,-31.89,67.561,15_6_1.csv
2018-07-11T17:57:09.778443,-0.814,-0.218,0.139,-29.024,-20.61,70.671,15_6_1.csv
2018-07-11T17:57:09.828578,-0.814,-0.218,0.139,-28.598,-22.5,74.878,15_6_1.csv
2018-07-11T17:57:09.874708,-0.986,-0.19,0.021,-29.634,-22.256,75.427,15_6_1.csv
2018-07-11T17:57:09.919829,-0.986,-0.19,0.021,-36.037,-19.817,72.195,15_6_1.csv
2018-07-11T17:57:09.974982,-1.012,-0.252,0.158,-1.89,73.232,93.171,15_6_1.csv
2018-07-11T17:57:10.043168,-1.056,-0.21,0.217,20.122,116.829,111.951,15_6_1.csv
2018-07-11T17:57:10.089794,-1.261,-0.135,0.192,12.866,93.232,126.098,15_6_1.csv
2018-07-11T17:57:10.136920,-1.261,-0.135,0.192,-10.976,63.354,103.049,15_6_1.csv
2018-07-11T17:57:10.184048,-1.196,-0.211,0.276,-23.293,56.707,65.366,15_6_1.csv
2018-07-11T17:57:10.231676,-1.196,-0.211,0.276,-21.402,51.951,18.476,15_6_1.csv
2018-07-11T17:57:10.283315,-1.104,-0.115,0.243,-29.085,31.402,-36.22,15_6_1.csv
2018-07-11T17:57:10.342977,-1.354,-0.146,0.044,-74.268,-32.988,-122.5,15_6_1.csv
2018-07-11T17:57:10.389101,-1.354,-0.146,0.044,-46.463,-69.817,-123.598,15_6_1.csv
2018-07-11T17:57:10.433220,-1.198,-0.091,0.063,-17.927,-92.378,-101.585,15_6_1.csv
2018-07-11T17:57:10.478843,-1.198,-0.091,0.063,-23.171,-67.561,-106.768,15_6_1.csv
2018-07-11T17:57:10.530483,-0.866,-0.128,0.142,13.354,-3.963,-79.146,15_6_1.csv
2018-07-11T17:57:10.583124,-0.963,-0.184,0.029,61.159,-12.744,-35.732,15_6_1.csv
2018-07-11T17:57:10.643287,-0.963,-0.184,0.029,75.183,-35.0,-4.512,15_6_1.csv
2018-07-11T17:57:10.778021,-0.89,-0.259,0.178,11.951,46.707,9.024,15_6_1.csv
2018-07-11T17:57:10.829159,-0.987,-0.263,0.15,16.524,36.341,15.061,15_6_1.csv
2018-07-11T17:57:10.878297,-0.987,-0.263,0.15,8.415,15.0,11.585,15_6_1.csv
2018-07-11T17:57:10.920410,-0.937,-0.27,0.202,-8.049,11.402,5.061,15_6_1.csv
2018-07-11T17:57:10.977570,-0.97,-0.297,0.204,-26.463,14.451,6.22,15_6_1.csv
2018-07-11T17:57:11.025699,-0.97,-0.297,0.204,-25.0,8.049,13.11,15_6_1.csv
2018-07-11T17:57:11.071829,-1.098,-0.243,0.174,-29.451,2.317,18.598,15_6_1.csv
2018-07-11T17:57:11.119959,-1.098,-0.243,0.174,-39.939,-3.659,22.073,15_6_1.csv
2018-07-11T17:57:11.166088,-1.14,-0.256,0.173,-47.866,-21.402,27.805,15_6_1.csv
2018-07-11T17:57:11.245806,-1.048,-0.188,0.205,-28.232,4.573,33.11,15_6_1.csv
2018-07-11T17:57:11.303463,-0.978,-0.125,0.073,-55.671,-37.683,-2.134,15_6_1.csv
2018-07-11T17:57:11.354102,-0.978,-0.125,0.073,-70.244,-54.817,-33.476,15_6_1.csv
2018-07-11T17:57:11.398726,-1.056,-0.174,0.097,-59.573,-60.61,-48.415,15_6_1.csv
2018-07-11T17:57:11.451369,-1.056,-0.174,0.097,-39.817,-43.049,-32.927,15_6_1.csv
2018-07-11T17:57:11.492984,-0.895,-0.125,0.27,-29.268,-0.183,1.037,15_6_1.csv
2018-07-11T17:57:11.542117,-0.934,-0.056,0.201,-53.415,6.89,48.598,15_6_1.csv
2018-07-11T17:57:11.595264,-0.934,-0.056,0.201,-79.085,-26.89,56.707,15_6_1.csv
2018-07-11T17:57:11.650916,-1.03,-0.143,0.245,-87.927,-34.695,65.488,15_6_1.csv
2018-07-11T17:57:11.728124,-1.082,-0.106,0.274,-75.122,19.817,71.646,15_6_1.csv
2018-07-11T17:57:11.782772,-1.182,-0.078,0.248,-110.183,-10.488,25.732,15_6_1.csv
2018-07-11T17:57:11.861484,-1.261,-0.02,0.443,-110.488,-23.415,26.768,15_6_1.csv
2018-07-11T17:57:11.908110,-1.261,-0.02,0.443,-99.573,-18.11,54.451,15_6_1.csv
2018-07-11T17:57:11.963259,-1.113,-0.13,0.317,-149.024,0.549,57.073,15_6_1.csv
2018-07-11T17:57:12.010386,-1.113,-0.13,0.317,-137.561,-29.939,56.159,15_6_1.csv
2018-07-11T17:57:12.140302,-0.742,-0.152,0.206,-79.085,-37.256,-114.512,15_6_1.csv
2018-07-11T17:57:12.186427,-0.801,-0.342,0.161,-52.012,19.024,-108.11,15_6_1.csv
2018-07-11T17:57:12.229547,-0.801,-0.342,0.161,22.805,43.293,-89.329,15_6_1.csv
2018-07-11T17:57:12.292719,-0.891,-0.254,0.066,91.22,34.451,-74.329,15_6_1.csv
2018-07-11T17:57:12.338846,-0.891,-0.254,0.066,123.902,32.317,-70.244,15_6_1.csv
2018-07-11T17:57:12.385973,-0.806,-0.132,0.133,94.146,75.671,-72.317,15_6_1.csv
2018-07-11T17:57:12.434108,-0.823,-0.192,0.427,96.341,174.634,-47.622,15_6_1.csv
2018-07-11T17:57:12.479229,-0.823,-0.192,0.427,57.134,232.195,2.012,15_6_1.csv
2018-07-11T17:57:12.525358,-1.212,-0.187,0.354,23.78,182.378,28.415,15_6_1.csv
2018-07-11T17:57:12.579504,-1.212,-0.187,0.354,60.061,110.305,34.939,15_6_1.csv
2018-07-11T17:57:12.639670,-1.685,0.091,0.245,20.122,-51.463,33.659,15_6_1.csv
2018-07-11T17:57:12.696824,-1.261,0.143,0.373,-54.512,-73.72,12.012,15_6_1.csv
2018-07-11T17:57:12.745961,-0.95,0.025,0.006,-136.342,-30.244,-6.037,15_6_1.csv
2018-07-11T17:57:12.799104,-0.95,0.025,0.006,-184.39,-106.585,-8.171,15_6_1.csv
2018-07-11T17:57:12.842226,-0.905,-0.28,-0.125,-192.744,-168.049,-7.5,15_6_1.csv
2018-07-11T17:57:12.908406,-0.831,-0.359,0.162,-55.244,-88.232,77.744,15_6_1.csv
2018-07-11T17:57:12.962391,-0.831,-0.359,0.162,-9.512,-0.061,108.415,15_6_1.csv
2018-07-11T17:57:13.015036,-0.872,-0.165,0.099,-7.927,76.402,97.5,15_6_1.csv
2018-07-11T17:57:13.062666,-1.05,-0.185,-0.021,-32.195,51.524,54.085,15_6_1.csv
2018-07-11T17:57:13.108791,-1.05,-0.185,-0.021,-32.744,20.549,37.927,15_6_1.csv
2018-07-11T17:57:13.156927,-0.973,-0.233,0.22,-22.927,33.537,25.488,15_6_1.csv
2018-07-11T17:57:13.209069,-0.973,-0.233,0.22,-8.171,69.085,12.073,15_6_1.csv
2018-07-11T17:57:13.276255,-1.091,0.021,0.282,-34.634,94.634,-20.488,15_6_1.csv
2018-07-11T17:57:13.322380,-1.444,-0.149,0.117,-69.512,49.695,-21.768,15_6_1.csv
2018-07-11T17:57:13.447221,-1.151,-0.191,0.196,87.317,-25.793,-16.524,15_6_1.csv
2018-07-11T17:57:13.502871,-1.084,-0.025,0.103,56.524,-41.28,-56.524,15_6_1.csv
2018-07-11T17:57:13.545987,-1.084,-0.025,0.103,12.378,-83.11,-63.841,15_6_1.csv
2018-07-11T17:57:13.604646,-0.977,-0.224,0.037,26.646,-82.439,-25.732,15_6_1.csv
2018-07-11T17:57:13.650269,-0.856,-0.266,0.027,44.329,-44.268,-18.963,15_6_1.csv
2018-07-11T17:57:13.697396,-0.856,-0.266,0.027,64.268,-17.073,-22.866,15_6_1.csv
2018-07-11T17:57:13.745526,-0.942,-0.173,-0.03,81.037,-0.854,-32.439,15_6_1.csv
2018-07-11T17:57:13.810200,-0.942,-0.131,-0.019,43.232,3.78,-68.11,15_6_1.csv
2018-07-11T17:57:13.857830,-0.942,-0.131,-0.019,32.744,20.854,-73.598,15_6_1.csv
2018-07-11T17:57:13.911976,-0.948,-0.216,0.026,77.378,62.012,-34.634,15_6_1.csv
2018-07-11T17:57:13.969136,-1.194,-0.162,0.129,138.476,91.829,-3.049,15_6_1.csv
2018-07-11T17:57:14.025290,-1.194,-0.162,0.129,188.11,117.012,27.988,15_6_1.csv
2018-07-11T17:57:14.073422,-1.339,0.302,0.394,59.756,115.0,24.085,15_6_1.csv
2018-07-11T17:57:14.118544,-1.126,0.362,0.377,-93.476,117.439,-17.134,15_6_1.csv
2018-07-11T17:57:14.166677,-1.126,0.362,0.377,-178.659,62.622,-34.39,15_6_1.csv
2018-07-11T17:57:14.221827,-1.127,-0.079,-0.271,-166.463,-88.963,-40.427,15_6_1.csv
2018-07-11T17:57:14.278986,-0.965,-0.283,-0.027,-142.073,-293.232,-33.78,15_6_1.csv
2018-07-11T17:57:14.322103,-0.965,-0.283,-0.027,-144.329,-230.305,21.098,15_6_1.csv
2018-07-11T17:57:14.375250,-0.713,-0.247,0.177,-141.89,-73.78,52.134,15_6_1.csv
2018-07-11T17:57:14.421375,-0.713,-0.247,0.177,-118.598,45.732,54.634,15_6_1.csv
2018-07-11T17:57:14.469509,-0.94,-0.249,-0.052,-74.695,74.573,56.524,15_6_1.csv
2018-07-11T17:57:14.516636,-1.0,-0.153,0.013,-33.171,16.037,66.098,15_6_1.csv
2018-07-11T17:57:14.572792,-1.0,-0.153,0.013,-64.817,3.598,51.037,15_6_1.csv
2018-07-11T17:57:14.619919,-1.041,-0.146,0.149,-115.305,28.72,31.22,15_6_1.csv
2018-07-11T17:57:14.670059,-1.041,-0.146,0.149,-146.829,61.768,15.061,15_6_1.csv
2018-07-11T17:57:14.717186,-1.374,-0.329,0.068,-88.232,41.585,55.549,15_6_1.csv
2018-07-11T17:57:14.837011,-1.132,-0.347,-0.097,55.61,2.195,21.037,15_6_1.csv
2018-07-11T17:57:14.900182,-1.132,-0.347,-0.097,84.268,-54.207,-3.415,15_6_1.csv
2018-07-11T17:57:14.950818,-1.249,-0.36,-0.186,141.524,-76.159,-13.11,15_6_1.csv
2018-07-11T17:57:14.995940,-1.148,-0.1,-0.136,253.415,-54.512,-70.732,15_6_1.csv
2018-07-11T17:57:15.048080,-1.148,-0.1,-0.136,223.171,-44.146,-110.61,15_6_1.csv
2018-07-11T17:57:15.088690,-1.008,0.021,0.005,154.146,-30.244,-145.61,15_6_1.csv
2018-07-11T17:57:15.153367,-1.008,0.021,0.005,76.098,-10.305,-160.671,15_6_1.csv
2018-07-11T17:57:15.204507,-0.814,-0.1,0.095,-26.402,43.841,-111.281,15_6_1.csv
2018-07-11T17:57:15.262667,-0.779,-0.228,-0.002,-28.963,34.512,-67.317,15_6_1.csv
2018-07-11T17:57:15.307289,-0.779,-0.228,-0.002,2.378,18.171,-23.171,15_6_1.csv
2018-07-11T17:57:15.361731,-0.9,-0.3,0.045,127.866,68.78,69.512,15_6_1.csv
2018-07-11T17:57:15.416883,-1.229,-0.164,0.125,192.866,126.402,100.671,15_6_1.csv
2018-07-11T17:57:15.472032,-1.229,-0.164,0.125,216.585,153.476,124.573,15_6_1.csv
2018-07-11T17:57:15.550247,-1.239,0.102,0.202,93.902,116.037,101.159,15_6_1.csv
2018-07-11T17:57:15.612417,-1.183,0.2,0.176,-106.829,-60.549,-6.951,15_6_1.csv
2018-07-11T17:57:15.654533,-1.252,-0.062,-0.075,-136.098,-117.744,-40.915,15_6_1.csv
2018-07-11T17:57:15.701662,-1.252,-0.062,-0.075,-195.0,-153.171,-42.744,15_6_1.csv
2018-07-11T17:57:15.745784,-0.899,-0.14,-0.076,-247.561,-151.463,-57.317,15_6_1.csv
2018-07-11T17:57:15.794916,-0.899,-0.14,-0.076,-260.976,-97.744,-96.951,15_6_1.csv
2018-07-11T17:57:15.839041,-0.742,-0.275,0.0,-126.402,-8.598,-64.512,15_6_1.csv
2018-07-11T17:57:15.885165,-0.813,-0.225,0.12,-37.744,3.232,-3.902,15_6_1.csv
2018-07-11T17:57:15.936308,-0.813,-0.225,0.12,5.915,9.146,42.866,15_6_1.csv
2018-07-11T17:57:15.980427,-0.927,-0.077,0.218,4.146,18.476,72.378,15_6_1.csv
2018-07-11T17:57:16.030567,-0.927,-0.077,0.218,-19.634,33.902,88.841,15_6_1.csv
2018-07-11T17:57:16.135553,-1.404,-0.282,0.105,-104.573,27.012,117.195,15_6_1.csv
2018-07-11T17:57:16.181678,-1.404,-0.282,0.105,-91.768,7.073,109.573,15_6_1.csv
2018-07-11T17:57:16.258895,-0.963,-0.291,0.057,18.232,0.305,-2.683,15_6_1.csv
2018-07-11T17:57:16.313044,-1.247,-0.175,-0.14,21.951,-81.341,-32.012,15_6_1.csv
2018-07-11T17:57:16.361175,-0.969,-0.062,0.019,-12.622,-129.268,-113.415,15_6_1.csv
2018-07-11T17:57:16.410811,-0.969,-0.062,0.019,-71.463,-69.085,-158.293,15_6_1.csv
2018-07-11T17:57:16.463455,-0.774,-0.124,0.127,-140.915,0.427,-160.793,15_6_1.csv
2018-07-11T17:57:16.523623,-0.693,-0.468,-0.043,-261.524,125.427,-144.634,15_6_1.csv
2018-07-11T17:57:16.583785,-0.693,-0.468,-0.043,-222.378,127.256,-117.622,15_6_1.csv
2018-07-11T17:57:16.636933,-0.75,-0.767,-0.23,-120.366,75.549,-75.854,15_6_1.csv
2018-07-11T17:57:16.691079,-0.814,-0.628,-0.126,27.988,-22.256,9.817,15_6_1.csv
2018-07-11T17:57:16.747232,-0.814,-0.628,-0.126,44.024,-15.0,42.622,15_6_1.csv
2018-07-11T17:57:16.793357,-1.09,-0.63,-0.082,86.098,7.683,66.707,15_6_1.csv
2018-07-11T17:57:16.855023,-1.016,-0.452,-0.009,270.244,-19.634,145.366,15_6_1.csv
2018-07-11T17:57:16.919196,-1.016,-0.452,-0.009,338.902,-25.732,173.415,15_6_1.csv
2018-07-11T17:57:16.969833,-0.996,0.217,0.084,103.659,-53.354,71.707,15_6_1.csv
2018-07-11T17:57:17.011445,-1.023,0.13,-0.008,-77.622,-99.207,0.549,15_6_1.csv
2018-07-11T17:57:17.063585,-1.023,0.13,-0.008,-216.22,-95.427,-40.854,15_6_1.csv
2018-07-11T17:57:17.113220,-0.783,-0.333,-0.102,-266.89,-45.0,-41.646,15_6_1.csv
2018-07-11T17:57:17.180401,-0.813,-0.463,-0.066,-76.585,23.72,46.28,15_6_1.csv
2018-07-11T17:57:17.238057,-0.813,-0.463,-0.066,45.61,50.427,94.695,15_6_1.csv
2018-07-11T17:57:17.298722,-0.983,-0.347,0.145,263.171,138.232,187.439,15_6_1.csv
2018-07-11T17:57:17.338831,-1.36,0.283,0.439,268.11,131.22,170.183,15_6_1.csv
2018-07-11T17:57:17.395989,-1.36,0.283,0.439,169.512,113.963,102.439,15_6_1.csv
2018-07-11T17:57:17.495261,-1.26,-0.07,0.113,57.012,-178.293,2.073,15_6_1.csv
2018-07-11T17:57:17.564450,-1.26,-0.07,0.113,76.707,-191.098,-23.232,15_6_1.csv
2018-07-11T17:57:17.615590,-1.343,-0.034,0.068,128.781,-280.549,-22.5,15_6_1.csv
2018-07-11T17:57:17.666229,-1.158,0.026,0.231,80.732,-233.963,-7.683,15_6_1.csv
2018-07-11T17:57:17.720876,-1.158,0.026,0.231,29.695,-187.561,-39.939,15_6_1.csv
2018-07-11T17:57:17.766499,-0.746,0.023,0.333,66.707,-139.573,-46.951,15_6_1.csv
2018-07-11T17:57:17.811120,-0.482,0.211,0.438,37.012,-124.695,-67.683,15_6_1.csv
2018-07-11T17:57:17.872284,-0.482,0.211,0.438,16.402,-112.927,-77.073,15_6_1.csv
2018-07-11T17:57:17.926431,-0.3,0.27,0.597,13.171,-80.549,-67.683,15_6_1.csv
2018-07-11T17:57:17.979574,-0.513,0.217,0.836,9.573,18.232,-21.829,15_6_1.csv
2018-07-11T17:57:18.031214,-0.513,0.217,0.836,11.707,51.463,-11.89,15_6_1.csv
2018-07-11T17:57:18.076836,-0.868,0.157,0.977,2.134,55.549,8.354,15_6_1.csv
2018-07-11T17:57:18.124967,-0.868,0.157,0.977,-32.866,55.549,38.78,15_6_1.csv
2018-07-11T17:57:18.191646,-0.899,0.104,0.817,-15.122,-15.061,51.524,15_6_1.csv
2018-07-11T17:57:18.246795,-0.642,0.107,0.761,-37.195,-43.841,70.549,15_6_1.csv
2018-07-11T17:57:18.311470,-0.583,0.036,0.73,-92.317,12.317,89.268,15_6_1.csv
2018-07-11T17:57:18.357095,-0.583,0.036,0.73,-106.524,-6.829,87.561,15_6_1.csv
2018-07-11T17:57:18.406228,-0.436,0.088,0.747,-113.049,13.476,79.634,15_6_1.csv
2018-07-11T17:57:18.459875,-0.541,0.026,0.846,-168.72,28.415,62.378,15_6_1.csv
2018-07-11T17:57:18.539088,-0.666,-0.383,0.865,-216.89,-19.085,66.768,15_6_1.csv
2018-07-11T17:57:18.597747,-0.666,-0.383,0.865,-206.281,-72.5,59.085,15_6_1.csv
2018-07-11T17:57:18.658912,-0.685,-0.896,0.886,-162.317,-123.11,30.549,15_6_1.csv
2018-07-11T17:57:18.698017,-0.541,-0.967,0.828,-133.537,-103.171,27.927,15_6_1.csv
2018-07-11T17:57:18.747166,-0.541,-0.967,0.828,-125.366,-110.549,-30.976,15_6_1.csv
2018-07-11T17:57:18.967912,-0.014,-0.569,0.703,-73.598,5.061,-59.756,15_6_1.csv
2018-07-11T17:57:19.027076,-0.033,-0.532,0.602,13.354,107.683,-22.134,15_6_1.csv
2018-07-11T17:57:19.085233,-0.033,-0.532,0.602,28.11,129.024,14.146,15_6_1.csv
2018-07-11T17:57:19.152420,-0.285,-0.482,0.644,52.805,123.171,110.183,15_6_1.csv
2018-07-11T17:57:19.198544,-0.737,-0.519,0.836,9.573,98.232,101.524,15_6_1.csv
2018-07-11T17:57:19.268738,-0.948,-1.008,0.756,-221.463,42.195,-17.866,15_6_1.csv
2018-07-11T17:57:19.312358,-0.948,-1.008,0.756,-216.159,10.549,-73.72,15_6_1.csv
2018-07-11T17:57:19.376033,-0.67,-0.773,0.256,67.012,-102.012,57.378,15_6_1.csv
2018-07-11T17:57:19.421155,-0.642,-0.362,0.236,10.366,-95.122,57.012,15_6_1.csv
2018-07-11T17:57:19.480817,-0.642,-0.362,0.236,-19.024,-91.585,87.683,15_6_1.csv
2018-07-11T17:57:19.526941,-0.79,-0.559,0.252,-19.573,-94.573,132.988,15_6_1.csv
2018-07-11T17:57:19.579084,-0.518,-0.491,0.438,-110.488,-113.781,71.951,15_6_1.csv
2018-07-11T17:57:19.643254,-0.518,-0.491,0.438,-77.805,-90.671,80.183,15_6_1.csv
2018-07-11T17:57:19.703918,-0.451,-0.387,0.634,-32.927,-45.793,128.963,15_6_1.csv
2018-07-11T17:57:19.754554,-0.665,-0.33,0.644,14.146,-14.939,137.134,15_6_1.csv
2018-07-11T17:57:19.812210,-0.665,-0.33,0.644,12.073,-3.598,112.439,15_6_1.csv
2018-07-11T17:57:19.859839,-0.869,-0.344,0.604,-101.22,-33.354,102.866,15_6_1.csv
2018-07-11T17:57:19.907968,-1.147,-0.697,0.639,-83.963,7.073,164.39,15_6_1.csv
2018-07-11T17:57:19.958605,-1.147,-0.697,0.639,-27.134,67.195,170.183,15_6_1.csv
2018-07-11T17:57:20.012249,-1.138,-0.687,0.642,-25.183,49.878,99.939,15_6_1.csv
2018-07-11T17:57:20.064892,-1.045,-0.307,0.682,84.39,17.256,26.585,15_6_1.csv
2018-07-11T17:57:20.106504,-1.045,-0.307,0.682,5.732,-31.463,7.5,15_6_1.csv
2018-07-11T17:57:20.221918,-0.636,-0.189,0.569,18.049,-26.28,-30.61,15_6_1.csv
2018-07-11T17:57:20.274061,-0.636,-0.189,0.569,10.732,-28.232,-21.89,15_6_1.csv
2018-07-11T17:57:20.332221,-0.742,-0.111,0.498,-13.537,-27.561,-6.341,15_6_1.csv
2018-07-11T17:57:20.396398,-1.0,-0.137,0.34,-124.207,23.415,36.951,15_6_1.csv
2018-07-11T17:57:20.448539,-1.0,-0.137,0.34,-152.866,67.805,41.768,15_6_1.csv
2018-07-11T17:57:20.497679,-1.25,-0.192,0.175,-139.573,91.341,40.488,15_6_1.csv
2018-07-11T17:57:20.543802,-1.049,-0.105,0.225,-22.073,103.354,88.72,15_6_1.csv
2018-07-11T17:57:20.601963,-1.049,-0.105,0.225,-19.39,90.061,87.378,15_6_1.csv
2018-07-11T17:57:20.664131,-1.02,0.127,0.079,-107.439,-8.902,-6.22,15_6_1.csv
2018-07-11T17:57:20.715900,-1.014,0.016,-0.018,-169.39,-89.268,-22.317,15_6_1.csv
2018-07-11T17:57:20.762024,-1.014,0.016,-0.018,-230.0,-108.659,-25.0,15_6_1.csv
2018-07-11T17:57:20.812163,-0.827,-0.229,0.155,-237.317,-57.805,-0.732,15_6_1.csv
2018-07-11T17:57:20.860293,-0.827,-0.229,0.155,-180.976,-12.622,34.573,15_6_1.csv
2018-07-11T17:57:20.919459,-0.972,-0.288,0.174,-72.012,-1.28,93.963,15_6_1.csv
2018-07-11T17:57:21.005693,-1.064,-0.28,0.256,-11.89,54.756,122.988,15_6_1.csv
2018-07-11T17:57:21.056835,-1.408,-0.242,0.083,-10.549,76.524,117.622,15_6_1.csv
2018-07-11T17:57:21.103961,-1.274,-0.309,0.017,-13.72,17.683,40.732,15_6_1.csv
2018-07-11T17:57:21.151093,-1.274,-0.309,0.017,-28.049,4.878,-34.329,15_6_1.csv
2018-07-11T17:57:21.197217,-0.983,-0.364,-0.017,-12.134,21.159,-113.171,15_6_1.csv
2018-07-11T17:57:21.245851,-0.983,-0.364,-0.017,51.159,-8.415,-136.585,15_6_1.csv
2018-07-11T17:57:21.306013,-1.198,-0.37,-0.121,219.817,-69.451,-49.512,15_6_1.csv
2018-07-11T17:57:21.372693,-1.055,-0.031,0.058,224.329,-28.171,-60.183,15_6_1.csv
2018-07-11T17:57:21.430852,-0.946,-0.083,0.104,40.976,-33.354,-124.085,15_6_1.csv
2018-07-11T17:57:21.480987,-0.946,-0.083,0.104,34.634,-51.402,-117.012,15_6_1.csv
2018-07-11T17:57:21.581263,-0.854,-0.103,0.124,12.073,-55.915,-75.122,15_6_1.csv
2018-07-11T17:57:21.621376,-0.916,-0.112,0.116,-8.232,-42.195,-47.561,15_6_1.csv
2018-07-11T17:57:21.667500,-1.077,-0.078,0.099,3.354,6.037,31.768,15_6_1.csv
2018-07-11T17:57:21.731678,-1.077,-0.078,0.099,6.037,43.963,76.341,15_6_1.csv
2018-07-11T17:57:21.778805,-1.013,-0.15,0.112,-26.037,41.951,115.061,15_6_1.csv
2018-07-11T17:57:21.829949,-1.03,-0.149,0.064,45.488,143.659,141.22,15_6_1.csv
2018-07-11T17:57:21.871059,-1.03,-0.149,0.064,74.634,122.988,117.988,15_6_1.csv
2018-07-11T17:57:21.924209,-1.2,0.05,-0.063,29.756,32.134,86.28,15_6_1.csv
2018-07-11T17:57:21.996907,-0.916,-0.069,0.027,-170.976,-6.768,-2.256,15_6_1.csv
2018-07-11T17:57:22.042530,-0.916,-0.069,0.027,-236.342,27.622,-31.341,15_6_1.csv
2018-07-11T17:57:22.090158,-1.009,-0.382,0.055,-194.39,68.171,-26.646,15_6_1.csv
2018-07-11T17:57:22.136283,-1.009,-0.382,0.055,-78.537,93.171,14.207,15_6_1.csv
2018-07-11T17:57:22.211987,-1.276,-0.21,0.257,79.573,105.61,68.232,15_6_1.csv
2018-07-11T17:57:22.274155,-1.427,0.306,0.305,-81.524,81.28,-36.585,15_6_1.csv
2018-07-11T17:57:22.323789,-1.476,-0.04,-0.031,-166.037,-23.598,-74.817,15_6_1.csv
2018-07-11T17:57:22.370416,-1.476,-0.04,-0.031,-178.537,-136.159,-70.183,15_6_1.csv
2018-07-11T17:57:22.418546,-1.093,-0.278,-0.076,-83.171,-165.488,-68.354,15_6_1.csv
2018-07-11T17:57:22.463673,-1.093,-0.278,-0.076,20.671,-180.549,-97.256,15_6_1.csv
2018-07-11T17:57:22.521830,-1.117,-0.063,0.002,-10.427,-168.11,-98.72,15_6_1.csv
2018-07-11T17:57:22.591022,-0.827,-0.119,0.156,-14.695,-17.317,-112.988,15_6_1.csv
2018-07-11T17:57:22.668734,-0.807,-0.14,0.082,24.451,-1.707,-93.963,15_6_1.csv
2018-07-11T17:57:22.716363,-0.831,0.022,0.123,47.134,-38.72,-44.695,15_6_1.csv
2018-07-11T17:57:22.794576,-0.91,0.087,0.124,-29.634,-5.671,-8.476,15_6_1.csv
2018-07-11T17:57:22.838694,-0.91,0.087,0.124,-78.354,27.378,37.439,15_6_1.csv
2018-07-11T17:57:22.885826,-1.174,-0.232,0.113,-116.89,39.573,104.634,15_6_1.csv
2018-07-11T17:57:23.091766,-1.193,0.358,-0.152,-183.598,-61.463,-25.671,15_6_1.csv
2018-07-11T17:57:23.150925,-0.845,-0.034,-0.176,-396.646,-67.927,-105.549,15_6_1.csv
2018-07-11T17:57:23.208772,-0.968,-0.641,-0.203,-424.939,19.085,-52.866,15_6_1.csv
2018-07-11T17:57:23.261415,-0.968,-0.641,-0.203,-223.049,13.72,49.939,15_6_1.csv
2018-07-11T17:57:23.332108,-1.019,-0.69,0.236,201.89,111.281,235.488,15_6_1.csv
2018-07-11T17:57:23.392275,-1.717,0.167,0.193,270.976,216.524,242.195,15_6_1.csv
2018-07-11T17:57:23.434388,-1.717,0.167,0.193,117.744,160.793,150.122,15_6_1.csv
2018-07-11T17:57:23.479514,-1.357,0.138,-0.051,-158.598,-136.463,-142.378,15_6_1.csv
2018-07-11T17:57:23.527644,-1.356,-0.158,-0.225,-88.354,-163.72,-255.366,15_6_1.csv
2018-07-11T17:57:23.597838,-1.484,-0.098,-0.033,61.098,-298.72,-246.098,15_6_1.csv
2018-07-11T17:57:23.654992,-1.484,-0.098,-0.033,92.378,-220.366,-184.451,15_6_1.csv
2018-07-11T17:57:23.703129,-0.82,0.137,0.283,60.427,-87.805,-186.89,15_6_1.csv
2018-07-11T17:57:23.744239,-0.82,0.137,0.283,12.439,-9.817,-182.5,15_6_1.csv
2018-07-11T17:57:23.797386,-0.63,0.118,0.191,-35.61,-15.915,-85.671,15_6_1.csv
2018-07-11T17:57:23.842508,-0.535,0.097,0.065,-77.134,-66.89,-37.744,15_6_1.csv
2018-07-11T17:57:23.907685,-0.535,0.097,0.065,-104.878,-101.951,10.244,15_6_1.csv
2018-07-11T17:57:23.963837,-0.734,0.178,0.128,-245.305,-18.841,133.049,15_6_1.csv
2018-07-11T17:57:24.011967,-1.868,-0.545,-0.313,-456.585,92.927,189.146,15_6_1.csv
2018-07-11T17:57:24.059094,-1.868,-0.545,-0.313,-368.049,22.805,299.39,15_6_1.csv
2018-07-11T17:57:24.103714,-1.443,-0.825,-0.385,-68.293,-18.232,359.451,15_6_1.csv
2018-07-11T17:57:24.151343,-1.443,-0.825,-0.385,-28.537,-28.11,226.463,15_6_1.csv
2018-07-11T17:57:24.204486,-1.033,-0.185,-0.231,-210.305,-29.634,-155.366,15_6_1.csv
2018-07-11T17:57:24.246600,-0.901,-0.36,-0.378,-301.585,42.256,-177.683,15_6_1.csv
2018-07-11T17:57:24.375949,-0.741,-0.266,-0.309,-131.768,-89.329,5.366,15_6_1.csv
2018-07-11T17:57:24.432602,-0.865,-0.381,-0.17,-109.695,-128.415,73.415,15_6_1.csv
2018-07-11T17:57:24.495271,-1.211,-0.786,-0.059,148.598,-58.537,284.451,15_6_1.csv
2018-07-11T17:57:24.545409,-1.211,-0.786,-0.059,412.744,4.756,372.561,15_6_1.csv
2018-07-11T17:57:24.591532,-1.547,0.535,0.327,411.281,11.768,302.744,15_6_1.csv
2018-07-11T17:57:24.641168,-1.053,-0.083,0.202,-282.683,-18.902,-205.0,15_6_1.csv
2018-07-11T17:57:24.699826,-1.053,-0.083,0.202,-241.22,-18.537,-308.049,15_6_1.csv
2018-07-11T17:57:24.744447,-1.284,-0.532,-0.223,-52.744,-94.939,-247.988,15_6_1.csv
2018-07-11T17:57:24.808620,-1.0,0.041,0.084,188.598,-137.561,-133.72,15_6_1.csv
2018-07-11T17:57:24.853741,-1.0,0.041,0.084,105.305,-40.854,-141.159,15_6_1.csv
2018-07-11T17:57:24.900369,-0.923,-0.052,0.25,40.061,-7.317,-140.732,15_6_1.csv
2018-07-11T17:57:24.947497,-0.923,-0.052,0.25,61.402,-35.244,-117.134,15_6_1.csv
2018-07-11T17:57:24.994630,-0.897,-0.024,0.242,85.427,-62.134,-92.622,15_6_1.csv
2018-07-11T17:57:25.043762,-0.817,0.087,0.268,13.841,-24.695,-84.451,15_6_1.csv
2018-07-11T17:57:25.101924,-0.817,0.087,0.268,-21.22,8.659,-55.061,15_6_1.csv
2018-07-11T17:57:25.151056,-0.927,-0.006,0.255,-45.366,31.951,3.963,15_6_1.csv
2018-07-11T17:57:25.197185,-0.927,-0.006,0.255,-43.598,65.305,86.341,15_6_1.csv
2018-07-11T17:57:25.267878,-0.977,-0.101,0.363,0.366,137.5,219.39,15_6_1.csv
2018-07-11T17:57:25.311499,-1.382,0.065,0.096,-32.195,134.451,196.281,15_6_1.csv
2018-07-11T17:57:25.375173,-1.27,-0.017,-0.024,-171.463,-23.78,96.341,15_6_1.csv
2018-07-11T17:57:25.424306,-1.27,-0.017,-0.024,-234.146,-28.232,20.244,15_6_1.csv
2018-07-11T17:57:25.479455,-0.946,-0.174,0.033,-293.171,-1.89,-29.146,15_6_1.csv
2018-07-11T17:57:25.527083,-1.038,-0.365,0.032,-224.39,12.561,18.841,15_6_1.csv
2018-07-11T17:57:25.579224,-1.038,-0.365,0.032,-143.902,-18.354,78.841,15_6_1.csv
2018-07-11T17:57:25.625348,-1.111,-0.435,0.247,-58.78,-7.012,134.146,15_6_1.csv
2018-07-11T17:57:25.702055,-1.505,-0.244,0.211,46.037,71.89,167.561,15_6_1.csv
2018-07-11T17:57:25.764724,-1.505,-0.244,0.211,18.902,41.951,92.012,15_6_1.csv
2018-07-11T17:57:25.826894,-1.081,-0.175,0.132,-52.073,-8.598,-138.476,15_6_1.csv
2018-07-11T17:57:25.880038,-1.209,-0.326,-0.048,2.683,-69.024,-186.463,15_6_1.csv
2018-07-11T17:57:25.933185,-1.146,-0.148,0.078,146.768,-103.11,-132.622,15_6_1.csv
2018-07-11T17:57:25.979309,-1.146,-0.148,0.078,148.049,-41.402,-151.342,15_6_1.csv
2018-07-11T17:57:26.025439,-0.939,-0.02,0.141,121.89,-1.829,-174.817,15_6_1.csv
2018-07-11T17:57:26.072566,-0.939,-0.02,0.141,90.305,3.902,-162.561,15_6_1.csv
2018-07-11T17:57:26.120701,-0.941,-0.07,0.112,79.634,-0.061,-129.329,15_6_1.csv
2018-07-11T17:57:26.166825,-0.941,-0.07,0.112,82.317,-1.646,-96.341,15_6_1.csv
2018-07-11T17:57:26.227994,-1.019,-0.008,0.108,39.451,12.378,-41.463,15_6_1.csv
2018-07-11T17:57:26.280135,-1.098,0.031,0.154,11.829,18.841,-16.159,15_6_1.csv
2018-07-11T17:57:26.327905,-1.098,0.031,0.154,-7.744,45.061,16.159,15_6_1.csv
2018-07-11T17:57:26.375032,-0.924,-0.029,0.347,-20.976,126.707,114.451,15_6_1.csv
2018-07-11T17:57:26.424170,-1.136,0.198,0.038,-60.61,110.061,96.22,15_6_1.csv
2018-07-11T17:57:26.464278,-1.136,0.198,0.038,-123.232,13.232,53.78,15_6_1.csv
2018-07-11T17:57:26.532445,-1.162,-0.015,-0.034,-258.537,-87.317,58.293,15_6_1.csv
2018-07-11T17:57:26.589602,-1.013,-0.274,0.01,-268.354,-46.951,77.195,15_6_1.csv
2018-07-11T17:57:26.635728,-1.013,-0.274,0.01,-217.988,-19.085,95.976,15_6_1.csv
2018-07-11T17:57:26.685365,-1.227,-0.354,-0.026,-167.5,-6.28,120.366,15_6_1.csv
2018-07-11T17:57:26.742021,-1.262,-0.459,0.087,-56.89,40.854,178.72,15_6_1.csv
2018-07-11T17:57:26.795669,-1.262,-0.459,0.087,2.012,79.024,171.403,15_6_1.csv
2018-07-11T17:57:26.843299,-1.452,-0.376,0.053,38.476,81.22,130.122,15_6_1.csv
2018-07-11T17:57:26.892434,-1.088,-0.135,0.016,25.305,6.829,-72.378,15_6_1.csv
2018-07-11T17:57:26.937557,-1.088,-0.135,0.016,-0.915,-29.512,-171.22,15_6_1.csv
2018-07-11T17:57:26.992708,-1.331,-0.202,-0.194,22.012,-117.744,-212.073,15_6_1.csv
2018-07-11T17:57:27.128080,-1.073,-0.125,0.119,105.671,-40.305,-166.281,15_6_1.csv
2018-07-11T17:57:27.189247,-0.928,-0.103,0.1,90.61,34.39,-128.659,15_6_1.csv
2018-07-11T17:57:27.234368,-0.98,-0.071,0.012,106.829,9.695,-91.768,15_6_1.csv
2018-07-11T17:57:27.279493,-0.98,-0.071,0.012,102.622,-22.073,-63.354,15_6_1.csv
2018-07-11T17:57:27.332636,-0.978,0.039,0.138,81.707,-32.622,-44.451,15_6_1.csv
2018-07-11T17:57:27.397816,-0.998,0.085,0.27,9.695,22.256,1.524,15_6_1.csv
2018-07-11T17:57:27.463999,-0.962,-0.022,0.297,-64.451,78.537,92.744,15_6_1.csv
2018-07-11T17:57:27.527170,-0.962,-0.022,0.297,-65.244,96.585,124.451,15_6_1.csv
2018-07-11T17:57:27.573204,-1.229,0.008,0.068,-60.305,73.232,125.366,15_6_1.csv
2018-07-11T17:57:27.622336,-1.07,-0.029,0.057,-133.72,-30.244,86.463,15_6_1.csv
2018-07-11T17:57:27.668465,-1.07,-0.029,0.057,-195.183,-24.329,59.634,15_6_1.csv
2018-07-11T17:57:27.726621,-0.947,-0.188,0.032,-222.805,-1.159,38.11,15_6_1.csv
2018-07-11T17:57:27.786788,-1.056,-0.351,0.05,-171.159,21.159,63.11,15_6_1.csv
2018-07-11T17:57:27.838430,-1.056,-0.351,0.05,-107.256,26.646,98.476,15_6_1.csv
2018-07-11T17:57:27.894082,-1.185,-0.351,0.18,-38.78,49.756,119.573,15_6_1.csv
2018-07-11T17:57:27.940711,-1.609,-0.209,0.143,26.402,89.451,103.72,15_6_1.csv
2018-07-11T17:57:27.988341,-1.609,-0.209,0.143,22.134,51.22,51.768,15_6_1.csv
2018-07-11T17:57:28.042489,-1.161,-0.112,0.096,-3.476,8.415,-30.061,15_6_1.csv
2018-07-11T17:57:28.095634,-1.161,-0.112,0.096,0.305,-1.341,-135.366,15_6_1.csv
2018-07-11T17:57:28.136745,-1.511,0.144,-0.232,18.902,-105.488,-238.963,15_6_1.csv
2018-07-11T17:57:28.183876,-1.006,-0.026,0.276,-27.5,-219.512,-271.159,15_6_1.csv
2018-07-11T17:57:28.231003,-1.006,-0.026,0.276,-5.183,-90.793,-195.793,15_6_1.csv
2018-07-11T17:57:28.278134,-0.596,0.017,0.343,34.085,7.439,-129.024,15_6_1.csv
2018-07-11T17:57:28.333283,-0.596,0.017,0.343,48.354,4.695,-83.171,15_6_1.csv
2018-07-11T17:57:28.425536,-0.75,-0.034,0.297,-61.463,-77.561,68.11,15_6_1.csv
2018-07-11T17:57:28.502750,-1.355,-0.147,0.252,-97.805,6.768,205.244,15_6_1.csv
2018-07-11T17:57:28.557904,-1.355,-0.147,0.252,-100.793,70.61,264.695,15_6_1.csv
2018-07-11T17:57:28.606033,-1.692,-0.261,0.232,-63.476,136.463,298.842,15_6_1.csv
2018-07-11T17:57:28.655168,-1.692,-0.261,0.232,3.11,176.768,295.183,15_6_1.csv
2018-07-11T17:57:28.711322,-1.23,0.084,-0.018,-80.793,64.329,55.793,15_6_1.csv
2018-07-11T17:57:28.768979,-0.917,0.208,-0.082,-185.915,-50.793,-80.61,15_6_1.csv
2018-07-11T17:57:28.824629,-0.62,-0.104,0.123,-378.963,-44.878,-176.159,15_6_1.csv
2018-07-11T17:57:28.876269,-0.62,-0.104,0.123,-385.061,-9.268,-104.634,15_6_1.csv
2018-07-11T17:57:28.926404,-0.776,-0.47,-0.154,-320.0,-66.22,-25.427,15_6_1.csv
2018-07-11T17:57:28.964005,-0.776,-0.47,-0.154,-221.585,-127.256,38.841,15_6_1.csv
2018-07-11T17:57:29.041216,-1.181,-0.655,0.092,45.854,-20.366,183.598,15_6_1.csv
2018-07-11T17:57:29.104390,-1.506,-0.292,0.221,208.598,172.256,105.061,15_6_1.csv
2018-07-11T17:57:29.167062,-1.249,0.045,0.039,100.427,156.829,-7.866,15_6_1.csv
2018-07-11T17:57:29.215223,-1.249,0.045,0.039,4.817,56.037,-109.573,15_6_1.csv
2018-07-11T17:57:29.261850,-1.201,-0.07,-0.007,37.988,-85.793,-174.268,15_6_1.csv
2018-07-11T17:57:29.308979,-0.806,0.088,0.46,118.659,-141.951,-170.488,15_6_1.csv
2018-07-11T17:57:29.368143,-0.806,0.088,0.46,69.451,-54.573,-142.317,15_6_1.csv
2018-07-11T17:57:29.435326,-0.704,0.129,0.239,-55.244,-38.232,-85.793,15_6_1.csv
2018-07-11T17:57:29.496496,-0.836,-0.043,0.076,-74.878,-62.134,-50.854,15_6_1.csv
2018-07-11T17:57:29.542620,-0.836,-0.043,0.076,-66.159,-59.39,10.549,15_6_1.csv
2018-07-11T17:57:29.590756,-1.275,-0.121,0.054,-45.305,13.415,161.829,15_6_1.csv
2018-07-11T17:57:29.634875,-1.358,-0.353,0.194,-28.841,46.463,206.707,15_6_1.csv
2018-07-11T17:57:29.696044,-1.358,-0.353,0.194,79.939,139.512,231.463,15_6_1.csv
2018-07-11T17:57:29.795316,-0.875,0.395,0.018,-4.024,-25.854,-39.024,15_6_1.csv
2018-07-11T17:57:29.841440,-0.875,0.395,0.018,-185.61,-88.598,-126.342,15_6_1.csv
2018-07-11T17:57:29.886567,-0.704,-0.104,0.081,-335.0,-81.524,-162.561,15_6_1.csv
2018-07-11T17:57:29.934697,-0.704,-0.104,0.081,-348.72,-38.902,-116.037,15_6_1.csv
2018-07-11T17:57:29.979820,-0.976,-0.567,0.003,-237.622,-28.902,-11.28,15_6_1.csv
2018-07-11T17:57:30.036976,-1.472,-0.379,0.203,77.561,9.817,153.72,15_6_1.csv
2018-07-11T17:57:30.174609,-1.446,0.149,0.131,8.049,40.122,36.768,15_6_1.csv
2018-07-11T17:57:30.231264,-1.16,0.069,-0.131,-62.744,-172.622,-182.256,15_6_1.csv
2018-07-11T17:57:30.278393,-0.782,-0.166,0.151,-46.402,-209.146,-200.854,15_6_1.csv
2018-07-11T17:57:30.357609,-0.724,-0.132,0.203,8.72,-60.793,-163.415,15_6_1.csv
2018-07-11T17:57:30.412763,-0.724,-0.132,0.203,39.756,-19.695,-113.232,15_6_1.csv
2018-07-11T17:57:30.463900,-0.992,-0.015,0.084,59.146,-13.537,-58.11,15_6_1.csv
2018-07-11T17:57:30.527073,-1.077,0.058,0.045,-11.341,-32.683,20.122,15_6_1.csv
2018-07-11T17:57:30.575203,-1.077,0.058,0.045,-78.171,-23.354,31.951,15_6_1.csv
2018-07-11T17:57:30.620325,-1.042,-0.179,0.203,-93.963,3.049,57.988,15_6_1.csv
2018-07-11T17:57:30.668455,-1.042,-0.179,0.203,-34.512,93.11,104.939,15_6_1.csv
2018-07-11T17:57:30.729619,-1.063,-0.073,0.255,2.988,95.183,93.963,15_6_1.csv
2018-07-11T17:57:30.776746,-0.859,0.106,0.269,-27.012,97.683,81.524,15_6_1.csv
2018-07-11T17:57:30.832396,-0.859,0.106,0.269,-101.646,68.72,47.561,15_6_1.csv
2018-07-11T17:57:30.891054,-1.057,-0.02,0.04,-190.244,-36.22,18.11,15_6_1.csv
2018-07-11T17:57:30.941192,-1.261,-0.376,0.072,-193.049,-56.402,38.415,15_6_1.csv
2018-07-11T17:57:30.994336,-1.489,-0.289,0.147,-30.732,44.451,86.28,15_6_1.csv
2018-07-11T17:57:31.044477,-1.489,-0.289,0.147,16.402,58.476,55.244,15_6_1.csv
2018-07-11T17:57:31.155781,-1.032,-0.063,0.14,9.451,-96.098,-142.866,15_6_1.csv
2018-07-11T17:57:31.208425,-1.032,-0.063,0.14,31.768,-114.756,-158.781,15_6_1.csv
2018-07-11T17:57:31.261069,-0.759,0.006,0.276,25.732,-76.037,-146.524,15_6_1.csv
2018-07-11T17:57:31.312710,-0.759,0.006,0.276,0.244,-52.744,-136.707,15_6_1.csv
2018-07-11T17:57:31.356331,-0.774,0.01,0.173,-28.659,-61.768,-83.78,15_6_1.csv
2018-07-11T17:57:31.402457,-0.909,-0.056,0.112,-31.22,-50.671,-36.951,15_6_1.csv
2018-07-11T17:57:31.473651,-0.909,-0.056,0.112,-53.354,-44.939,9.329,15_6_1.csv
2018-07-11T17:57:31.536826,-1.082,-0.166,0.123,-78.659,13.902,88.902,15_6_1.csv
2018-07-11T17:57:31.591975,-1.127,-0.246,0.273,-50.854,57.317,120.244,15_6_1.csv
2018-07-11T17:57:31.643117,-1.01,0.14,0.575,1.037,100.915,80.244,15_6_1.csv
2018-07-11T17:57:31.700274,-1.01,0.14,0.575,-27.805,118.963,45.732,15_6_1.csv
2018-07-11T17:57:31.744398,-1.178,0.242,0.278,-137.561,93.049,34.329,15_6_1.csv
2018-07-11T17:57:31.792527,-1.178,0.242,0.278,-245.61,-33.902,26.402,15_6_1.csv
2018-07-11T17:57:31.858712,-1.298,-0.342,0.02,-207.866,-179.817,55.549,15_6_1.csv
2018-07-11T17:57:31.911356,-1.219,-0.521,0.143,-164.573,-96.89,82.744,15_6_1.csv
2018-07-11T17:57:31.973022,-1.383,-0.394,-0.102,35.122,16.646,45.244,15_6_1.csv
2018-07-11T17:57:32.011627,-1.383,-0.394,-0.102,121.159,0.366,-8.293,15_6_1.csv
2018-07-11T17:57:32.059255,-1.096,0.066,0.092,106.951,-70.427,-109.085,15_6_1.csv
2018-07-11T17:57:32.111897,-1.096,0.066,0.092,58.72,-93.659,-201.768,15_6_1.csv
2018-07-11T17:57:32.153008,-0.97,0.105,0.535,53.171,-5.183,-235.915,15_6_1.csv
2018-07-11T17:57:32.257289,-0.934,0.238,0.394,20.244,-47.622,-92.256,15_6_1.csv
2018-07-11T17:57:32.308427,-0.836,0.319,0.24,-25.61,-100.976,-48.232,15_6_1.csv
2018-07-11T17:57:32.355053,-0.836,0.319,0.24,-83.841,-135.976,-10.732,15_6_1.csv
2018-07-11T17:57:32.403182,-0.929,0.104,0.026,-236.89,-135.488,102.683,15_6_1.csv
2018-07-11T17:57:32.450310,-1.334,-0.361,0.007,-287.866,-141.159,194.024,15_6_1.csv
2018-07-11T17:57:32.669731,-1.365,0.067,-0.099,-222.256,16.829,108.781,15_6_1.csv
2018-07-11T17:57:32.722879,-1.437,-0.198,-0.279,-339.451,-91.22,58.841,15_6_1.csv
2018-07-11T17:57:32.776023,-1.266,-0.743,-0.086,-321.585,-70.244,85.0,15_6_1.csv
2018-07-11T17:57:32.823154,-1.266,-0.743,-0.086,-230.0,-20.427,129.024,15_6_1.csv
2018-07-11T17:57:32.871284,-1.164,-0.885,0.167,-59.573,4.268,131.402,15_6_1.csv
2018-07-11T17:57:32.919419,-1.164,-0.885,0.167,76.402,9.451,46.098,15_6_1.csv
2018-07-11T17:57:32.964540,-0.998,-0.39,0.491,-35.671,13.415,-176.281,15_6_1.csv
2018-07-11T17:57:33.016685,-0.87,-0.504,0.4,12.012,14.207,-154.573,15_6_1.csv
2018-07-11T17:57:33.075845,-0.87,-0.504,0.4,118.72,-16.159,-124.207,15_6_1.csv
2018-07-11T17:57:33.123980,-1.083,-0.149,0.163,166.22,-64.451,-115.61,15_6_1.csv
2018-07-11T17:57:33.185145,-1.069,0.12,0.192,95.61,-87.927,-146.037,15_6_1.csv
2018-07-11T17:57:33.233840,-1.069,0.12,0.192,12.134,-67.439,-163.842,15_6_1.csv
2018-07-11T17:57:33.291996,-0.979,0.003,0.155,-77.927,-22.317,-104.695,15_6_1.csv
2018-07-11T17:57:33.339125,-0.824,-0.183,0.53,16.463,74.146,1.951,15_6_1.csv
2018-07-11T17:57:33.388258,-0.824,-0.183,0.53,142.744,205.671,82.988,15_6_1.csv
2018-07-11T17:57:33.433379,-0.834,0.663,0.467,105.427,195.427,55.061,15_6_1.csv
2018-07-11T17:57:33.495047,-1.025,0.186,0.078,-258.902,47.927,30.366,15_6_1.csv
2018-07-11T17:57:33.565235,-1.025,0.186,0.078,-282.927,-58.293,95.854,15_6_1.csv
2018-07-11T17:57:33.621386,-1.562,-0.445,0.006,-201.403,-142.073,271.463,15_6_1.csv
2018-07-11T17:57:33.672022,-1.81,-0.47,0.317,-162.622,-14.756,331.22,15_6_1.csv
2018-07-11T17:57:33.764272,-1.516,-0.324,0.096,-102.256,119.024,140.549,15_6_1.csv
2018-07-11T17:57:33.809895,-1.136,-0.475,0.028,-106.951,34.878,-220.854,15_6_1.csv
2018-07-11T17:57:33.942758,-0.854,-0.55,0.249,144.878,-62.378,-111.707,15_6_1.csv
2018-07-11T17:57:34.006933,-0.867,-0.105,0.039,163.171,-84.695,-88.476,15_6_1.csv
2018-07-11T17:57:34.062087,-0.903,0.008,0.14,116.159,-111.646,-92.134,15_6_1.csv
2018-07-11T17:57:34.104201,-0.903,0.008,0.14,56.22,-69.634,-97.378,15_6_1.csv
2018-07-11T17:57:34.157349,-0.763,-0.061,0.25,16.951,-15.488,-94.024,15_6_1.csv
2018-07-11T17:57:34.198460,-0.763,-0.061,0.25,5.61,18.171,-80.122,15_6_1.csv
2018-07-11T17:57:34.246592,-0.925,-0.107,0.331,34.024,83.841,-32.317,15_6_1.csv
2018-07-11T17:57:34.314778,-1.19,0.261,0.399,120.732,115.549,89.207,15_6_1.csv
2018-07-11T17:57:34.379959,-0.982,0.659,0.411,-45.61,91.098,0.061,15_6_1.csv
2018-07-11T17:57:34.433103,-0.982,0.659,0.411,-216.463,65.915,-37.134,15_6_1.csv
2018-07-11T17:57:34.480234,-0.898,-0.042,0.064,-287.988,20.976,-16.89,15_6_1.csv
2018-07-11T17:57:34.540899,-1.113,-0.397,0.009,-178.659,-137.073,109.329,15_6_1.csv
2018-07-11T17:57:34.592541,-1.113,-0.397,0.009,-131.524,-147.5,177.073,15_6_1.csv
2018-07-11T17:57:34.652204,-1.273,-0.38,0.277,-81.585,92.561,249.878,15_6_1.csv
2018-07-11T17:57:34.704848,-1.522,-0.35,0.121,-35.732,152.5,196.463,15_6_1.csv
2018-07-11T17:57:34.789080,-1.292,-0.233,0.1,-14.695,94.451,-35.183,15_6_1.csv
2018-07-11T17:57:34.848743,-1.292,-0.233,0.1,3.293,20.305,-135.793,15_6_1.csv
2018-07-11T17:57:34.905897,-1.3,-0.203,0.229,121.585,-92.744,-167.988,15_6_1.csv
2018-07-11T17:57:34.954528,-1.016,0.038,0.307,156.707,-67.805,-145.244,15_6_1.csv
2018-07-11T17:57:35.008173,-1.016,0.038,0.307,142.988,-77.378,-126.585,15_6_1.csv
2018-07-11T17:57:35.062821,-0.862,0.198,0.2,38.049,-103.049,-107.256,15_6_1.csv
2018-07-11T17:57:35.147050,-0.772,0.045,0.146,-56.646,-82.378,-60.122,15_6_1.csv
2018-07-11T17:57:35.242312,-0.842,-0.1,0.16,-44.207,15.915,19.512,15_6_1.csv
2018-07-11T17:57:35.299471,-0.965,-0.128,0.228,-61.341,63.841,83.78,15_6_1.csv
2018-07-11T17:57:35.355623,-1.141,0.017,0.307,-54.634,131.22,95.61,15_6_1.csv
2018-07-11T17:57:35.404760,-1.141,0.017,0.307,-73.049,136.402,74.512,15_6_1.csv
2018-07-11T17:57:35.467930,-1.088,0.219,0.221,-216.646,35.915,30.549,15_6_1.csv
2018-07-11T17:57:35.514059,-1.08,0.059,-0.033,-299.024,-2.439,8.902,15_6_1.csv
2018-07-11T17:57:35.563191,-1.08,0.059,-0.033,-340.671,-40.732,20.915,15_6_1.csv
2018-07-11T17:57:35.636393,-1.589,-0.585,-0.094,-244.024,-81.341,189.024,15_6_1.csv
2018-07-11T17:57:35.684024,-1.437,-0.918,0.078,-53.11,-42.378,302.622,15_6_1.csv
2018-07-11T17:57:35.731529,-1.437,-0.918,0.078,120.244,26.341,299.451,15_6_1.csv
2018-07-11T17:57:35.778658,-1.264,-0.045,0.078,12.927,25.183,-110.122,15_6_1.csv
2018-07-11T17:57:35.849853,-1.323,0.023,-0.193,-92.317,-75.732,-240.732,15_6_1.csv
2018-07-11T17:57:35.914027,-1.177,-0.229,0.235,-59.085,-146.402,-361.829,15_6_1.csv
2018-07-11T17:57:35.965667,-1.177,-0.229,0.235,28.537,-63.476,-275.671,15_6_1.csv
2018-07-11T17:57:36.012794,-0.935,0.064,0.277,124.939,4.268,-174.756,15_6_1.csv
2018-07-11T17:57:36.059420,-0.621,0.411,0.06,37.195,-52.378,-124.817,15_6_1.csv
2018-07-11T17:57:36.108051,-0.621,0.411,0.06,-103.11,-89.756,-104.146,15_6_1.csv
2018-07-11T17:57:36.165205,-0.545,-0.005,0.0,-199.695,-94.329,-59.634,15_6_1.csv
2018-07-11T17:57:36.219852,-1.255,-0.604,0.164,-217.683,-68.598,37.439,15_6_1.csv
2018-07-11T17:57:36.280017,-1.255,-0.604,0.164,86.829,54.085,373.476,15_6_1.csv
2018-07-11T17:57:36.328146,-1.72,0.326,0.291,164.634,72.5,332.866,15_6_1.csv
2018-07-11T17:57:36.375278,-1.72,0.326,0.291,-24.512,61.951,182.927,15_6_1.csv
2018-07-11T17:57:36.426416,-1.41,0.107,0.116,-464.634,-98.293,61.89,15_6_1.csv
2018-07-11T17:57:36.490593,-0.887,-0.543,0.056,-458.781,-76.829,17.439,15_6_1.csv
2018-07-11T17:57:36.607911,-0.68,-0.57,0.108,-102.134,-70.61,130.244,15_6_1.csv
2018-07-11T17:57:36.660554,-1.337,-0.485,0.028,-77.683,-22.805,138.781,15_6_1.csv
2018-07-11T17:57:36.715201,-1.367,-0.415,0.101,-39.207,51.768,73.415,15_6_1.csv
2018-07-11T17:57:36.763333,-1.367,-0.415,0.101,23.72,97.927,-54.085,15_6_1.csv
2018-07-11T17:57:36.808455,-1.455,-0.239,0.176,111.829,148.902,-206.159,15_6_1.csv
2018-07-11T17:57:36.868622,-1.159,0.85,0.4,159.512,-44.329,-192.622,15_6_1.csv
2018-07-11T17:57:36.928787,-1.159,0.85,0.4,-170.122,-22.012,-233.537,15_6_1.csv
2018-07-11T17:57:36.990957,-1.135,-0.006,0.04,-44.329,-100.0,-50.183,15_6_1.csv
2018-07-11T17:57:37.042100,-0.929,0.097,0.119,113.049,-136.037,-11.829,15_6_1.csv
2018-07-11T17:57:37.091232,-0.929,0.097,0.119,93.72,-113.842,14.512,15_6_1.csv
2018-07-11T17:57:37.137358,-0.844,0.072,0.186,-43.11,-56.463,53.537,15_6_1.csv
2018-07-11T17:57:37.198526,-1.089,-0.271,0.081,-56.585,-10.122,143.963,15_6_1.csv
2018-07-11T17:57:37.250671,-1.089,-0.271,0.081,-1.89,-7.134,159.756,15_6_1.csv
2018-07-11T17:57:37.291782,-1.14,-0.126,0.195,10.793,17.5,154.939,15_6_1.csv
2018-07-11T17:57:37.343928,-1.14,-0.126,0.195,-25.854,41.707,129.512,15_6_1.csv
