time,accel_x_list,accel_y_list,accel_z_list,gyro_x_list,gyro_y_list,gyro_z_list,filename
2018-07-12T11:13:11.606562,-0.94,-0.42,0.034,10.732,10.549,1.28,16_10_2.csv
2018-07-12T11:13:12.083354,-1.503,-0.521,-0.05,26.098,0.854,-9.878,16_10_2.csv
2018-07-12T11:13:12.138505,-2.256,-0.771,-0.606,-43.78,-0.976,-16.951,16_10_2.csv
2018-07-12T11:13:12.205186,-2.256,-0.771,-0.606,-69.878,-42.683,-15.0,16_10_2.csv
2018-07-12T11:13:12.256824,-1.146,-0.255,-0.223,-192.561,22.256,14.695,16_10_2.csv
2018-07-12T11:13:12.310969,0.284,-0.437,0.525,-219.329,-77.012,48.963,16_10_2.csv
2018-07-12T11:13:12.354585,0.284,-0.437,0.525,-66.951,-31.341,47.988,16_10_2.csv
2018-07-12T11:13:12.403215,0.035,-0.397,0.229,10.61,22.134,22.073,16_10_2.csv
2018-07-12T11:13:12.450341,-0.111,-0.348,0.075,56.707,-29.024,20.427,16_10_2.csv
2018-07-12T11:13:12.511505,-0.111,-0.348,0.075,113.963,19.024,6.951,16_10_2.csv
2018-07-12T11:13:12.581191,-1.401,-0.519,-0.16,190.122,117.805,42.073,16_10_2.csv
2018-07-12T11:13:12.636338,-3.006,-0.328,-0.718,137.5,-19.268,55.366,16_10_2.csv
2018-07-12T11:13:12.683464,-3.006,-0.328,-0.718,-12.195,-80.61,-23.11,16_10_2.csv
2018-07-12T11:13:12.731091,-1.797,-0.478,-0.064,-158.659,-9.024,-6.402,16_10_2.csv
2018-07-12T11:13:12.777215,0.001,-0.326,0.333,-68.293,-26.89,68.049,16_10_2.csv
2018-07-12T11:13:12.838378,0.001,-0.326,0.333,1.646,-32.805,11.402,16_10_2.csv
2018-07-12T11:13:12.900544,0.238,-0.249,0.178,128.293,27.378,1.89,16_10_2.csv
2018-07-12T11:13:12.952683,0.014,0.13,0.002,95.488,24.695,-27.805,16_10_2.csv
2018-07-12T11:13:12.999308,0.014,0.13,0.002,0.61,-67.744,-37.439,16_10_2.csv
2018-07-12T11:13:13.080525,-0.695,-0.323,-0.05,17.5,119.39,27.439,16_10_2.csv
2018-07-12T11:13:13.125144,-2.848,-0.682,-0.588,86.28,25.671,57.317,16_10_2.csv
2018-07-12T11:13:13.184804,-2.684,-0.3,-0.074,23.293,6.22,-93.232,16_10_2.csv
2018-07-12T11:13:13.238948,-2.684,-0.3,-0.074,-140.488,-29.329,-42.744,16_10_2.csv
2018-07-12T11:13:13.308635,-0.512,-0.517,0.236,-60.122,-40.305,109.268,16_10_2.csv
2018-07-12T11:13:13.363281,0.405,-0.55,0.204,39.39,-71.646,110.0,16_10_2.csv
2018-07-12T11:13:13.422940,-0.183,0.018,-0.119,147.866,97.683,-20.366,16_10_2.csv
2018-07-12T11:13:13.479591,-0.183,0.018,-0.119,16.646,-97.866,-62.073,16_10_2.csv
2018-07-12T11:13:13.540253,-0.081,-0.081,0.09,-81.463,-0.061,-137.317,16_10_2.csv
2018-07-12T11:13:13.591389,-1.82,-0.678,-0.077,-12.561,92.439,-105.61,16_10_2.csv
2018-07-12T11:13:13.641524,-1.82,-0.678,-0.077,43.11,38.78,-9.573,16_10_2.csv
2018-07-12T11:13:13.689652,-2.856,-0.779,-0.401,-27.317,49.329,6.28,16_10_2.csv
2018-07-12T11:13:13.731263,-2.856,-0.779,-0.401,-97.439,14.756,4.512,16_10_2.csv
2018-07-12T11:13:13.789419,-1.744,-0.709,-0.05,-83.78,1.89,162.073,16_10_2.csv
2018-07-12T11:13:13.858604,0.065,-0.668,0.192,-67.5,-105.976,79.817,16_10_2.csv
2018-07-12T11:13:13.915757,0.188,-0.369,0.026,75.488,9.939,6.768,16_10_2.csv
2018-07-12T11:13:13.967895,0.188,-0.369,0.026,98.171,59.695,-45.976,16_10_2.csv
2018-07-12T11:13:14.018029,-0.106,-0.11,0.006,-16.098,-89.695,-67.073,16_10_2.csv
2018-07-12T11:13:14.058137,-0.231,-0.306,0.105,-7.683,-3.171,-84.146,16_10_2.csv
2018-07-12T11:13:14.126820,-0.231,-0.306,0.105,33.598,82.988,-89.085,16_10_2.csv
2018-07-12T11:13:14.184474,-2.204,-0.766,-0.217,-62.256,11.768,-47.866,16_10_2.csv
2018-07-12T11:13:14.251654,-2.688,-1.018,-0.725,-174.085,60.366,-114.634,16_10_2.csv
2018-07-12T11:13:14.308806,-1.384,-0.618,-0.142,22.073,-104.634,20.244,16_10_2.csv
2018-07-12T11:13:14.359442,-1.384,-0.618,-0.142,-3.902,-14.207,71.89,16_10_2.csv
2018-07-12T11:13:14.466728,0.184,-0.158,0.179,54.939,-1.707,-9.085,16_10_2.csv
2018-07-12T11:13:14.533908,0.184,-0.158,0.179,89.573,87.561,-1.951,16_10_2.csv
2018-07-12T11:13:14.588052,-0.119,-0.095,0.083,31.098,-55.732,15.122,16_10_2.csv
2018-07-12T11:13:14.652223,-0.275,-0.259,0.126,32.927,11.951,-13.78,16_10_2.csv
2018-07-12T11:13:14.699851,-2.339,-0.666,-0.322,117.195,131.402,1.585,16_10_2.csv
2018-07-12T11:13:14.748481,-2.339,-0.666,-0.322,96.22,36.402,34.451,16_10_2.csv
2018-07-12T11:13:14.808642,-2.854,-0.831,-0.452,-80.0,-8.171,-22.866,16_10_2.csv
2018-07-12T11:13:14.873315,-0.93,-0.59,0.042,-104.695,-9.756,99.451,16_10_2.csv
2018-07-12T11:13:14.923950,-0.93,-0.59,0.042,-117.256,-13.476,56.524,16_10_2.csv
2018-07-12T11:13:14.981102,0.232,-0.423,0.194,-16.159,-44.329,31.463,16_10_2.csv
2018-07-12T11:13:15.026724,0.057,-0.242,0.154,136.342,59.939,21.341,16_10_2.csv
2018-07-12T11:13:15.076357,0.057,-0.242,0.154,160.549,65.122,20.061,16_10_2.csv
2018-07-12T11:13:15.121477,-0.089,-0.06,0.158,76.524,-7.744,11.341,16_10_2.csv
2018-07-12T11:13:15.194172,-0.986,-0.472,-0.032,25.366,33.78,-38.293,16_10_2.csv
2018-07-12T11:13:15.260850,-0.986,-0.472,-0.032,69.695,114.512,-35.427,16_10_2.csv
2018-07-12T11:13:15.308477,-3.171,-0.581,-0.636,14.939,-85.183,0.061,16_10_2.csv
2018-07-12T11:13:15.355603,-2.286,-0.521,-0.183,-110.915,-32.195,-13.11,16_10_2.csv
2018-07-12T11:13:15.403732,-2.286,-0.521,-0.183,-135.0,21.89,1.829,16_10_2.csv
2018-07-12T11:13:15.449855,-0.35,-0.167,0.291,-71.341,22.317,32.988,16_10_2.csv
2018-07-12T11:13:15.514026,0.276,-0.162,0.286,-67.744,-90.244,-6.585,16_10_2.csv
2018-07-12T11:13:15.576193,0.276,-0.162,0.286,4.756,-21.585,1.098,16_10_2.csv
2018-07-12T11:13:15.637355,0.005,-0.194,0.024,35.793,-37.256,2.561,16_10_2.csv
2018-07-12T11:13:15.684482,0.005,-0.165,0.043,9.39,-34.146,-17.073,16_10_2.csv
2018-07-12T11:13:15.796782,-1.842,-0.602,-0.291,89.268,51.89,2.073,16_10_2.csv
2018-07-12T11:13:15.842905,-3.281,-0.587,-0.547,48.598,-31.646,9.756,16_10_2.csv
2018-07-12T11:13:15.906575,-1.727,-0.718,-0.016,-149.024,6.951,8.293,16_10_2.csv
2018-07-12T11:13:15.964731,-1.727,-0.718,-0.016,-84.39,10.0,74.878,16_10_2.csv
2018-07-12T11:13:16.032411,0.199,-0.3,0.251,-0.61,-94.573,-3.963,16_10_2.csv
2018-07-12T11:13:16.076530,0.223,-0.108,0.155,29.451,-17.439,-31.585,16_10_2.csv
2018-07-12T11:13:16.126663,0.223,-0.108,0.155,49.329,63.659,-19.939,16_10_2.csv
2018-07-12T11:13:16.174791,-0.121,-0.204,0.037,27.622,-34.268,-2.622,16_10_2.csv
2018-07-12T11:13:16.243976,-0.231,-0.225,0.101,36.037,26.463,-60.549,16_10_2.csv
2018-07-12T11:13:16.302634,-0.231,-0.225,0.101,45.61,85.183,-72.134,16_10_2.csv
2018-07-12T11:13:16.359786,-2.252,-0.603,-0.316,52.805,-8.902,12.073,16_10_2.csv
2018-07-12T11:13:16.418944,-2.761,-0.735,-0.304,-63.171,15.61,-28.902,16_10_2.csv
2018-07-12T11:13:16.470584,-1.485,-0.759,0.014,-75.427,-28.354,47.317,16_10_2.csv
2018-07-12T11:13:16.527737,-1.485,-0.759,0.014,-22.012,-33.78,67.256,16_10_2.csv
2018-07-12T11:13:16.583893,-0.11,-0.268,0.126,-45.549,-51.159,16.585,16_10_2.csv
2018-07-12T11:13:16.652579,0.278,0.003,0.037,-94.817,-108.11,-68.354,16_10_2.csv
2018-07-12T11:13:16.701209,0.278,0.003,0.037,-78.78,-16.829,-52.561,16_10_2.csv
2018-07-12T11:13:16.752346,-0.022,-0.218,0.031,93.476,-0.427,14.573,16_10_2.csv
2018-07-12T11:13:16.809499,-0.49,-0.262,0.064,152.378,65.122,1.951,16_10_2.csv
2018-07-12T11:13:16.872165,-2.703,-0.708,-0.231,82.378,62.683,2.134,16_10_2.csv
2018-07-12T11:13:16.944860,-2.703,-0.708,-0.231,-60.244,-77.256,-21.159,16_10_2.csv
2018-07-12T11:13:17.015047,-2.578,-0.991,-0.382,-102.866,-26.829,12.378,16_10_2.csv
2018-07-12T11:13:17.059165,-0.838,-0.731,0.0,4.024,1.037,110.915,16_10_2.csv
2018-07-12T11:13:17.157428,0.278,-0.021,0.189,-51.646,-19.451,-40.61,16_10_2.csv
2018-07-12T11:13:17.204554,0.097,-0.082,0.07,-28.232,0.366,-41.768,16_10_2.csv
2018-07-12T11:13:17.288778,-0.017,-0.166,0.101,18.963,-8.659,-8.476,16_10_2.csv
2018-07-12T11:13:17.352950,-0.928,-0.471,0.016,72.683,70.122,-13.049,16_10_2.csv
2018-07-12T11:13:17.417623,-0.928,-0.471,0.016,71.585,145.671,-7.012,16_10_2.csv
2018-07-12T11:13:17.466754,-2.831,-1.018,-0.467,12.256,23.659,23.232,16_10_2.csv
2018-07-12T11:13:17.527918,-2.365,-0.874,-0.201,-23.963,-18.049,-69.817,16_10_2.csv
2018-07-12T11:13:17.581561,-2.365,-0.874,-0.201,-25.366,-38.171,3.902,16_10_2.csv
2018-07-12T11:13:17.654255,-0.714,-0.462,0.0,-2.866,-11.646,20.549,16_10_2.csv
2018-07-12T11:13:17.707397,0.197,0.235,0.052,-45.366,-78.78,-54.451,16_10_2.csv
2018-07-12T11:13:17.768560,0.13,0.074,0.271,-44.878,-23.354,-38.293,16_10_2.csv
2018-07-12T11:13:17.809670,0.13,0.074,0.271,-44.268,-33.659,36.524,16_10_2.csv
2018-07-12T11:13:17.857298,-0.009,-0.345,0.121,-26.524,-16.159,21.28,16_10_2.csv
2018-07-12T11:13:17.906930,-0.009,-0.345,0.121,84.573,55.427,13.598,16_10_2.csv
2018-07-12T11:13:17.979624,-1.371,-0.537,-0.1,64.939,131.585,44.024,16_10_2.csv
2018-07-12T11:13:18.035273,-2.964,-0.876,-0.664,-40.488,-12.683,59.146,16_10_2.csv
2018-07-12T11:13:18.091924,-1.91,-1.078,-0.334,-119.329,-35.488,-35.671,16_10_2.csv
2018-07-12T11:13:18.138549,-1.91,-1.078,-0.334,-6.951,3.232,92.134,16_10_2.csv
2018-07-12T11:13:18.186176,-0.159,-0.388,0.164,75.427,8.963,104.878,16_10_2.csv
2018-07-12T11:13:18.235307,-0.159,-0.388,0.164,50.427,-19.329,26.768,16_10_2.csv
2018-07-12T11:13:18.295468,0.187,-0.1,0.278,61.28,27.134,-10.976,16_10_2.csv
2018-07-12T11:13:18.359138,-0.049,-0.121,0.143,35.854,-32.073,-18.72,16_10_2.csv
2018-07-12T11:13:18.424814,-0.081,-0.2,0.108,47.744,14.268,-26.28,16_10_2.csv
2018-07-12T11:13:18.632653,-3.225,-0.604,-0.787,-202.378,-90.488,-104.085,16_10_2.csv
2018-07-12T11:13:18.684793,-1.108,-0.801,0.061,-59.146,-8.963,21.951,16_10_2.csv
2018-07-12T11:13:18.750974,0.209,-0.138,0.462,135.793,-40.915,71.098,16_10_2.csv
2018-07-12T11:13:18.828184,0.132,0.043,0.258,-16.341,7.134,-39.695,16_10_2.csv
2018-07-12T11:13:18.874307,0.132,0.043,0.258,55.915,37.866,1.707,16_10_2.csv
2018-07-12T11:13:18.918429,0.062,-0.132,0.078,62.622,-24.451,43.659,16_10_2.csv
2018-07-12T11:13:18.963550,-0.629,-0.366,-0.088,91.768,-3.049,-0.915,16_10_2.csv
2018-07-12T11:13:19.012683,-0.629,-0.366,-0.088,95.732,180.854,-12.256,16_10_2.csv
2018-07-12T11:13:19.058806,-2.637,-0.722,-0.438,4.207,27.073,42.073,16_10_2.csv
2018-07-12T11:13:19.120972,-2.637,-0.722,-0.438,-182.195,-65.427,-9.573,16_10_2.csv
2018-07-12T11:13:19.186648,-2.498,-1.3,-0.153,-63.72,-38.415,5.488,16_10_2.csv
2018-07-12T11:13:19.245806,-1.044,-0.478,0.388,70.366,2.683,83.11,16_10_2.csv
2018-07-12T11:13:19.292931,0.189,-0.046,0.064,-168.476,-166.159,60.366,16_10_2.csv
2018-07-12T11:13:19.340559,0.189,-0.046,0.064,-357.805,-235.732,-7.744,16_10_2.csv
2018-07-12T11:13:19.386682,0.207,-0.46,0.039,-216.463,-34.634,-56.098,16_10_2.csv
2018-07-12T11:13:19.447846,0.043,-0.096,0.025,157.927,22.927,14.756,16_10_2.csv
2018-07-12T11:13:19.514022,0.043,-0.096,0.025,195.915,72.622,28.11,16_10_2.csv
2018-07-12T11:13:19.573682,-0.838,-0.145,-0.105,130.488,201.037,26.402,16_10_2.csv
2018-07-12T11:13:19.640861,-2.828,-0.666,-0.394,41.28,13.78,24.939,16_10_2.csv
2018-07-12T11:13:19.683976,-2.828,-0.666,-0.394,-22.439,-16.463,-22.805,16_10_2.csv
2018-07-12T11:13:19.735614,-2.765,-0.784,-0.211,11.585,44.878,-2.744,16_10_2.csv
2018-07-12T11:13:19.802293,-0.801,-0.184,-0.021,-32.134,3.659,26.037,16_10_2.csv
2018-07-12T11:13:19.969014,-0.106,-0.165,0.172,69.329,-17.439,14.939,16_10_2.csv
2018-07-12T11:13:20.029177,-0.092,-0.117,0.162,32.805,-31.768,-6.341,16_10_2.csv
2018-07-12T11:13:20.075301,-0.092,-0.117,0.162,41.341,13.72,-35.915,16_10_2.csv
2018-07-12T11:13:20.125938,-0.925,-0.396,0.04,59.634,46.402,-42.805,16_10_2.csv
2018-07-12T11:13:20.166546,-2.882,-0.611,-0.499,81.707,31.89,39.634,16_10_2.csv
2018-07-12T11:13:20.242248,-2.882,-0.611,-0.499,-73.293,-61.22,3.841,16_10_2.csv
2018-07-12T11:13:20.312436,-2.443,-0.857,-0.313,-92.744,-19.085,27.073,16_10_2.csv
2018-07-12T11:13:20.373098,-0.548,-0.52,0.167,-26.402,-35.549,58.354,16_10_2.csv
2018-07-12T11:13:20.419221,0.378,-0.183,0.329,-13.11,-49.634,22.988,16_10_2.csv
2018-07-12T11:13:20.467852,0.378,-0.183,0.329,42.866,3.049,-15.732,16_10_2.csv
2018-07-12T11:13:20.514477,-0.097,-0.062,0.119,52.622,47.073,-30.061,16_10_2.csv
2018-07-12T11:13:20.573634,-0.056,-0.201,0.103,-31.28,-76.89,-17.988,16_10_2.csv
2018-07-12T11:13:20.637304,-0.056,-0.201,0.103,1.768,11.22,-35.671,16_10_2.csv
2018-07-12T11:13:20.699971,-1.127,-0.516,-0.031,84.512,83.659,-18.659,16_10_2.csv
2018-07-12T11:13:20.746095,-2.915,-0.623,-0.43,45.488,16.037,24.634,16_10_2.csv
2018-07-12T11:13:20.793722,-2.915,-0.623,-0.43,-69.939,-32.927,-32.744,16_10_2.csv
2018-07-12T11:13:20.840346,-2.318,-0.796,-0.184,-89.451,3.902,-39.634,16_10_2.csv
2018-07-12T11:13:20.903014,-0.647,-0.296,0.085,-13.171,4.39,67.134,16_10_2.csv
2018-07-12T11:13:20.971196,0.456,-0.269,0.249,-110.427,-109.085,2.256,16_10_2.csv
2018-07-12T11:13:21.026343,0.456,-0.269,0.249,6.341,3.232,-12.012,16_10_2.csv
2018-07-12T11:13:21.074472,-0.015,-0.164,0.13,66.585,77.195,-7.683,16_10_2.csv
2018-07-12T11:13:21.121598,-0.015,-0.164,0.13,42.256,3.963,16.951,16_10_2.csv
2018-07-12T11:13:21.168724,-0.082,-0.194,0.114,42.195,-28.049,7.317,16_10_2.csv
2018-07-12T11:13:21.252450,-1.39,-0.515,-0.116,66.768,96.341,1.22,16_10_2.csv
2018-07-12T11:13:21.321634,-2.797,-0.545,-0.522,56.037,-33.293,46.951,16_10_2.csv
2018-07-12T11:13:21.372775,-2.797,-0.545,-0.522,9.573,-44.695,-10.488,16_10_2.csv
2018-07-12T11:13:21.421906,-2.137,-0.536,0.234,-157.134,6.159,20.854,16_10_2.csv
2018-07-12T11:13:21.468032,-0.799,-0.625,0.132,38.293,52.134,107.195,16_10_2.csv
2018-07-12T11:13:21.516662,-0.799,-0.625,0.132,69.085,1.646,101.707,16_10_2.csv
2018-07-12T11:13:21.587852,0.102,-0.125,-0.017,14.878,-16.098,-10.122,16_10_2.csv
2018-07-12T11:13:21.637988,0.174,-0.033,-0.025,-23.841,-60.915,-28.171,16_10_2.csv
2018-07-12T11:13:21.682106,0.174,-0.033,-0.025,-77.073,-82.378,-26.037,16_10_2.csv
2018-07-12T11:13:21.728256,0.021,-0.221,0.128,-61.89,32.195,-18.72,16_10_2.csv
2018-07-12T11:13:21.777387,-1.275,-0.478,-0.131,46.646,68.11,-28.293,16_10_2.csv
2018-07-12T11:13:21.822008,-1.275,-0.478,-0.131,82.744,154.939,-17.988,16_10_2.csv
2018-07-12T11:13:21.881670,-3.099,-0.413,-0.708,22.134,-25.0,7.195,16_10_2.csv
2018-07-12T11:13:21.943840,-2.153,-0.689,-0.023,-172.988,-8.049,-70.244,16_10_2.csv
2018-07-12T11:13:22.013027,-2.153,-0.689,-0.023,-120.488,23.78,47.195,16_10_2.csv
2018-07-12T11:13:22.058147,-0.319,-0.621,0.226,39.329,-63.171,11.524,16_10_2.csv
2018-07-12T11:13:22.105775,0.308,-0.128,0.023,148.11,12.866,3.354,16_10_2.csv
2018-07-12T11:13:22.153402,0.308,-0.128,0.023,143.598,10.183,-2.561,16_10_2.csv
2018-07-12T11:13:22.222085,0.001,0.014,-0.099,7.134,-36.037,-21.646,16_10_2.csv
2018-07-12T11:13:22.298790,-0.05,-0.228,0.127,65.183,66.646,-35.854,16_10_2.csv
2018-07-12T11:13:22.357950,-2.037,-0.506,-0.052,106.159,124.39,-31.707,16_10_2.csv
2018-07-12T11:13:22.408082,-2.037,-0.506,-0.052,35.61,9.939,22.683,16_10_2.csv
2018-07-12T11:13:22.456712,-2.911,-0.763,-0.471,-81.402,-47.744,-21.28,16_10_2.csv
2018-07-12T11:13:22.500329,-1.784,-0.76,-0.194,-31.28,-27.195,14.024,16_10_2.csv
2018-07-12T11:13:22.608116,-0.154,-0.288,0.184,-14.573,-15.122,57.988,16_10_2.csv
2018-07-12T11:13:22.679307,0.431,-0.222,0.088,6.22,-93.963,60.122,16_10_2.csv
2018-07-12T11:13:22.730944,0.431,-0.222,0.088,39.39,14.451,-2.317,16_10_2.csv
2018-07-12T11:13:22.777569,-0.187,-0.171,0.008,-2.988,89.512,-58.476,16_10_2.csv
2018-07-12T11:13:22.825197,0.105,-0.124,0.079,37.622,-62.195,12.378,16_10_2.csv
2018-07-12T11:13:22.886861,0.105,-0.124,0.079,72.012,52.805,-19.207,16_10_2.csv
2018-07-12T11:13:22.956547,-2.045,-0.556,-0.243,19.756,86.28,-23.78,16_10_2.csv
2018-07-12T11:13:23.009689,-3.091,-0.863,-0.413,-74.695,-107.683,-62.561,16_10_2.csv
2018-07-12T11:13:23.059823,-3.091,-0.863,-0.413,-115.61,-47.866,-109.817,16_10_2.csv
2018-07-12T11:13:23.108453,-1.786,-0.692,-0.093,-1.951,-8.415,74.146,16_10_2.csv
2018-07-12T11:13:23.156582,-0.128,-0.398,0.101,-74.939,-73.841,76.646,16_10_2.csv
2018-07-12T11:13:23.204710,-0.128,-0.398,0.101,-63.659,-113.232,83.598,16_10_2.csv
2018-07-12T11:13:23.266876,0.306,-0.408,-0.028,136.159,67.439,-77.744,16_10_2.csv
2018-07-12T11:13:23.319016,0.036,0.039,0.044,41.829,28.415,-105.0,16_10_2.csv
2018-07-12T11:13:23.391208,-0.094,-0.01,0.075,68.354,43.354,-43.476,16_10_2.csv
2018-07-12T11:13:23.435828,-0.094,-0.01,0.075,97.622,100.732,-39.939,16_10_2.csv
2018-07-12T11:13:23.483455,-1.84,-0.509,-0.171,98.659,155.671,-18.72,16_10_2.csv
2018-07-12T11:13:23.574699,-2.823,-1.045,-0.457,-81.159,-108.232,-16.22,16_10_2.csv
2018-07-12T11:13:23.645889,-1.833,-1.201,-0.234,-123.171,-63.659,37.5,16_10_2.csv
2018-07-12T11:13:23.729111,-0.251,-0.453,-0.04,11.585,-0.183,98.232,16_10_2.csv
2018-07-12T11:13:23.792280,0.329,-0.178,0.029,-8.598,-56.402,13.72,16_10_2.csv
2018-07-12T11:13:23.840912,0.329,-0.178,0.029,9.085,35.793,-11.829,16_10_2.csv
2018-07-12T11:13:23.889039,-0.142,-0.151,0.078,19.39,69.451,-24.756,16_10_2.csv
2018-07-12T11:13:24.211408,-1.836,-1.13,-0.257,-75.305,-56.585,-3.78,16_10_2.csv
2018-07-12T11:13:24.269572,-0.396,-0.234,0.077,60.366,31.707,64.207,16_10_2.csv
2018-07-12T11:13:24.309680,-0.396,-0.234,0.077,-14.207,-50.549,14.329,16_10_2.csv
2018-07-12T11:13:24.374858,0.304,-0.016,0.166,-27.683,-85.61,-1.341,16_10_2.csv
2018-07-12T11:13:24.418976,0.304,-0.016,0.166,48.11,24.268,1.707,16_10_2.csv
2018-07-12T11:13:24.468111,-0.029,-0.094,0.031,58.841,-7.866,26.646,16_10_2.csv
2018-07-12T11:13:24.511227,-0.072,-0.154,0.063,39.39,2.927,8.476,16_10_2.csv
2018-07-12T11:13:24.571391,-0.072,-0.154,0.063,40.0,44.939,-11.89,16_10_2.csv
2018-07-12T11:13:24.634560,-1.696,-0.625,-0.067,38.598,53.11,1.159,16_10_2.csv
2018-07-12T11:13:24.683691,-2.808,-0.881,-0.331,-18.659,-47.195,-11.585,16_10_2.csv
2018-07-12T11:13:24.735329,-2.808,-0.881,-0.331,-56.951,-38.841,-47.317,16_10_2.csv
2018-07-12T11:13:24.793484,-1.972,-0.705,-0.262,-47.866,-27.866,8.902,16_10_2.csv
2018-07-12T11:13:24.840610,-0.452,-0.256,-0.152,-107.012,-38.78,30.488,16_10_2.csv
2018-07-12T11:13:24.898765,-0.452,-0.256,-0.152,-188.11,-167.439,48.598,16_10_2.csv
2018-07-12T11:13:24.964942,0.462,-0.418,0.158,83.232,69.024,20.854,16_10_2.csv
2018-07-12T11:13:25.012068,-0.088,-0.11,0.09,154.756,123.842,-2.317,16_10_2.csv
2018-07-12T11:13:25.059194,-0.088,-0.11,0.09,81.28,6.037,8.659,16_10_2.csv
2018-07-12T11:13:25.107323,-0.024,-0.098,0.11,-2.5,-28.476,-5.427,16_10_2.csv
2018-07-12T11:13:25.173500,-1.702,-0.778,-0.115,30.061,112.378,-36.829,16_10_2.csv
2018-07-12T11:13:25.226641,-1.702,-0.778,-0.115,50.732,105.305,4.085,16_10_2.csv
2018-07-12T11:13:25.399606,-0.216,-0.323,0.202,44.024,-7.378,69.329,16_10_2.csv
2018-07-12T11:13:25.455760,-0.216,-0.323,0.202,-7.439,-82.317,10.122,16_10_2.csv
2018-07-12T11:13:25.502886,0.213,-0.086,0.127,-1.829,-71.098,-19.39,16_10_2.csv
2018-07-12T11:13:25.558537,0.042,-0.096,0.043,32.012,0.122,-8.902,16_10_2.csv
2018-07-12T11:13:25.628223,0.042,-0.096,0.043,54.085,-2.561,4.878,16_10_2.csv
2018-07-12T11:13:25.675349,-0.172,-0.217,0.021,115.427,67.256,-3.72,16_10_2.csv
2018-07-12T11:13:25.751051,-1.944,-0.58,-0.177,86.524,142.622,-9.695,16_10_2.csv
2018-07-12T11:13:25.809708,-2.626,-0.778,-0.266,-38.72,-1.707,-20.671,16_10_2.csv
2018-07-12T11:13:25.857837,-2.626,-0.778,-0.266,-95.061,-31.28,-83.841,16_10_2.csv
2018-07-12T11:13:25.903458,-2.021,-0.871,-0.119,-79.329,-65.305,-73.72,16_10_2.csv
2018-07-12T11:13:25.961112,-0.45,-0.411,0.135,-52.622,-14.39,53.902,16_10_2.csv
2018-07-12T11:13:26.027289,-0.45,-0.411,0.135,-49.939,-103.537,67.927,16_10_2.csv
2018-07-12T11:13:26.090959,0.38,-0.111,0.172,72.866,48.902,2.805,16_10_2.csv
2018-07-12T11:13:26.137082,-0.031,-0.077,0.096,59.512,32.683,15.244,16_10_2.csv
2018-07-12T11:13:26.185712,-0.031,-0.077,0.096,25.366,-34.024,23.963,16_10_2.csv
2018-07-12T11:13:26.238855,0.014,-0.181,0.091,20.244,2.134,-28.963,16_10_2.csv
2018-07-12T11:13:26.324082,-1.398,-0.526,-0.087,11.89,83.598,-43.841,16_10_2.csv
2018-07-12T11:13:26.387251,-2.655,-0.841,-0.361,-36.768,-44.573,-13.902,16_10_2.csv
2018-07-12T11:13:26.453929,-2.328,-0.92,-0.265,-27.866,3.049,-12.622,16_10_2.csv
2018-07-12T11:13:26.501556,-2.328,-0.92,-0.265,-17.317,-12.744,-3.293,16_10_2.csv
2018-07-12T11:13:26.546677,-0.675,-0.314,0.087,-82.256,-12.256,7.805,16_10_2.csv
2018-07-12T11:13:26.589792,-0.675,-0.314,0.087,-129.695,-94.268,58.72,16_10_2.csv
2018-07-12T11:13:26.910161,-1.037,-0.514,0.003,102.073,146.524,-30.061,16_10_2.csv
2018-07-12T11:13:26.974836,-3.176,-0.774,-0.565,-32.256,-56.89,-20.244,16_10_2.csv
2018-07-12T11:13:27.043025,-2.212,-0.721,-0.183,-88.232,-21.098,-30.061,16_10_2.csv
2018-07-12T11:13:27.098172,-0.43,-0.469,0.292,-65.061,-60.0,40.427,16_10_2.csv
2018-07-12T11:13:27.152322,-0.43,-0.469,0.292,-95.244,-98.902,33.72,16_10_2.csv
2018-07-12T11:13:27.209978,0.363,-0.281,0.192,88.354,50.793,-20.122,16_10_2.csv
2018-07-12T11:13:27.262621,-0.007,-0.064,0.065,123.232,32.744,-2.5,16_10_2.csv
2018-07-12T11:13:27.310250,-0.007,-0.064,0.065,92.134,-2.988,14.817,16_10_2.csv
2018-07-12T11:13:27.366400,-0.02,-0.117,0.09,79.756,15.976,-19.695,16_10_2.csv
2018-07-12T11:13:27.423553,-1.377,-0.5,-0.064,62.195,58.963,-37.134,16_10_2.csv
2018-07-12T11:13:27.485218,-3.08,-0.9,-0.449,-29.695,-39.756,7.805,16_10_2.csv
2018-07-12T11:13:27.543373,-3.08,-0.9,-0.449,-153.598,-74.939,-44.939,16_10_2.csv
2018-07-12T11:13:27.592003,-1.968,-1.001,-0.05,-117.012,-9.451,-10.915,16_10_2.csv
2018-07-12T11:13:27.655673,-0.271,-0.456,0.195,-37.866,-21.463,75.976,16_10_2.csv
2018-07-12T11:13:27.720346,-0.271,-0.456,0.195,-119.695,-85.854,32.134,16_10_2.csv
2018-07-12T11:13:27.785520,0.369,-0.353,0.2,95.671,73.049,-29.756,16_10_2.csv
2018-07-12T11:13:27.839163,-0.028,-0.051,0.246,108.902,47.744,0.671,16_10_2.csv
2018-07-12T11:13:27.886791,-0.149,-0.205,0.139,84.329,8.415,23.232,16_10_2.csv
2018-07-12T11:13:27.940434,-0.149,-0.205,0.139,42.988,0.183,-7.378,16_10_2.csv
2018-07-12T11:13:27.985554,-1.492,-0.679,-0.104,32.683,55.671,-55.793,16_10_2.csv
2018-07-12T11:13:28.322481,0.405,-0.297,0.137,-39.39,-78.354,41.28,16_10_2.csv
2018-07-12T11:13:28.392668,-0.044,-0.049,0.104,102.134,73.659,-21.646,16_10_2.csv
2018-07-12T11:13:28.452834,-0.061,-0.189,0.077,-28.963,-34.085,-12.378,16_10_2.csv
2018-07-12T11:13:28.500963,-0.061,-0.189,0.077,-3.841,10.122,-34.756,16_10_2.csv
2018-07-12T11:13:28.549094,-1.426,-0.658,-0.039,54.207,86.585,-50.976,16_10_2.csv
2018-07-12T11:13:28.591207,-1.426,-0.658,-0.039,99.817,103.415,-19.756,16_10_2.csv
2018-07-12T11:13:28.659393,-3.231,-0.785,-0.456,-118.537,-75.671,-30.061,16_10_2.csv
2018-07-12T11:13:28.734598,-1.811,-0.806,-0.131,-86.524,-29.756,34.634,16_10_2.csv
2018-07-12T11:13:28.792753,0.093,-0.391,0.248,-31.829,-41.159,58.78,16_10_2.csv
2018-07-12T11:13:28.842386,0.093,-0.391,0.248,-17.073,-47.927,28.902,16_10_2.csv
2018-07-12T11:13:28.888008,0.253,-0.129,0.181,17.439,3.659,-9.573,16_10_2.csv
2018-07-12T11:13:28.939144,-0.053,-0.08,0.067,37.5,-18.11,-5.366,16_10_2.csv
2018-07-12T11:13:28.997300,-0.053,-0.08,0.067,-13.11,-30.366,-11.28,16_10_2.csv
2018-07-12T11:13:29.054452,-0.114,-0.239,0.104,62.805,52.805,-32.195,16_10_2.csv
2018-07-12T11:13:29.106591,-2.458,-0.809,-0.229,83.171,122.134,-32.439,16_10_2.csv
2018-07-12T11:13:29.156726,-2.458,-0.809,-0.229,42.378,18.78,15.793,16_10_2.csv
2018-07-12T11:13:29.201846,-2.951,-1.055,-0.266,-112.073,-78.659,-39.39,16_10_2.csv
2018-07-12T11:13:29.251980,-2.951,-1.055,-0.266,-155.305,-48.476,-54.939,16_10_2.csv
2018-07-12T11:13:29.343224,0.341,-0.272,0.222,-39.39,-84.451,44.329,16_10_2.csv
2018-07-12T11:13:29.613953,-0.333,-0.251,0.104,31.585,12.805,-40.122,16_10_2.csv
2018-07-12T11:13:29.668600,-2.583,-0.887,-0.19,35.061,66.646,-39.39,16_10_2.csv
2018-07-12T11:13:29.717732,-2.583,-0.887,-0.19,-23.476,-31.707,-4.207,16_10_2.csv
2018-07-12T11:13:29.767866,-2.773,-1.161,-0.208,-129.085,-56.585,-45.61,16_10_2.csv
2018-07-12T11:13:29.824015,-1.023,-0.678,-0.057,5.0,0.976,67.683,16_10_2.csv
2018-07-12T11:13:29.902224,0.318,-0.318,0.17,-66.22,-77.927,42.988,16_10_2.csv
2018-07-12T11:13:29.963889,0.318,-0.318,0.17,15.366,-12.195,0.427,16_10_2.csv
2018-07-12T11:13:30.026557,0.056,-0.052,0.196,114.756,62.927,-14.939,16_10_2.csv
2018-07-12T11:13:30.076189,-0.059,0.025,0.164,23.354,-38.476,-0.122,16_10_2.csv
2018-07-12T11:13:30.137353,-0.472,-0.396,0.093,9.085,13.659,-15.61,16_10_2.csv
2018-07-12T11:13:30.200020,-0.472,-0.396,0.093,42.805,84.695,-25.244,16_10_2.csv
2018-07-12T11:13:30.262186,-2.955,-1.099,-0.399,-47.805,-49.085,7.439,16_10_2.csv
2018-07-12T11:13:30.309312,-2.552,-1.145,-0.314,-168.903,-50.671,-64.451,16_10_2.csv
2018-07-12T11:13:30.356940,-2.552,-1.145,-0.314,-59.146,-2.805,6.768,16_10_2.csv
2018-07-12T11:13:30.402561,-0.44,-0.417,0.178,15.366,25.0,80.427,16_10_2.csv
2018-07-12T11:13:30.467234,0.495,-0.304,0.315,-173.659,-123.11,-36.22,16_10_2.csv
2018-07-12T11:13:30.524387,0.495,-0.304,0.315,67.256,21.646,-3.598,16_10_2.csv
2018-07-12T11:13:30.573016,-0.008,-0.106,0.055,168.903,78.72,2.866,16_10_2.csv
2018-07-12T11:13:30.624153,-0.039,-0.083,0.076,89.085,8.171,21.524,16_10_2.csv
2018-07-12T11:13:30.677295,-0.039,-0.083,0.076,62.622,27.195,-9.451,16_10_2.csv
2018-07-12T11:13:31.038772,0.145,-0.296,-0.012,143.963,80.427,2.744,16_10_2.csv
2018-07-12T11:13:31.103951,-0.011,-0.083,-0.019,49.695,-39.756,18.049,16_10_2.csv
2018-07-12T11:13:31.160101,-0.011,-0.083,-0.019,15.0,-3.11,8.659,16_10_2.csv
2018-07-12T11:13:31.220765,-0.204,-0.299,0.165,68.354,52.805,-13.841,16_10_2.csv
2018-07-12T11:13:31.276915,-2.38,-0.63,-0.174,92.927,130.244,-44.817,16_10_2.csv
2018-07-12T11:13:31.341086,-2.38,-0.63,-0.174,27.256,-38.659,-18.963,16_10_2.csv
2018-07-12T11:13:31.406261,-2.891,-0.834,-0.261,-51.951,4.512,-47.988,16_10_2.csv
2018-07-12T11:13:31.463915,-1.482,-0.175,-0.08,-148.293,10.61,35.183,16_10_2.csv
2018-07-12T11:13:31.519062,0.228,-0.292,0.149,-245.61,-128.11,28.841,16_10_2.csv
2018-07-12T11:13:31.575212,0.228,-0.292,0.149,-63.11,-100.061,40.915,16_10_2.csv
2018-07-12T11:13:31.622338,0.089,-0.253,0.044,51.037,60.732,7.988,16_10_2.csv
2018-07-12T11:13:31.669464,-0.035,-0.181,0.025,5.183,-14.451,-7.561,16_10_2.csv
2018-07-12T11:13:31.730628,-0.035,-0.181,0.025,42.012,28.11,-20.671,16_10_2.csv
2018-07-12T11:13:31.798809,-0.497,-0.346,0.073,93.232,139.512,-40.976,16_10_2.csv
2018-07-12T11:13:31.854959,-2.872,-0.739,-0.543,99.573,81.037,9.451,16_10_2.csv
2018-07-12T11:13:31.902085,-2.872,-0.739,-0.543,23.049,-51.524,23.415,16_10_2.csv
2018-07-12T11:13:31.951217,-2.646,-0.881,-0.333,-53.902,-11.829,13.232,16_10_2.csv
2018-07-12T11:13:31.995836,-0.755,-0.534,-0.016,-39.146,-48.963,47.134,16_10_2.csv
2018-07-12T11:13:32.069533,0.478,-0.367,0.16,-63.841,-93.72,34.878,16_10_2.csv
2018-07-12T11:13:32.154259,0.072,-0.159,-0.043,141.585,26.524,7.378,16_10_2.csv
2018-07-12T11:13:32.230964,-0.068,-0.208,0.008,-15.183,-37.012,-7.134,16_10_2.csv
2018-07-12T11:13:32.277588,-0.068,-0.208,0.008,-4.146,-31.524,-29.512,16_10_2.csv
2018-07-12T11:13:32.325717,-0.833,-0.534,-0.01,47.561,97.317,-81.22,16_10_2.csv
2018-07-12T11:13:32.373345,-0.833,-0.534,-0.01,121.646,166.646,-91.829,16_10_2.csv
2018-07-12T11:13:32.435510,-2.853,-0.608,-0.457,42.805,-44.939,-25.122,16_10_2.csv
2018-07-12T11:13:32.496172,-2.522,-0.728,-0.32,-43.902,-21.341,-0.854,16_10_2.csv
2018-07-12T11:13:32.559842,-1.003,-0.598,-0.02,-79.512,-31.22,51.098,16_10_2.csv
2018-07-12T11:13:32.604964,-1.003,-0.598,-0.02,-117.561,-69.024,67.134,16_10_2.csv
2018-07-12T11:13:32.654095,0.283,-0.421,0.287,-87.195,-61.524,69.817,16_10_2.csv
2018-07-12T11:13:32.700719,0.283,-0.421,0.287,-20.854,-14.817,6.341,16_10_2.csv
2018-07-12T11:13:32.758874,0.121,-0.208,0.213,30.305,5.427,-25.671,16_10_2.csv
2018-07-12T11:13:32.823547,-0.017,-0.217,0.099,17.439,-28.049,-13.659,16_10_2.csv
2018-07-12T11:13:32.888721,-0.337,-0.439,0.061,55.488,17.073,-31.28,16_10_2.csv
2018-07-12T11:13:32.932338,-0.337,-0.439,0.061,91.524,95.549,-59.329,16_10_2.csv
2018-07-12T11:13:32.981970,-2.572,-1.012,-0.382,127.5,88.659,-53.171,16_10_2.csv
2018-07-12T11:13:33.026590,-2.572,-1.012,-0.382,96.951,4.695,-25.427,16_10_2.csv
2018-07-12T11:13:33.091764,-2.63,-0.847,-0.33,-148.781,-37.988,-105.549,16_10_2.csv
2018-07-12T11:13:33.143402,-1.104,-0.688,0.133,-44.207,24.39,66.707,16_10_2.csv
2018-07-12T11:13:33.200053,-0.084,-0.375,0.273,-89.756,-49.695,99.512,16_10_2.csv
2018-07-12T11:13:33.248683,-0.084,-0.375,0.273,-117.378,-131.646,44.268,16_10_2.csv
2018-07-12T11:13:33.296311,0.204,-0.233,0.081,39.817,-15.854,-5.366,16_10_2.csv
2018-07-12T11:13:33.342433,0.204,-0.233,0.081,107.988,72.317,-12.317,16_10_2.csv
2018-07-12T11:13:33.401592,-0.074,-0.059,-0.009,-0.122,-28.415,6.463,16_10_2.csv
2018-07-12T11:13:33.523417,-2.734,-0.936,-0.371,73.415,132.683,-28.537,16_10_2.csv
2018-07-12T11:13:33.574554,-2.734,-0.936,-0.371,-25.61,-16.159,-37.805,16_10_2.csv
2018-07-12T11:13:33.622682,-2.708,-1.243,-0.329,-117.988,-60.305,-59.695,16_10_2.csv
2018-07-12T11:13:33.671312,-2.708,-1.243,-0.329,-82.683,-45.366,0.549,16_10_2.csv
2018-07-12T11:13:33.719945,-0.729,-0.563,0.131,-136.585,-60.061,2.256,16_10_2.csv
2018-07-12T11:13:33.770079,0.458,-0.156,0.263,-112.622,-111.402,-24.573,16_10_2.csv
2018-07-12T11:13:33.823226,0.458,-0.156,0.263,77.988,14.085,12.134,16_10_2.csv
2018-07-12T11:13:33.869350,0.089,-0.086,0.047,111.646,39.268,46.768,16_10_2.csv
2018-07-12T11:13:33.918487,-0.004,-0.199,0.077,93.598,14.695,41.646,16_10_2.csv
2018-07-12T11:13:33.963608,-0.004,-0.199,0.077,91.646,34.756,-4.329,16_10_2.csv
2018-07-12T11:13:34.011742,-0.81,-0.365,-0.023,94.207,56.402,-31.585,16_10_2.csv
2018-07-12T11:13:34.056862,-0.81,-0.365,-0.023,72.012,126.281,-32.378,16_10_2.csv
2018-07-12T11:13:34.102991,-3.096,-0.938,-0.576,3.354,42.378,22.134,16_10_2.csv
2018-07-12T11:13:34.152122,-3.096,-0.938,-0.576,-98.415,-46.585,-17.012,16_10_2.csv
2018-07-12T11:13:34.198251,-2.293,-1.146,-0.16,11.768,37.744,19.939,16_10_2.csv
2018-07-12T11:13:34.262423,-0.493,-0.461,0.082,-45.305,-19.939,52.378,16_10_2.csv
2018-07-12T11:13:34.336623,0.408,-0.233,0.102,-39.451,-112.622,13.963,16_10_2.csv
2018-07-12T11:13:34.386757,0.408,-0.233,0.102,95.915,44.207,-20.183,16_10_2.csv
2018-07-12T11:13:34.432881,-0.064,0.039,0.209,133.049,96.951,-1.159,16_10_2.csv
2018-07-12T11:13:34.483516,-0.032,-0.115,0.117,33.232,-2.927,21.037,16_10_2.csv
2018-07-12T11:13:34.528636,-0.032,-0.115,0.117,49.268,14.024,-13.049,16_10_2.csv
2018-07-12T11:13:34.589298,-0.943,-0.419,-0.022,50.61,53.537,-34.756,16_10_2.csv
2018-07-12T11:13:34.649960,-3.206,-0.866,-0.666,19.939,9.939,33.232,16_10_2.csv
2018-07-12T11:13:34.701097,-3.206,-0.866,-0.666,-81.646,-98.78,-9.085,16_10_2.csv
2018-07-12T11:13:34.746218,-2.409,-0.962,-0.383,-119.268,-67.866,-21.951,16_10_2.csv
2018-07-12T11:13:34.792842,-2.409,-0.962,-0.383,-66.524,-19.451,0.427,16_10_2.csv
2018-07-12T11:13:35.217492,-3.071,-0.711,-0.547,64.634,55.061,4.451,16_10_2.csv
2018-07-12T11:13:35.292696,-2.516,-0.845,-0.264,-127.561,-64.085,-72.317,16_10_2.csv
2018-07-12T11:13:35.363888,-2.516,-0.845,-0.264,-84.878,-6.159,-5.732,16_10_2.csv
2018-07-12T11:13:35.418535,-0.928,-0.455,0.016,-137.012,-117.988,58.11,16_10_2.csv
2018-07-12T11:13:35.464658,0.558,-0.305,0.214,-156.037,-179.207,23.902,16_10_2.csv
2018-07-12T11:13:35.515293,0.558,-0.305,0.214,4.573,-31.707,43.659,16_10_2.csv
2018-07-12T11:13:35.563421,0.068,-0.16,-0.009,117.256,60.793,-16.037,16_10_2.csv
2018-07-12T11:13:35.622078,-0.028,-0.125,0.151,46.524,-19.512,16.646,16_10_2.csv
2018-07-12T11:13:35.681236,-0.028,-0.125,0.151,61.829,20.366,-19.695,16_10_2.csv
2018-07-12T11:13:35.730368,-0.75,-0.425,0.074,97.073,139.085,-89.085,16_10_2.csv
2018-07-12T11:13:35.780501,-3.229,-0.753,-0.616,43.232,66.037,-35.793,16_10_2.csv
2018-07-12T11:13:35.825622,-3.229,-0.753,-0.616,-74.39,-78.415,-49.573,16_10_2.csv
2018-07-12T11:13:35.875254,-2.277,-1.041,-0.18,-132.012,-59.878,-43.049,16_10_2.csv
2018-07-12T11:13:35.933911,-0.534,-0.625,0.092,25.366,17.5,153.11,16_10_2.csv
2018-07-12T11:13:35.993571,-0.534,-0.625,0.092,-76.89,-93.598,92.744,16_10_2.csv
2018-07-12T11:13:36.049219,0.376,-0.405,0.093,2.317,5.183,15.671,16_10_2.csv
2018-07-12T11:13:36.090831,-0.009,-0.205,0.126,67.805,64.573,-17.317,16_10_2.csv
2018-07-12T11:13:36.139962,-0.009,-0.205,0.126,59.756,35.793,-7.256,16_10_2.csv
2018-07-12T11:13:36.187589,-0.061,-0.082,0.199,60.549,26.89,-3.841,16_10_2.csv
2018-07-12T11:13:36.371275,-3.545,-0.622,-0.665,-104.329,-142.378,-89.024,16_10_2.csv
2018-07-12T11:13:36.441965,-2.103,-0.589,-0.045,-132.134,-13.72,-108.659,16_10_2.csv
2018-07-12T11:13:36.516164,0.121,-0.279,0.263,-101.646,-121.646,24.207,16_10_2.csv
2018-07-12T11:13:36.558777,0.121,-0.279,0.263,-119.329,-128.171,-0.854,16_10_2.csv
2018-07-12T11:13:36.608912,0.28,-0.203,0.141,41.28,50.366,-13.476,16_10_2.csv
2018-07-12T11:13:36.657040,-0.112,-0.041,0.075,118.659,25.305,12.439,16_10_2.csv
2018-07-12T11:13:36.716198,-0.112,-0.041,0.075,32.561,-9.695,14.939,16_10_2.csv
2018-07-12T11:13:36.777361,-0.047,-0.173,0.144,52.378,15.366,-35.671,16_10_2.csv
2018-07-12T11:13:36.824487,-1.825,-0.529,-0.078,82.622,77.988,-49.939,16_10_2.csv
2018-07-12T11:13:36.872114,-1.825,-0.529,-0.078,61.829,45.122,-8.537,16_10_2.csv
2018-07-12T11:13:36.920243,-3.324,-0.779,-0.435,-63.659,-78.171,-10.183,16_10_2.csv
2018-07-12T11:13:36.964361,-3.324,-0.779,-0.435,-164.695,-59.817,-16.951,16_10_2.csv
2018-07-12T11:13:37.032042,-1.867,-0.838,-0.125,-61.28,2.561,83.293,16_10_2.csv
2018-07-12T11:13:37.080170,0.086,-0.521,0.344,-96.402,-70.488,77.195,16_10_2.csv
2018-07-12T11:13:37.141835,0.378,-0.29,0.23,81.22,22.683,37.439,16_10_2.csv
2018-07-12T11:13:37.190465,0.378,-0.29,0.23,116.098,70.0,-5.244,16_10_2.csv
2018-07-12T11:13:37.247618,-0.085,-0.183,0.084,46.524,-18.537,6.159,16_10_2.csv
2018-07-12T11:13:37.298253,-0.041,-0.377,0.103,-31.098,-6.89,-47.5,16_10_2.csv
2018-07-12T11:13:37.357912,-0.041,-0.377,0.103,47.744,40.366,-79.024,16_10_2.csv
2018-07-12T11:13:37.420078,-2.257,-0.718,-0.192,93.171,36.159,-43.598,16_10_2.csv
2018-07-12T11:13:37.472218,-3.129,-0.849,-0.224,-42.866,-55.61,-54.146,16_10_2.csv
2018-07-12T11:13:37.527365,-3.129,-0.849,-0.224,-103.415,-14.207,-52.561,16_10_2.csv
2018-07-12T11:13:37.607581,-1.368,-0.564,-0.107,-95.488,-94.024,78.049,16_10_2.csv
2018-07-12T11:13:37.703840,-0.021,-0.247,0.129,143.902,143.171,-36.585,16_10_2.csv
2018-07-12T11:13:37.770019,-0.021,-0.247,0.129,154.268,27.561,21.829,16_10_2.csv
2018-07-12T11:13:37.819654,-0.02,-0.091,0.08,11.829,24.024,-4.573,16_10_2.csv
2018-07-12T11:13:37.876305,-0.421,-0.278,0.146,58.049,60.122,-43.293,16_10_2.csv
2018-07-12T11:13:37.917916,-0.421,-0.278,0.146,76.098,65.122,-52.744,16_10_2.csv
2018-07-12T11:13:37.969555,-2.716,-0.768,-0.291,45.732,42.195,-43.72,16_10_2.csv
2018-07-12T11:13:38.011667,-2.716,-0.768,-0.291,-59.329,-46.524,-6.22,16_10_2.csv
2018-07-12T11:13:38.070825,-2.879,-1.098,-0.191,-68.598,20.61,16.22,16_10_2.csv
2018-07-12T11:13:38.132991,-0.808,-0.544,0.034,-50.671,-3.841,86.341,16_10_2.csv
2018-07-12T11:13:38.184128,0.626,-0.392,0.294,-143.354,-110.671,50.976,16_10_2.csv
2018-07-12T11:13:38.230752,0.626,-0.392,0.294,48.415,73.598,-9.634,16_10_2.csv
2018-07-12T11:13:38.279383,-0.101,-0.118,0.028,116.951,76.768,-11.768,16_10_2.csv
2018-07-12T11:13:38.325004,-0.101,-0.118,0.028,68.659,-36.159,39.146,16_10_2.csv
2018-07-12T11:13:38.389677,0.029,-0.202,0.058,29.024,27.195,-29.268,16_10_2.csv
2018-07-12T11:13:38.439309,-0.794,-0.463,0.061,77.561,62.866,-51.585,16_10_2.csv
2018-07-12T11:13:38.497966,-0.794,-0.463,0.061,99.695,111.402,-52.256,16_10_2.csv
2018-07-12T11:13:38.544591,-2.862,-0.79,-0.3,-50.671,-50.0,-29.939,16_10_2.csv
2018-07-12T11:13:38.592218,-2.554,-0.917,-0.156,-74.756,-13.72,-57.012,16_10_2.csv
2018-07-12T11:13:38.640848,-2.554,-0.917,-0.156,-8.537,39.939,-1.646,16_10_2.csv
2018-07-12T11:13:38.707024,-0.869,-0.424,0.079,-83.78,-61.22,52.866,16_10_2.csv
2018-07-12T11:13:38.777212,0.452,-0.255,0.405,-55.305,-63.354,43.963,16_10_2.csv
2018-07-12T11:13:38.840882,0.056,-0.085,0.153,97.012,39.207,-7.5,16_10_2.csv
2018-07-12T11:13:38.887507,0.056,-0.085,0.153,57.317,-18.841,23.049,16_10_2.csv
2018-07-12T11:13:38.936137,-0.053,-0.202,0.09,55.61,5.366,11.646,16_10_2.csv
2018-07-12T11:13:39.074508,-3.128,-0.819,-0.433,22.195,-27.073,-13.171,16_10_2.csv
2018-07-12T11:13:39.139685,-3.128,-0.819,-0.433,-105.671,-88.232,-66.89,16_10_2.csv
2018-07-12T11:13:39.215390,-2.243,-0.998,-0.065,-8.171,16.951,54.939,16_10_2.csv
2018-07-12T11:13:39.281066,-0.195,-0.394,0.191,-81.159,-97.317,57.256,16_10_2.csv
2018-07-12T11:13:39.324181,0.429,-0.107,0.184,-23.902,-31.463,27.439,16_10_2.csv
2018-07-12T11:13:39.380832,0.429,-0.107,0.184,46.89,64.451,-24.329,16_10_2.csv
2018-07-12T11:13:39.455532,-0.094,-0.059,0.143,-0.366,-41.829,36.768,16_10_2.csv
2018-07-12T11:13:39.516695,-0.071,-0.22,0.157,41.768,37.927,-30.976,16_10_2.csv
2018-07-12T11:13:39.560311,-1.886,-0.689,-0.177,46.707,94.329,-57.805,16_10_2.csv
2018-07-12T11:13:39.610446,-1.886,-0.689,-0.177,15.366,39.634,-36.22,16_10_2.csv
2018-07-12T11:13:39.658574,-2.991,-1.126,-0.39,-94.329,-87.378,-65.427,16_10_2.csv
2018-07-12T11:13:39.722746,-1.563,-0.561,-0.078,44.634,62.378,29.085,16_10_2.csv
2018-07-12T11:13:39.790928,0.202,-0.251,0.058,-291.463,-200.976,-14.817,16_10_2.csv
2018-07-12T11:13:39.841062,0.202,-0.251,0.058,-211.524,-150.488,42.378,16_10_2.csv
2018-07-12T11:13:39.890695,0.325,-0.342,0.212,-18.476,10.61,18.537,16_10_2.csv
2018-07-12T11:13:39.936818,0.325,-0.342,0.212,108.11,103.476,17.805,16_10_2.csv
2018-07-12T11:13:39.985448,-0.099,-0.222,0.126,130.427,23.476,57.195,16_10_2.csv
2018-07-12T11:13:40.049619,-0.398,-0.299,0.116,79.634,36.402,-33.72,16_10_2.csv
2018-07-12T11:13:40.101257,-0.398,-0.299,0.116,62.073,70.305,-62.561,16_10_2.csv
2018-07-12T11:13:40.170943,-2.908,-1.064,-0.433,-29.451,-22.744,-56.524,16_10_2.csv
2018-07-12T11:13:40.221077,-2.493,-1.385,-0.375,-92.134,-49.939,-91.037,16_10_2.csv
2018-07-12T11:13:40.282241,-0.032,-0.252,0.245,147.317,-40.976,-18.72,16_10_2.csv
2018-07-12T11:13:40.356940,0.4,-0.053,0.19,39.573,9.878,58.415,16_10_2.csv
2018-07-12T11:13:40.418605,0.4,-0.053,0.19,100.427,92.622,41.341,16_10_2.csv
2018-07-12T11:13:40.467738,-0.24,-0.156,0.216,80.122,118.659,46.28,16_10_2.csv
2018-07-12T11:13:40.525893,-0.215,-0.048,0.232,49.268,23.293,24.085,16_10_2.csv
2018-07-12T11:13:40.573022,-0.215,-0.048,0.232,22.378,-13.354,-4.085,16_10_2.csv
2018-07-12T11:13:40.621151,-1.423,-0.443,-0.085,41.098,84.939,-28.659,16_10_2.csv
2018-07-12T11:13:40.668281,-1.423,-0.443,-0.085,70.61,104.024,3.476,16_10_2.csv
2018-07-12T11:13:40.731450,-3.212,-0.708,-0.688,-160.549,-115.122,33.476,16_10_2.csv
2018-07-12T11:13:40.790610,-1.929,-1.03,-0.063,-137.744,5.366,18.293,16_10_2.csv
2018-07-12T11:13:40.842248,-0.34,-0.325,0.109,9.756,-16.585,97.378,16_10_2.csv
2018-07-12T11:13:40.889875,-0.34,-0.325,0.109,-147.439,-136.707,34.451,16_10_2.csv
2018-07-12T11:13:40.940510,0.509,-0.414,0.242,-166.22,-104.39,4.146,16_10_2.csv
2018-07-12T11:13:40.986634,0.509,-0.414,0.242,2.073,33.841,-11.463,16_10_2.csv
2018-07-12T11:13:41.046794,-0.108,-0.33,0.201,163.049,10.732,-3.537,16_10_2.csv
2018-07-12T11:13:41.115979,-0.138,-0.058,0.177,39.085,-3.415,-59.451,16_10_2.csv
2018-07-12T11:13:41.169622,-1.865,-0.587,-0.178,22.744,64.451,-82.988,16_10_2.csv
2018-07-12T11:13:41.215244,-1.865,-0.587,-0.178,23.659,15.427,-38.598,16_10_2.csv
2018-07-12T11:13:41.271896,-3.075,-0.922,-0.557,-51.098,-92.683,-41.585,16_10_2.csv
2018-07-12T11:13:41.327043,-1.716,-0.936,0.037,158.963,-16.646,-61.159,16_10_2.csv
2018-07-12T11:13:41.391716,-1.716,-0.936,0.037,258.598,-4.451,-29.268,16_10_2.csv
2018-07-12T11:13:41.446361,0.377,0.081,0.418,-109.146,-46.646,71.951,16_10_2.csv
2018-07-12T11:13:41.502512,0.337,0.291,0.216,-69.207,18.476,5.305,16_10_2.csv
2018-07-12T11:13:41.550640,0.337,0.291,0.216,-153.476,2.012,76.22,16_10_2.csv
