time,accel_x_list,accel_y_list,accel_z_list,gyro_x_list,gyro_y_list,gyro_z_list,filename
2018-07-12T11:12:18.861537,-0.956,-0.396,0.023,5.549,2.805,1.037,16_10_1.csv
2018-07-12T11:12:18.917186,-0.96,-0.391,0.017,7.012,3.659,0.915,16_10_1.csv
2018-07-12T11:12:18.966317,-0.96,-0.391,0.017,5.488,1.646,0.488,16_10_1.csv
2018-07-12T11:12:19.012942,-0.94,-0.385,0.004,3.049,1.28,-1.22,16_10_1.csv
2018-07-12T11:12:19.077614,-0.894,-0.364,0.0,4.024,2.805,-1.22,16_10_1.csv
2018-07-12T11:12:19.132261,-0.894,-0.364,0.0,3.537,5.0,-0.793,16_10_1.csv
2018-07-12T11:12:19.187909,-0.787,-0.326,0.036,-0.366,-1.524,-2.134,16_10_1.csv
2018-07-12T11:12:19.229520,-0.829,-0.337,0.147,-25.0,-30.244,-15.366,16_10_1.csv
2018-07-12T11:12:19.280155,-0.829,-0.337,0.147,-14.39,-57.805,-14.573,16_10_1.csv
2018-07-12T11:12:19.362375,-1.772,-0.548,-0.151,16.159,2.256,7.5,16_10_1.csv
2018-07-12T11:12:19.436072,-1.707,-0.613,-0.256,-128.049,-32.927,-30.427,16_10_1.csv
2018-07-12T11:12:19.484201,-0.516,-0.554,-0.001,-124.146,-28.902,24.939,16_10_1.csv
2018-07-12T11:12:19.544361,0.273,-0.2,0.301,-68.659,-22.439,-15.305,16_10_1.csv
2018-07-12T11:12:19.592991,0.273,-0.2,0.301,-22.805,6.89,-26.098,16_10_1.csv
2018-07-12T11:12:19.643627,-0.129,-0.205,0.18,37.805,18.902,-22.866,16_10_1.csv
2018-07-12T11:12:19.702784,-1.87,-0.762,-0.148,26.951,81.89,9.268,16_10_1.csv
2018-07-12T11:12:19.830631,-2.569,-0.681,-0.537,-69.878,-60.122,-39.146,16_10_1.csv
2018-07-12T11:12:19.940926,-0.506,-0.448,0.076,-103.354,-82.317,1.646,16_10_1.csv
2018-07-12T11:12:19.995070,0.369,-0.234,0.354,82.195,98.232,-19.939,16_10_1.csv
2018-07-12T11:12:20.046207,-0.099,-0.1,0.086,97.073,-25.244,-7.988,16_10_1.csv
2018-07-12T11:12:20.126923,-1.074,-0.447,-0.094,49.268,47.683,-24.329,16_10_1.csv
2018-07-12T11:12:20.189590,-2.601,-0.65,-0.441,53.841,5.305,45.427,16_10_1.csv
2018-07-12T11:12:20.264792,-1.753,-0.726,-0.269,-132.988,-57.195,3.902,16_10_1.csv
2018-07-12T11:12:20.309912,-1.753,-0.726,-0.269,-135.305,-65.549,57.988,16_10_1.csv
2018-07-12T11:12:20.361549,0.17,-0.579,0.306,-53.902,-41.463,66.646,16_10_1.csv
2018-07-12T11:12:20.418702,0.17,-0.579,0.306,33.171,15.183,25.732,16_10_1.csv
2018-07-12T11:12:20.479865,0.134,-0.159,0.208,80.366,24.268,-19.756,16_10_1.csv
2018-07-12T11:12:20.546544,-0.276,-0.163,0.057,56.341,2.378,-46.951,16_10_1.csv
2018-07-12T11:12:20.651324,-2.224,-0.644,-0.188,68.78,16.22,51.89,16_10_1.csv
2018-07-12T11:12:20.698450,-2.647,-0.465,-0.45,-60.976,9.512,26.829,16_10_1.csv
2018-07-12T11:12:20.747581,-0.398,-0.638,0.148,-171.951,-82.012,20.61,16_10_1.csv
2018-07-12T11:12:20.795209,-0.398,-0.638,0.148,-50.915,-71.524,40.427,16_10_1.csv
2018-07-12T11:12:20.857375,0.304,-0.233,0.361,62.622,71.341,-14.451,16_10_1.csv
2018-07-12T11:12:20.959147,-0.078,-0.142,0.042,34.329,-24.207,-23.72,16_10_1.csv
2018-07-12T11:12:21.026827,-1.005,-0.497,-0.083,50.244,1.463,-36.707,16_10_1.csv
2018-07-12T11:12:21.075457,-2.568,-0.537,-0.339,88.902,21.037,27.195,16_10_1.csv
2018-07-12T11:12:21.122583,-2.568,-0.537,-0.339,20.061,45.122,5.976,16_10_1.csv
2018-07-12T11:12:21.169207,-1.964,-0.53,-0.218,-80.366,0.244,-19.329,16_10_1.csv
2018-07-12T11:12:21.277497,0.149,-0.498,0.313,53.963,19.268,8.659,16_10_1.csv
2018-07-12T11:12:21.346683,0.137,-0.14,0.268,64.39,67.866,-23.232,16_10_1.csv
2018-07-12T11:12:21.467003,-0.268,-0.225,0.052,44.939,10.488,-42.378,16_10_1.csv
2018-07-12T11:12:21.511121,-2.125,-0.669,-0.247,89.817,8.537,30.976,16_10_1.csv
2018-07-12T11:12:21.562257,-2.546,-0.313,-0.359,16.585,7.622,3.72,16_10_1.csv
2018-07-12T11:12:21.619911,-2.546,-0.313,-0.359,-111.342,-35.732,-42.012,16_10_1.csv
2018-07-12T11:12:21.668040,-0.661,-0.578,0.054,-176.829,-34.573,38.902,16_10_1.csv
2018-07-12T11:12:21.723187,0.21,-0.371,0.299,43.415,9.817,34.634,16_10_1.csv
2018-07-12T11:12:21.777332,0.21,-0.371,0.299,49.878,40.854,-4.085,16_10_1.csv
2018-07-12T11:12:21.824959,-0.021,-0.253,0.146,-0.183,-26.463,-26.341,16_10_1.csv
2018-07-12T11:12:21.886625,-0.87,-0.419,-0.036,80.122,19.085,-34.451,16_10_1.csv
2018-07-12T11:12:21.950796,-0.87,-0.419,-0.036,91.402,76.463,-33.841,16_10_1.csv
2018-07-12T11:12:22.010455,-2.587,-0.373,-0.324,-20.366,-31.829,-25.671,16_10_1.csv
2018-07-12T11:12:22.066104,-2.132,-0.559,-0.1,-132.744,-19.268,-37.744,16_10_1.csv
2018-07-12T11:12:22.136292,-0.189,-0.592,0.15,-102.5,-42.988,92.744,16_10_1.csv
2018-07-12T11:12:22.196953,0.32,-0.335,0.195,44.756,-6.951,6.829,16_10_1.csv
2018-07-12T11:12:22.327803,-0.153,-0.16,0.072,34.268,-24.451,-31.341,16_10_1.csv
2018-07-12T11:12:22.453137,-2.32,-0.498,-0.259,2.439,-29.512,-34.024,16_10_1.csv
2018-07-12T11:12:22.497757,-2.32,-0.498,-0.259,-57.866,-5.366,-49.878,16_10_1.csv
2018-07-12T11:12:22.545384,-1.794,-0.668,-0.071,-50.122,-15.122,9.024,16_10_1.csv
2018-07-12T11:12:22.848195,-1.577,-0.518,-0.137,-15.0,35.0,-86.28,16_10_1.csv
2018-07-12T11:12:22.909358,-1.577,-0.518,-0.137,22.073,26.463,-56.22,16_10_1.csv
2018-07-12T11:12:22.966515,-2.754,-0.534,-0.33,-35.61,3.476,-6.28,16_10_1.csv
2018-07-12T11:12:23.011636,-1.219,-0.506,-0.026,-96.28,-11.28,39.634,16_10_1.csv
2018-07-12T11:12:23.078817,0.301,-0.273,0.237,11.524,3.293,22.012,16_10_1.csv
2018-07-12T11:12:23.125442,0.301,-0.273,0.237,64.329,47.378,-15.732,16_10_1.csv
2018-07-12T11:12:23.184296,0.051,-0.085,0.199,62.256,26.402,-4.695,16_10_1.csv
2018-07-12T11:12:23.237938,0.051,-0.085,0.199,7.622,4.512,-8.537,16_10_1.csv
2018-07-12T11:12:23.311134,-0.498,-0.308,0.135,46.28,45.915,-20.427,16_10_1.csv
2018-07-12T11:12:23.360266,-2.186,-0.441,-0.145,29.634,-11.098,24.207,16_10_1.csv
2018-07-12T11:12:23.404885,-2.64,-0.501,-0.366,-58.963,5.671,-24.756,16_10_1.csv
2018-07-12T11:12:23.451509,-2.64,-0.501,-0.366,-97.256,-37.073,-22.805,16_10_1.csv
2018-07-12T11:12:23.511670,-0.935,-0.677,0.007,-97.073,-52.317,80.976,16_10_1.csv
2018-07-12T11:12:23.570828,0.275,-0.453,0.291,87.317,21.463,33.476,16_10_1.csv
2018-07-12T11:12:23.625975,0.275,-0.453,0.291,161.585,-0.976,31.707,16_10_1.csv
2018-07-12T11:12:23.688642,-0.019,-0.033,0.102,29.878,12.317,-23.902,16_10_1.csv
2018-07-12T11:12:23.734766,-0.408,-0.277,0.05,-33.598,-91.098,-47.378,16_10_1.csv
2018-07-12T11:12:23.793422,-0.408,-0.277,0.05,-23.841,4.451,-87.073,16_10_1.csv
2018-07-12T11:12:23.858649,-2.06,-0.628,-0.214,-8.78,-65.305,-63.902,16_10_1.csv
2018-07-12T11:12:23.922820,-2.452,-0.742,-0.213,29.695,51.524,31.951,16_10_1.csv
2018-07-12T11:12:24.026597,-0.994,-0.36,0.157,-27.439,-66.159,-23.598,16_10_1.csv
2018-07-12T11:12:24.073723,0.267,-0.052,0.347,-137.683,-146.768,-85.915,16_10_1.csv
2018-07-12T11:12:24.122854,0.267,-0.052,0.347,-142.927,-96.829,-30.854,16_10_1.csv
2018-07-12T11:12:24.167474,-0.025,-0.189,0.089,-15.61,2.5,-1.28,16_10_1.csv
2018-07-12T11:12:24.229640,-0.522,-0.305,-0.037,-24.146,1.646,-15.549,16_10_1.csv
2018-07-12T11:12:24.284286,-2.193,-0.967,0.328,123.476,-78.537,-39.329,16_10_1.csv
2018-07-12T11:12:24.345449,-2.193,-0.967,0.328,77.5,-30.915,28.72,16_10_1.csv
2018-07-12T11:12:24.402100,-2.321,-1.114,0.443,-77.134,-4.207,29.451,16_10_1.csv
2018-07-12T11:12:24.450229,-0.305,-0.498,0.063,-169.634,-1.341,100.793,16_10_1.csv
2018-07-12T11:12:24.513398,-0.305,-0.498,0.063,-190.061,-38.049,63.537,16_10_1.csv
2018-07-12T11:12:24.600631,0.448,-0.316,0.099,135.0,105.61,4.085,16_10_1.csv
2018-07-12T11:12:24.667810,-0.115,-0.133,0.042,72.805,16.402,-5.976,16_10_1.csv
2018-07-12T11:12:24.729976,-0.876,-0.416,0.006,44.695,102.012,-51.402,16_10_1.csv
2018-07-12T11:12:24.777102,-2.561,-0.74,-0.212,75.427,24.329,-5.976,16_10_1.csv
2018-07-12T11:12:24.826234,-2.561,-0.74,-0.212,36.28,17.134,-4.756,16_10_1.csv
2018-07-12T11:12:24.873861,-2.199,-0.788,-0.041,-36.829,4.634,-11.341,16_10_1.csv
2018-07-12T11:12:24.966107,-0.341,-0.487,0.169,-69.207,-25.305,59.695,16_10_1.csv
2018-07-12T11:12:25.096455,-0.044,-0.116,0.079,112.073,45.61,0.061,16_10_1.csv
2018-07-12T11:12:25.171656,-0.687,-0.407,0.004,60.976,9.268,-10.427,16_10_1.csv
2018-07-12T11:12:25.281450,-2.456,-0.613,-0.264,122.073,40.122,7.927,16_10_1.csv
2018-07-12T11:12:25.365174,-2.339,-0.513,-0.151,-99.695,-49.085,-48.049,16_10_1.csv
2018-07-12T11:12:25.424833,-0.691,-0.497,0.104,-88.78,-3.171,71.159,16_10_1.csv
2018-07-12T11:12:25.495522,0.272,-0.345,0.253,-109.451,-62.439,-17.439,16_10_1.csv
2018-07-12T11:12:25.555181,0.272,-0.345,0.253,13.78,1.22,-12.073,16_10_1.csv
2018-07-12T11:12:25.609827,-0.006,-0.192,0.117,100.183,32.622,6.28,16_10_1.csv
2018-07-12T11:12:25.652943,-0.564,-0.272,0.047,72.439,10.061,-4.878,16_10_1.csv
2018-07-12T11:12:25.700569,-0.564,-0.272,0.047,54.817,74.878,-26.037,16_10_1.csv
2018-07-12T11:12:25.760730,-2.086,-0.48,-0.202,57.439,37.012,2.378,16_10_1.csv
2018-07-12T11:12:25.829413,-2.502,-0.631,-0.229,-99.146,-35.915,-53.78,16_10_1.csv
2018-07-12T11:12:25.877041,-2.502,-0.631,-0.229,-80.915,-32.988,8.598,16_10_1.csv
2018-07-12T11:12:25.939207,-0.983,-0.608,-0.001,-115.366,-47.439,67.866,16_10_1.csv
2018-07-12T11:12:25.979314,0.319,-0.627,0.302,-19.207,-39.085,64.146,16_10_1.csv
2018-07-12T11:12:26.027944,0.319,-0.627,0.302,141.646,-34.146,50.183,16_10_1.csv
2018-07-12T11:12:26.078579,-0.021,-0.112,0.093,176.037,64.39,-4.573,16_10_1.csv
2018-07-12T11:12:26.134730,-0.51,-0.085,0.025,21.768,-60.549,-69.451,16_10_1.csv
2018-07-12T11:12:26.202911,-0.51,-0.085,0.025,-23.049,-72.744,-101.646,16_10_1.csv
2018-07-12T11:12:26.310700,-2.473,-0.726,-0.243,-88.72,15.976,11.463,16_10_1.csv
2018-07-12T11:12:26.354316,-2.473,-0.726,-0.243,-126.768,14.146,54.695,16_10_1.csv
2018-07-12T11:12:26.402946,-1.304,-0.751,-0.014,-86.707,23.841,78.11,16_10_1.csv
2018-07-12T11:12:26.453581,-1.304,-0.751,-0.014,-13.841,23.598,77.622,16_10_1.csv
2018-07-12T11:12:26.573903,0.14,-0.28,0.172,-6.098,31.829,-29.329,16_10_1.csv
2018-07-12T11:12:26.653615,-0.216,-0.147,0.12,89.939,-17.744,-16.463,16_10_1.csv
2018-07-12T11:12:26.761404,-1.686,-0.529,-0.119,70.427,65.244,12.744,16_10_1.csv
2018-07-12T11:12:26.807527,-2.815,-0.609,-0.429,33.598,-31.159,27.744,16_10_1.csv
2018-07-12T11:12:26.860669,-1.527,-0.808,-0.043,-155.244,-50.61,-11.037,16_10_1.csv
2018-07-12T11:12:26.919325,-1.527,-0.808,-0.043,-77.561,-33.354,95.244,16_10_1.csv
2018-07-12T11:12:26.995529,0.225,-0.44,0.295,1.524,-41.341,23.537,16_10_1.csv
2018-07-12T11:12:27.060202,0.169,-0.234,0.126,111.281,-4.634,20.183,16_10_1.csv
2018-07-12T11:12:27.120864,0.015,-0.172,0.034,77.561,-14.634,-7.256,16_10_1.csv
2018-07-12T11:12:27.167989,0.015,-0.172,0.034,76.463,-17.927,-34.634,16_10_1.csv
2018-07-12T11:12:27.215618,-1.503,-0.443,-0.222,99.146,106.342,-58.354,16_10_1.csv
2018-07-12T11:12:27.261741,-2.674,-0.494,-0.43,-29.329,-66.768,-25.122,16_10_1.csv
2018-07-12T11:12:27.359000,-1.94,-0.861,-0.022,-111.89,24.939,-51.341,16_10_1.csv
2018-07-12T11:12:27.418660,-1.94,-0.861,-0.022,-57.866,17.256,73.415,16_10_1.csv
2018-07-12T11:12:27.481327,-0.108,-0.452,0.272,-234.085,-144.939,-73.659,16_10_1.csv
2018-07-12T11:12:27.528453,0.41,-0.422,0.174,4.939,-61.402,-6.585,16_10_1.csv
2018-07-12T11:12:27.575077,0.41,-0.422,0.174,174.512,62.683,19.512,16_10_1.csv
2018-07-12T11:12:27.620198,-0.103,-0.091,-0.011,127.683,-3.293,4.146,16_10_1.csv
2018-07-12T11:12:27.684370,-0.775,-0.267,-0.046,113.171,29.39,-25.183,16_10_1.csv
2018-07-12T11:12:27.742525,-2.667,-0.561,-0.349,60.549,7.439,9.329,16_10_1.csv
2018-07-12T11:12:27.811209,-2.667,-0.561,-0.349,-9.573,-41.28,-2.134,16_10_1.csv
2018-07-12T11:12:27.861844,-2.411,-0.655,-0.263,-83.171,-5.427,-12.317,16_10_1.csv
2018-07-12T11:12:27.918495,-0.382,-0.446,-0.011,-103.293,-54.573,94.024,16_10_1.csv
2018-07-12T11:12:27.972640,-0.382,-0.446,-0.011,-107.378,-107.378,50.244,16_10_1.csv
2018-07-12T11:12:28.213785,-0.296,-0.292,0.127,22.744,80.427,-43.72,16_10_1.csv
2018-07-12T11:12:28.274954,-2.428,-0.683,-0.278,68.11,-23.232,1.463,16_10_1.csv
2018-07-12T11:12:28.340127,-2.735,-0.656,-0.26,-38.476,0.61,-62.866,16_10_1.csv
2018-07-12T11:12:28.385752,-0.915,-0.655,0.156,-69.085,-42.866,109.573,16_10_1.csv
2018-07-12T11:12:28.434381,-0.915,-0.655,0.156,-26.159,-10.854,67.561,16_10_1.csv
2018-07-12T11:12:28.484515,0.322,-0.308,0.358,7.927,-29.878,6.707,16_10_1.csv
2018-07-12T11:12:28.553700,0.0,0.001,0.105,106.585,38.232,11.28,16_10_1.csv
2018-07-12T11:12:28.644944,-0.118,-0.251,-0.016,-26.646,-120.854,-3.598,16_10_1.csv
2018-07-12T11:12:28.700091,-0.118,-0.251,-0.016,-0.122,-54.085,-39.268,16_10_1.csv
2018-07-12T11:12:28.764263,-1.641,-0.595,-0.244,26.829,22.195,-8.902,16_10_1.csv
2018-07-12T11:12:28.823421,-2.856,-0.626,-0.314,-15.244,3.415,-14.207,16_10_1.csv
2018-07-12T11:12:28.894110,-1.879,-0.704,-0.05,-49.085,56.341,36.037,16_10_1.csv
2018-07-12T11:12:28.948255,0.174,-0.282,0.449,-38.78,-37.561,71.037,16_10_1.csv
2018-07-12T11:12:29.016938,0.174,-0.282,0.449,-45.244,-54.756,-12.683,16_10_1.csv
2018-07-12T11:12:29.080107,0.132,-0.227,0.333,80.671,32.256,5.427,16_10_1.csv
2018-07-12T11:12:29.127734,-0.155,-0.216,0.103,87.5,-58.171,5.061,16_10_1.csv
2018-07-12T11:12:29.183884,-0.155,-0.216,0.103,68.72,-36.037,-26.402,16_10_1.csv
2018-07-12T11:12:29.263597,-0.801,-0.327,-0.029,23.293,100.427,-71.463,16_10_1.csv
2018-07-12T11:12:29.357849,-2.292,-0.685,-0.249,-78.72,31.89,0.488,16_10_1.csv
2018-07-12T11:12:29.534821,0.237,-0.197,0.272,-13.78,49.939,-4.817,16_10_1.csv
2018-07-12T11:12:29.604508,-0.012,-0.208,0.129,35.0,-24.756,12.866,16_10_1.csv
2018-07-12T11:12:29.651634,-0.012,-0.208,0.129,37.256,-10.732,-8.293,16_10_1.csv
2018-07-12T11:12:29.699762,-0.554,-0.367,0.021,45.549,9.695,-21.89,16_10_1.csv
2018-07-12T11:12:29.759923,-2.689,-0.665,-0.409,69.634,50.488,6.22,16_10_1.csv
2018-07-12T11:12:29.823593,-2.689,-0.665,-0.409,18.354,-25.732,-5.793,16_10_1.csv
2018-07-12T11:12:29.875732,-2.606,-0.73,-0.35,-115.427,-16.463,27.744,16_10_1.csv
2018-07-12T11:12:29.934890,-0.436,-0.544,0.14,-86.402,-39.146,73.902,16_10_1.csv
2018-07-12T11:12:29.984022,-0.436,-0.544,0.14,-28.354,-36.829,24.939,16_10_1.csv
2018-07-12T11:12:30.045185,0.343,-0.142,0.31,23.293,33.72,-15.549,16_10_1.csv
2018-07-12T11:12:30.102839,-0.061,-0.133,0.151,20.427,9.085,-11.159,16_10_1.csv
2018-07-12T11:12:30.154477,-0.099,-0.259,0.109,57.561,-6.829,-15.976,16_10_1.csv
2018-07-12T11:12:30.198595,-0.099,-0.259,0.109,100.0,44.634,-28.72,16_10_1.csv
2018-07-12T11:12:30.261764,-2.342,-0.734,-0.303,147.561,128.902,-34.146,16_10_1.csv
2018-07-12T11:12:30.343482,-2.862,-0.554,-0.447,-35.854,-73.11,-34.451,16_10_1.csv
2018-07-12T11:12:30.415675,-0.959,-0.761,0.071,-231.342,-83.537,-31.402,16_10_1.csv
2018-07-12T11:12:30.489371,0.261,-0.223,0.312,-25.915,-27.012,13.841,16_10_1.csv
2018-07-12T11:12:30.557554,0.183,-0.112,0.136,51.829,-7.683,8.354,16_10_1.csv
2018-07-12T11:12:30.609693,0.183,-0.112,0.136,101.098,57.256,41.22,16_10_1.csv
2018-07-12T11:12:30.652808,-0.054,-0.231,0.044,96.829,-2.439,45.305,16_10_1.csv
2018-07-12T11:12:30.704947,-0.054,-0.231,0.044,90.976,-2.439,17.988,16_10_1.csv
2018-07-12T11:12:30.801205,-2.97,-0.585,-0.353,-15.488,-38.598,13.232,16_10_1.csv
2018-07-12T11:12:30.873899,-2.97,-0.585,-0.353,-154.329,-36.707,-52.622,16_10_1.csv
2018-07-12T11:12:30.941079,-1.868,-0.883,0.118,-30.0,22.012,75.366,16_10_1.csv
2018-07-12T11:12:31.000236,-0.104,-0.31,0.258,-20.244,-89.024,12.683,16_10_1.csv
2018-07-12T11:12:31.058392,0.376,-0.152,0.141,-19.573,-97.073,-3.11,16_10_1.csv
2018-07-12T11:12:31.104517,0.376,-0.152,0.141,28.293,3.354,2.439,16_10_1.csv
2018-07-12T11:12:31.163172,-0.056,-0.23,0.008,11.524,-46.341,-1.28,16_10_1.csv
2018-07-12T11:12:31.236368,-0.603,-0.394,-0.001,22.988,12.195,-32.744,16_10_1.csv
2018-07-12T11:12:31.293019,-2.377,-0.623,-0.229,34.817,38.659,-24.878,16_10_1.csv
2018-07-12T11:12:31.338640,-2.377,-0.623,-0.229,-43.476,-23.415,-41.707,16_10_1.csv
2018-07-12T11:12:31.387271,-2.44,-0.891,-0.11,-118.354,-8.78,-68.354,16_10_1.csv
2018-07-12T11:12:31.434397,-2.44,-0.891,-0.11,-122.073,-5.305,-15.244,16_10_1.csv
2018-07-12T11:12:31.494056,-0.899,-0.639,0.181,-70.488,-46.951,-4.695,16_10_1.csv
2018-07-12T11:12:31.560734,0.188,-0.318,0.157,-99.39,-109.329,-3.293,16_10_1.csv
2018-07-12T11:12:31.620895,0.083,-0.151,0.049,99.39,47.378,3.232,16_10_1.csv
2018-07-12T11:12:31.668026,0.083,-0.151,0.049,124.695,26.463,3.537,16_10_1.csv
2018-07-12T11:12:31.716149,-0.183,-0.065,0.042,82.927,20.183,-6.159,16_10_1.csv
2018-07-12T11:12:31.760768,-0.183,-0.065,0.042,53.476,9.878,-15.305,16_10_1.csv
2018-07-12T11:12:31.821431,-1.693,-0.522,-0.092,-28.476,11.28,12.561,16_10_1.csv
2018-07-12T11:12:31.878082,-2.497,-1.025,-0.07,-147.5,-44.268,-27.317,16_10_1.csv
2018-07-12T11:12:31.934733,-1.633,-0.841,-0.313,-79.573,-55.061,13.72,16_10_1.csv
2018-07-12T11:12:31.982361,-1.633,-0.841,-0.313,-69.817,-85.427,48.476,16_10_1.csv
2018-07-12T11:12:32.043524,-0.1,-0.414,0.005,53.963,-38.232,31.159,16_10_1.csv
2018-07-12T11:12:32.090650,0.235,-0.21,0.168,136.098,12.439,11.22,16_10_1.csv
2018-07-12T11:12:32.170865,-0.102,-0.045,0.108,104.756,27.378,0.549,16_10_1.csv
2018-07-12T11:12:32.232529,-0.102,-0.045,0.108,35.976,-49.39,-12.622,16_10_1.csv
2018-07-12T11:12:32.294194,-0.828,-0.359,0.011,37.439,105.793,-31.037,16_10_1.csv
2018-07-12T11:12:32.343826,-2.646,-1.066,-0.247,9.756,-8.537,13.78,16_10_1.csv
2018-07-12T11:12:32.387944,-2.646,-1.066,-0.247,-52.988,-17.378,-32.988,16_10_1.csv
2018-07-12T11:12:32.438078,-2.189,-1.441,-0.063,-121.768,-15.732,-120.671,16_10_1.csv
2018-07-12T11:12:32.495230,-0.228,-0.491,0.284,-46.463,-29.512,-71.28,16_10_1.csv
2018-07-12T11:12:32.547370,-0.228,-0.491,0.284,4.634,-106.037,11.707,16_10_1.csv
2018-07-12T11:12:32.589985,0.43,0.212,0.208,26.89,-127.134,6.768,16_10_1.csv
2018-07-12T11:12:32.641123,0.43,0.212,0.208,70.0,0.671,39.695,16_10_1.csv
2018-07-12T11:12:32.687249,-0.119,-0.15,-0.016,149.329,39.451,94.329,16_10_1.csv
2018-07-12T11:12:32.738386,-0.13,-0.251,-0.011,145.549,17.439,71.89,16_10_1.csv
2018-07-12T11:12:32.806068,-0.13,-0.251,-0.011,109.39,59.939,34.268,16_10_1.csv
2018-07-12T11:12:32.877258,-1.613,-0.554,-0.087,10.915,71.829,18.232,16_10_1.csv
2018-07-12T11:12:32.932907,-2.499,-0.923,-0.132,-170.427,-49.268,-126.524,16_10_1.csv
2018-07-12T11:12:32.979030,-1.68,-1.067,0.111,-64.695,5.244,-24.024,16_10_1.csv
2018-07-12T11:12:33.027660,-1.68,-1.067,0.111,-12.622,3.902,58.415,16_10_1.csv
2018-07-12T11:12:33.074786,-0.759,-0.708,0.202,-41.524,-2.256,89.634,16_10_1.csv
2018-07-12T11:12:33.135949,0.279,-0.265,0.231,-28.902,-113.171,36.89,16_10_1.csv
2018-07-12T11:12:33.194105,0.279,-0.265,0.231,-13.11,-44.756,-34.024,16_10_1.csv
2018-07-12T11:12:33.251759,0.049,-0.151,0.117,44.878,-3.415,12.805,16_10_1.csv
2018-07-12T11:12:33.308410,-0.045,-0.164,0.069,23.171,-16.28,6.037,16_10_1.csv
2018-07-12T11:12:33.355536,-0.045,-0.164,0.069,14.268,36.585,-12.195,16_10_1.csv
2018-07-12T11:12:33.402161,-1.62,-0.56,-0.138,36.341,122.5,-28.049,16_10_1.csv
2018-07-12T11:12:33.464327,-2.844,-0.641,-0.439,20.0,-53.11,-21.951,16_10_1.csv
2018-07-12T11:12:33.586154,-1.711,-0.745,-0.03,34.573,34.329,75.488,16_10_1.csv
2018-07-12T11:12:33.635289,-0.282,-0.244,0.19,44.451,19.573,74.451,16_10_1.csv
2018-07-12T11:12:33.683419,-0.282,-0.244,0.19,-44.634,-55.61,17.5,16_10_1.csv
2018-07-12T11:12:33.729544,0.198,-0.226,0.217,-18.963,-29.329,0.671,16_10_1.csv
2018-07-12T11:12:33.776169,-0.038,-0.145,0.127,75.0,28.171,2.134,16_10_1.csv
2018-07-12T11:12:33.839839,-0.038,-0.145,0.127,36.951,-0.732,-4.512,16_10_1.csv
2018-07-12T11:12:33.910528,-0.659,-0.399,0.089,73.476,101.951,-22.561,16_10_1.csv
2018-07-12T11:12:33.965675,-2.35,-0.588,-0.428,61.524,35.793,12.744,16_10_1.csv
2018-07-12T11:12:34.010796,-2.35,-0.588,-0.428,-66.098,-52.561,-55.488,16_10_1.csv
2018-07-12T11:12:34.057921,-2.336,-0.864,-0.332,-83.841,-18.476,-22.561,16_10_1.csv
2018-07-12T11:12:34.105047,-1.119,-0.38,0.092,-18.232,14.573,44.024,16_10_1.csv
2018-07-12T11:12:34.167213,-1.119,-0.38,0.092,-67.317,0.244,65.0,16_10_1.csv
2018-07-12T11:12:34.236398,-0.021,-0.546,0.223,4.268,-103.72,76.768,16_10_1.csv
2018-07-12T11:12:34.308591,0.265,-0.361,0.151,168.049,117.744,3.293,16_10_1.csv
2018-07-12T11:12:34.358725,-0.209,-0.156,0.078,84.207,25.122,5.061,16_10_1.csv
2018-07-12T11:12:34.408861,-0.209,-0.156,0.078,6.585,-49.329,-17.622,16_10_1.csv
2018-07-12T11:12:34.470524,-1.004,-0.468,-0.046,-15.122,67.195,-72.439,16_10_1.csv
2018-07-12T11:12:34.539709,-2.341,-0.672,-0.396,-62.073,-61.707,-95.427,16_10_1.csv
2018-07-12T11:12:34.614910,-2.185,-0.731,-0.201,-1.341,22.744,-70.366,16_10_1.csv
2018-07-12T11:12:34.688105,-1.039,-0.443,-0.01,-9.451,21.951,41.829,16_10_1.csv
2018-07-12T11:12:34.730218,-1.039,-0.443,-0.01,-57.805,-25.366,52.439,16_10_1.csv
2018-07-12T11:12:34.778848,0.124,-0.237,0.192,-38.841,-31.707,3.841,16_10_1.csv
2018-07-12T11:12:34.829984,0.201,-0.178,0.16,-32.927,0.61,-10.0,16_10_1.csv
2018-07-12T11:12:34.979889,-1.8,-0.321,-0.324,-9.39,93.902,-24.878,16_10_1.csv
2018-07-12T11:12:35.042057,-1.8,-0.321,-0.324,-59.024,-38.72,-3.963,16_10_1.csv
2018-07-12T11:12:35.106230,-2.195,-1.105,-0.172,-144.878,-66.951,-53.293,16_10_1.csv
2018-07-12T11:12:35.154860,-1.623,-0.996,-0.324,113.11,88.11,64.085,16_10_1.csv
2018-07-12T11:12:35.204994,-1.623,-0.996,-0.324,103.415,48.537,62.927,16_10_1.csv
2018-07-12T11:12:35.252622,-0.507,-0.391,-0.033,-6.768,-14.329,42.927,16_10_1.csv
2018-07-12T11:12:35.329326,0.248,-0.104,0.198,15.427,-34.329,-10.366,16_10_1.csv
2018-07-12T11:12:35.378457,0.248,-0.104,0.198,12.5,-22.927,-7.439,16_10_1.csv
2018-07-12T11:12:35.466693,-0.713,-0.321,-0.037,106.281,21.951,14.512,16_10_1.csv
2018-07-12T11:12:35.527856,-0.713,-0.321,-0.037,99.573,105.305,1.89,16_10_1.csv
2018-07-12T11:12:35.575484,-2.263,-0.356,-0.49,85.549,24.878,33.78,16_10_1.csv
2018-07-12T11:12:35.638151,-2.332,-0.688,-0.314,-85.061,-33.049,-52.317,16_10_1.csv
2018-07-12T11:12:35.700819,-2.332,-0.688,-0.314,-37.683,29.878,18.598,16_10_1.csv
2018-07-12T11:12:35.756468,-1.06,-0.29,0.031,-65.549,-28.902,38.78,16_10_1.csv
2018-07-12T11:12:35.810111,-0.007,-0.352,0.161,-100.488,-101.829,24.512,16_10_1.csv
2018-07-12T11:12:35.858239,-0.007,-0.352,0.161,25.0,-66.037,60.732,16_10_1.csv
2018-07-12T11:12:35.908875,0.116,-0.218,0.106,73.841,32.378,-4.939,16_10_1.csv
2018-07-12T11:12:35.963520,-0.207,-0.171,0.071,20.793,0.427,-35.915,16_10_1.csv
2018-07-12T11:12:36.042231,-1.739,-0.479,-0.217,50.244,71.098,-53.293,16_10_1.csv
2018-07-12T11:12:36.104397,-2.737,-0.489,-0.367,-51.28,-62.988,-75.122,16_10_1.csv
2018-07-12T11:12:36.158542,-2.737,-0.489,-0.367,-113.537,-48.902,-74.756,16_10_1.csv
2018-07-12T11:12:36.297415,-0.052,-0.246,0.198,-11.28,-23.232,55.915,16_10_1.csv
2018-07-12T11:12:36.355570,0.281,-0.184,0.179,-26.463,-34.085,7.317,16_10_1.csv
2018-07-12T11:12:36.400695,0.281,-0.184,0.179,17.378,12.622,22.317,16_10_1.csv
2018-07-12T11:12:36.466872,-0.076,-0.262,0.067,35.061,-20.427,-3.598,16_10_1.csv
2018-07-12T11:12:36.538566,-0.907,-0.425,0.0,59.634,46.768,-27.5,16_10_1.csv
2018-07-12T11:12:36.589702,-2.724,-0.552,-0.26,75.854,-0.549,-4.573,16_10_1.csv
2018-07-12T11:12:36.636828,-2.724,-0.552,-0.26,-25.732,-27.622,-59.573,16_10_1.csv
2018-07-12T11:12:36.685458,-2.445,-0.731,-0.155,-69.939,-11.22,-51.159,16_10_1.csv
2018-07-12T11:12:36.729576,-2.445,-0.731,-0.155,-57.439,-29.451,36.707,16_10_1.csv
2018-07-12T11:12:36.793248,-0.145,-0.338,0.192,-58.537,-69.39,-26.037,16_10_1.csv
2018-07-12T11:12:36.855412,0.307,-0.035,0.172,14.268,-5.366,-44.756,16_10_1.csv
2018-07-12T11:12:36.919082,-0.051,-0.091,0.017,2.622,-33.598,-0.793,16_10_1.csv
2018-07-12T11:12:36.965707,-0.051,-0.091,0.017,9.695,-40.427,-14.146,16_10_1.csv
2018-07-12T11:12:37.012833,-0.175,-0.062,0.103,52.866,30.122,-29.451,16_10_1.csv
2018-07-12T11:12:37.058455,-0.175,-0.062,0.103,60.549,79.878,-30.122,16_10_1.csv
2018-07-12T11:12:37.120120,-2.535,-0.658,-0.33,20.427,-11.585,58.902,16_10_1.csv
2018-07-12T11:12:37.182286,-2.839,-1.073,-0.145,-82.683,-33.598,18.049,16_10_1.csv
2018-07-12T11:12:37.245455,-1.007,-0.693,0.2,37.5,66.768,75.915,16_10_1.csv
2018-07-12T11:12:37.292079,-1.007,-0.693,0.2,48.415,18.171,64.268,16_10_1.csv
2018-07-12T11:12:37.340709,0.328,-0.117,0.27,-66.829,-63.902,-22.378,16_10_1.csv
2018-07-12T11:12:37.386331,0.328,-0.117,0.27,-41.89,-43.11,-28.598,16_10_1.csv
2018-07-12T11:12:37.452507,-0.021,-0.127,0.105,32.378,3.11,-13.232,16_10_1.csv
2018-07-12T11:12:37.518183,-0.035,-0.133,0.092,17.134,15.366,-33.232,16_10_1.csv
2018-07-12T11:12:37.666080,-2.78,-0.635,-0.3,13.232,-42.073,-3.72,16_10_1.csv
2018-07-12T11:12:37.715215,-2.009,-0.972,-0.132,-110.671,-49.024,-12.622,16_10_1.csv
2018-07-12T11:12:37.778386,-2.009,-0.972,-0.132,-12.622,-28.598,121.707,16_10_1.csv
2018-07-12T11:12:37.848075,-0.185,-0.407,0.107,-89.573,-59.146,18.049,16_10_1.csv
2018-07-12T11:12:37.915755,0.269,-0.323,0.139,104.451,27.622,7.012,16_10_1.csv
2018-07-12T11:12:37.976417,-0.075,-0.092,0.069,60.671,27.134,-12.317,16_10_1.csv
2018-07-12T11:12:38.029058,-0.075,-0.092,0.069,-5.915,-27.073,-18.049,16_10_1.csv
2018-07-12T11:12:38.076685,-0.318,-0.285,0.118,58.476,74.573,-37.378,16_10_1.csv
2018-07-12T11:12:38.127320,-2.688,-0.787,-0.278,71.341,86.524,-26.098,16_10_1.csv
2018-07-12T11:12:38.175950,-2.688,-0.787,-0.278,55.671,-24.573,-12.195,16_10_1.csv
2018-07-12T11:12:38.246639,-2.925,-0.807,-0.217,-77.622,-3.354,-55.976,16_10_1.csv
2018-07-12T11:12:38.301284,-0.497,-0.484,0.137,-76.463,-66.037,-12.134,16_10_1.csv
2018-07-12T11:12:38.370971,0.669,-0.185,0.344,-77.012,-71.768,-31.768,16_10_1.csv
2018-07-12T11:12:38.437147,-0.078,-0.102,0.079,139.878,85.793,-11.037,16_10_1.csv
2018-07-12T11:12:38.487281,-0.078,-0.102,0.079,94.451,35.793,8.415,16_10_1.csv
2018-07-12T11:12:38.527389,-0.181,-0.105,0.111,62.622,4.207,11.646,16_10_1.csv
2018-07-12T11:12:38.592563,-0.181,-0.105,0.111,68.598,36.402,3.232,16_10_1.csv
2018-07-12T11:12:38.653726,-1.314,-0.473,-0.063,69.39,107.744,15.305,16_10_1.csv
2018-07-12T11:12:38.713887,-2.651,-0.635,-0.447,31.341,-27.561,28.598,16_10_1.csv
2018-07-12T11:12:38.760512,-2.112,-0.96,-0.218,-173.232,-50.427,-18.354,16_10_1.csv
2018-07-12T11:12:38.810144,-2.112,-0.96,-0.218,-94.39,-33.841,71.037,16_10_1.csv
2018-07-12T11:12:38.859777,-0.564,-0.61,0.111,-61.159,-9.146,76.829,16_10_1.csv
2018-07-12T11:12:39.100937,-0.122,-0.239,0.126,17.256,-20.915,-10.549,16_10_1.csv
2018-07-12T11:12:39.175139,-2.128,-0.76,-0.226,37.866,110.915,-33.78,16_10_1.csv
2018-07-12T11:12:39.252348,-2.844,-1.021,-0.232,-80.0,-60.183,-35.183,16_10_1.csv
2018-07-12T11:12:39.292956,-2.844,-1.021,-0.232,-106.768,-12.988,-22.683,16_10_1.csv
2018-07-12T11:12:39.342589,-1.0,-0.765,0.171,-26.768,6.951,45.549,16_10_1.csv
2018-07-12T11:12:39.408264,0.199,-0.229,0.251,0.854,-35.793,-2.073,16_10_1.csv
2018-07-12T11:12:39.466420,0.199,-0.229,0.251,33.293,-35.61,-9.756,16_10_1.csv
2018-07-12T11:12:39.511540,0.083,-0.058,0.092,77.134,3.476,-11.037,16_10_1.csv
2018-07-12T11:12:39.564182,-0.121,-0.097,0.065,70.854,-1.585,1.707,16_10_1.csv
2018-07-12T11:12:39.614315,-0.121,-0.097,0.065,52.195,-6.768,-11.951,16_10_1.csv
2018-07-12T11:12:39.692524,-1.43,-0.492,-0.062,41.037,75.244,-17.866,16_10_1.csv
2018-07-12T11:12:39.763213,-2.976,-0.918,-0.264,-135.366,-49.756,-82.927,16_10_1.csv
2018-07-12T11:12:39.823875,-1.737,-0.886,-0.098,-92.378,-22.805,-11.159,16_10_1.csv
2018-07-12T11:12:39.871501,-1.737,-0.886,-0.098,-55.854,-59.756,62.256,16_10_1.csv
2018-07-12T11:12:39.918627,0.126,-0.289,0.06,-116.707,-113.781,29.695,16_10_1.csv
2018-07-12T11:12:39.964751,0.255,-0.183,0.114,103.415,44.695,26.524,16_10_1.csv
2018-07-12T11:12:40.025914,0.255,-0.183,0.114,186.403,90.61,24.512,16_10_1.csv
2018-07-12T11:12:40.099611,-0.139,-0.045,0.06,50.793,-9.573,14.451,16_10_1.csv
2018-07-12T11:12:40.171303,-0.493,-0.336,0.103,-23.232,82.805,-44.024,16_10_1.csv
2018-07-12T11:12:40.214418,-2.542,-0.799,-0.32,13.78,95.488,-9.695,16_10_1.csv
2018-07-12T11:12:40.282600,-2.542,-0.799,-0.32,-3.293,10.732,9.634,16_10_1.csv
2018-07-12T11:12:40.498286,0.278,-0.211,0.254,23.415,-34.024,-12.378,16_10_1.csv
2018-07-12T11:12:40.556441,0.042,-0.089,0.116,54.146,8.476,-17.927,16_10_1.csv
2018-07-12T11:12:40.626629,-0.063,-0.198,0.07,21.89,-30.061,-0.976,16_10_1.csv
2018-07-12T11:12:40.686789,-0.063,-0.198,0.07,39.329,9.634,-22.5,16_10_1.csv
2018-07-12T11:12:40.736422,-1.397,-0.527,-0.039,47.561,98.415,-32.927,16_10_1.csv
2018-07-12T11:12:40.794578,-3.031,-0.897,-0.431,-34.695,-49.268,-50.488,16_10_1.csv
2018-07-12T11:12:40.842204,-3.031,-0.897,-0.431,-150.488,-83.049,-101.281,16_10_1.csv
2018-07-12T11:12:40.905875,-1.798,-0.961,-0.233,-96.159,-73.841,62.378,16_10_1.csv
2018-07-12T11:12:40.960520,0.042,-0.425,0.182,-47.561,-88.537,76.646,16_10_1.csv
2018-07-12T11:12:41.011658,0.273,-0.014,0.157,65.61,17.744,3.902,16_10_1.csv
2018-07-12T11:12:41.058282,0.273,-0.014,0.157,46.037,34.268,13.293,16_10_1.csv
2018-07-12T11:12:41.111925,-0.085,-0.117,0.015,36.707,6.463,28.902,16_10_1.csv
2018-07-12T11:12:41.171584,-0.306,-0.237,0.096,-0.976,4.695,-17.805,16_10_1.csv
2018-07-12T11:12:41.242775,-0.306,-0.237,0.096,-1.159,89.695,-35.305,16_10_1.csv
2018-07-12T11:12:41.302434,-2.554,-1.141,0.083,-1.951,19.878,2.683,16_10_1.csv
2018-07-12T11:12:41.356077,-2.832,-1.152,-0.259,15.122,28.049,17.927,16_10_1.csv
2018-07-12T11:12:41.402702,-2.832,-1.152,-0.259,-24.268,-76.524,14.268,16_10_1.csv
2018-07-12T11:12:41.452836,-0.491,-0.376,-0.221,-64.268,-89.756,4.756,16_10_1.csv
2018-07-12T11:12:41.503472,0.464,-0.206,0.16,-102.439,-107.744,-14.573,16_10_1.csv
2018-07-12T11:12:41.574661,-0.138,-0.218,0.111,122.256,125.244,17.378,16_10_1.csv
2018-07-12T11:12:41.639335,-0.138,-0.218,0.111,162.805,48.78,24.329,16_10_1.csv
2018-07-12T11:12:41.747124,-1.508,-0.537,-0.086,49.024,120.61,-38.659,16_10_1.csv
2018-07-12T11:12:41.792748,-1.508,-0.537,-0.086,63.354,78.902,-11.524,16_10_1.csv
2018-07-12T11:12:41.841378,-2.863,-1.206,-0.422,90.366,27.805,-18.841,16_10_1.csv
2018-07-12T11:12:41.885997,-2.863,-1.206,-0.422,129.085,115.549,-65.488,16_10_1.csv
2018-07-12T11:12:41.949668,-1.714,-0.483,-0.06,-124.146,-80.732,-4.146,16_10_1.csv
2018-07-12T11:12:42.007823,-0.099,-0.181,0.041,-149.329,-100.671,-5.488,16_10_1.csv
2018-07-12T11:12:42.074000,0.311,-0.483,0.178,-173.476,-87.744,29.817,16_10_1.csv
2018-07-12T11:12:42.121126,0.311,-0.483,0.178,57.195,88.354,-1.341,16_10_1.csv
2018-07-12T11:12:42.168252,-0.263,-0.104,0.193,219.39,146.89,2.256,16_10_1.csv
2018-07-12T11:12:42.217884,-0.315,0.037,0.044,65.671,-41.28,-17.439,16_10_1.csv
2018-07-12T11:12:42.273031,-0.315,0.037,0.044,12.622,47.134,-15.549,16_10_1.csv
2018-07-12T11:12:42.344723,-1.978,-0.805,-0.231,37.134,-22.683,77.439,16_10_1.csv
2018-07-12T11:12:42.402878,-2.543,-0.885,-0.246,-46.159,42.256,38.171,16_10_1.csv
2018-07-12T11:12:42.448500,-2.543,-0.885,-0.246,-93.902,30.427,-4.024,16_10_1.csv
2018-07-12T11:12:42.495626,-1.635,-0.642,-0.111,-75.671,20.0,47.927,16_10_1.csv
2018-07-12T11:12:42.541749,-0.065,-0.465,0.264,-177.683,-93.659,30.732,16_10_1.csv
2018-07-12T11:12:42.603414,-0.065,-0.465,0.264,-118.963,-114.634,6.524,16_10_1.csv
2018-07-12T11:12:42.675105,0.282,-0.381,0.319,114.695,82.927,3.293,16_10_1.csv
2018-07-12T11:12:42.728749,-0.199,-0.131,0.044,75.244,-20.0,12.744,16_10_1.csv
2018-07-12T11:12:42.776877,-0.199,-0.131,0.044,5.793,-89.085,-4.817,16_10_1.csv
2018-07-12T11:12:42.824505,-0.554,-0.371,0.02,-0.122,92.012,-72.561,16_10_1.csv
2018-07-12T11:12:42.870126,-2.381,-0.738,-0.321,59.39,52.683,-9.451,16_10_1.csv
2018-07-12T11:12:42.931290,-2.381,-0.738,-0.321,55.976,35.61,22.622,16_10_1.csv
2018-07-12T11:12:42.996966,-2.693,-0.703,-0.313,-77.378,13.963,29.146,16_10_1.csv
2018-07-12T11:12:43.124308,0.222,-0.254,0.344,-112.317,-84.695,-34.146,16_10_1.csv
2018-07-12T11:12:43.171438,0.222,-0.254,0.344,-17.134,-41.951,-27.195,16_10_1.csv
2018-07-12T11:12:43.219566,0.04,-0.129,0.082,78.902,8.171,-17.805,16_10_1.csv
2018-07-12T11:12:43.281737,-0.062,-0.129,0.074,44.085,-19.329,-10.488,16_10_1.csv
2018-07-12T11:12:43.356943,-1.454,-0.563,-0.079,62.5,93.537,-19.207,16_10_1.csv
2018-07-12T11:12:43.416101,-1.454,-0.563,-0.079,62.439,82.927,7.683,16_10_1.csv
2018-07-12T11:12:43.478271,-2.916,-0.679,-0.451,-119.268,-56.159,-84.817,16_10_1.csv
2018-07-12T11:12:43.526400,-1.881,-0.916,-0.068,-115.549,-31.829,-42.195,16_10_1.csv
2018-07-12T11:12:43.574532,-1.881,-0.916,-0.068,-24.939,3.537,84.085,16_10_1.csv
2018-07-12T11:12:43.622661,-0.232,-0.352,0.204,10.732,-38.78,4.329,16_10_1.csv
2018-07-12T11:12:43.684327,0.294,-0.068,0.116,-7.256,-82.988,-23.293,16_10_1.csv
2018-07-12T11:12:43.739474,0.294,-0.068,0.116,6.951,-30.671,-35.366,16_10_1.csv
2018-07-12T11:12:43.808659,-0.047,-0.129,0.024,35.793,-28.171,-10.61,16_10_1.csv
2018-07-12T11:12:43.854783,-0.182,-0.184,0.134,30.244,-2.744,-23.476,16_10_1.csv
2018-07-12T11:12:43.903413,-0.182,-0.184,0.134,46.28,81.89,-34.756,16_10_1.csv
2018-07-12T11:12:43.949034,-2.529,-0.594,-0.202,-11.22,51.768,40.671,16_10_1.csv
2018-07-12T11:12:44.024737,-2.954,-0.858,-0.427,-109.756,-49.512,20.366,16_10_1.csv
2018-07-12T11:12:44.089911,-0.805,-0.755,-0.089,-88.415,-67.561,48.537,16_10_1.csv
2018-07-12T11:12:44.156088,0.39,-0.332,0.162,44.939,-37.744,49.146,16_10_1.csv
2018-07-12T11:12:44.207224,0.39,-0.332,0.162,60.427,-1.402,8.171,16_10_1.csv
2018-07-12T11:12:44.278415,-0.077,-0.148,0.021,41.098,13.78,-33.659,16_10_1.csv
2018-07-12T11:12:44.324537,-0.024,-0.115,0.091,-8.659,-69.878,-51.829,16_10_1.csv
2018-07-12T11:12:44.441851,-1.276,-0.618,0.136,56.28,125.732,-56.768,16_10_1.csv
2018-07-12T11:12:44.520561,-3.288,-1.293,-0.191,-72.012,-48.78,-78.415,16_10_1.csv
2018-07-12T11:12:44.577213,-1.497,-0.902,-0.238,-94.085,-152.622,-86.768,16_10_1.csv
2018-07-12T11:12:44.624840,-1.497,-0.902,-0.238,15.061,-82.805,68.11,16_10_1.csv
2018-07-12T11:12:44.668456,0.314,-0.055,0.371,-31.524,43.841,103.537,16_10_1.csv
2018-07-12T11:12:44.734633,-0.1,-0.181,0.014,65.427,75.244,103.232,16_10_1.csv
2018-07-12T11:12:44.792287,-0.063,0.006,-0.045,16.098,-51.463,-20.488,16_10_1.csv
2018-07-12T11:12:44.839915,-0.063,0.006,-0.045,-47.256,-63.354,-31.463,16_10_1.csv
2018-07-12T11:12:44.887040,-0.057,-0.261,0.102,-37.012,-13.537,-4.695,16_10_1.csv
2018-07-12T11:12:44.934166,-0.057,-0.261,0.102,32.5,82.012,6.89,16_10_1.csv
2018-07-12T11:12:44.997837,-2.325,-0.734,-0.274,-47.805,24.207,40.061,16_10_1.csv
2018-07-12T11:12:45.087075,-3.009,-1.169,-0.296,-28.232,1.463,-22.683,16_10_1.csv
2018-07-12T11:12:45.153252,-1.153,-0.495,0.039,17.012,-23.354,24.939,16_10_1.csv
2018-07-12T11:12:45.207898,0.305,-0.078,0.208,-44.756,-80.549,-17.012,16_10_1.csv
2018-07-12T11:12:45.278085,-0.006,-0.01,0.007,46.524,34.085,-31.768,16_10_1.csv
2018-07-12T11:12:45.346267,-0.006,-0.01,0.007,7.744,-32.683,-23.293,16_10_1.csv
2018-07-12T11:12:45.402417,0.069,-0.08,0.063,52.622,31.524,-19.085,16_10_1.csv
2018-07-12T11:12:45.449042,-0.866,-0.312,0.116,111.524,88.476,0.976,16_10_1.csv
2018-07-12T11:12:45.497171,-0.866,-0.312,0.116,114.451,146.098,16.585,16_10_1.csv
2018-07-12T11:12:45.544798,-2.914,-0.689,-0.505,-38.598,-11.646,21.829,16_10_1.csv
2018-07-12T11:12:45.590420,-2.914,-0.689,-0.505,-128.415,-75.061,-58.476,16_10_1.csv
2018-07-12T11:12:45.660607,-2.422,-0.959,-0.421,-43.537,-9.268,52.744,16_10_1.csv
2018-07-12T11:12:45.718261,-0.513,-0.547,0.12,-27.317,-29.451,51.707,16_10_1.csv
2018-07-12T11:12:45.917299,-0.009,-0.187,0.086,0.061,-56.585,-11.402,16_10_1.csv
2018-07-12T11:12:45.964425,-0.009,-0.187,0.086,19.146,22.439,-33.293,16_10_1.csv
2018-07-12T11:12:46.040633,-1.949,-0.661,-0.222,29.939,89.451,7.5,16_10_1.csv
2018-07-12T11:12:46.103801,-3.209,-0.736,-0.32,-70.427,-95.122,-17.866,16_10_1.csv
2018-07-12T11:12:46.169980,-1.338,-0.956,-0.083,-76.707,-6.646,39.573,16_10_1.csv
2018-07-12T11:12:46.232146,-1.338,-0.956,-0.083,53.963,-0.793,139.146,16_10_1.csv
2018-07-12T11:12:46.277266,0.342,-0.177,0.115,7.927,-94.817,15.671,16_10_1.csv
2018-07-12T11:12:46.324392,0.242,-0.087,0.05,49.268,-11.646,19.939,16_10_1.csv
2018-07-12T11:12:46.375028,0.242,-0.087,0.05,57.988,52.012,-16.28,16_10_1.csv
2018-07-12T11:12:46.449226,-0.087,-0.139,0.03,-10.122,-52.195,10.183,16_10_1.csv
2018-07-12T11:12:46.519914,-0.582,-0.435,0.059,25.366,200.244,-77.134,16_10_1.csv
2018-07-12T11:12:46.590603,-3.286,-0.834,-0.465,47.378,122.378,-25.61,16_10_1.csv
2018-07-12T11:12:46.635724,-3.286,-0.834,-0.465,-39.756,-35.915,-7.378,16_10_1.csv
2018-07-12T11:12:46.692376,-2.421,-0.893,-0.147,-117.195,-66.402,-7.134,16_10_1.csv
2018-07-12T11:12:46.746520,-0.01,-0.367,0.258,-40.427,-38.171,12.744,16_10_1.csv
2018-07-12T11:12:46.808185,0.305,-0.106,-0.023,22.5,-26.098,-21.402,16_10_1.csv
2018-07-12T11:12:46.861327,0.305,-0.106,-0.023,121.402,64.634,-18.049,16_10_1.csv
2018-07-12T11:12:46.919983,-0.167,0.099,-0.113,-18.537,-8.72,4.085,16_10_1.csv
2018-07-12T11:12:46.969114,0.031,-0.103,0.162,-78.659,-30.183,3.902,16_10_1.csv
2018-07-12T11:12:47.018748,0.031,-0.103,0.162,-5.0,28.841,-2.744,16_10_1.csv
2018-07-12T11:12:47.077404,-2.173,-0.565,-0.188,56.585,132.256,-10.488,16_10_1.csv
2018-07-12T11:12:47.168146,-3.07,-0.841,-0.332,-114.878,31.28,-36.524,16_10_1.csv
2018-07-12T11:12:47.218782,-1.529,-0.828,-0.081,-2.256,5.427,6.28,16_10_1.csv
2018-07-12T11:12:47.276436,-1.529,-0.828,-0.081,170.61,35.0,94.878,16_10_1.csv
2018-07-12T11:12:47.323562,-0.081,-0.095,0.124,-15.061,-66.524,-10.732,16_10_1.csv
2018-07-12T11:12:47.372693,0.197,-0.084,0.064,55.122,-4.878,-12.683,16_10_1.csv
2018-07-12T11:12:47.418818,0.197,-0.084,0.064,80.061,35.305,-19.817,16_10_1.csv
2018-07-12T11:12:47.480481,-0.008,-0.07,0.052,37.805,-4.573,-16.341,16_10_1.csv
2018-07-12T11:12:47.543650,-0.251,-0.282,0.104,22.439,9.817,-16.707,16_10_1.csv
2018-07-12T11:12:47.605315,-2.513,-0.615,-0.557,57.134,125.61,-14.451,16_10_1.csv
2018-07-12T11:12:47.652441,-2.513,-0.615,-0.557,-4.695,-31.098,-6.707,16_10_1.csv
2018-07-12T11:12:47.700068,-2.832,-0.746,-0.228,-106.098,-59.268,-65.366,16_10_1.csv
2018-07-12T11:12:47.746693,-2.832,-0.746,-0.228,-148.902,-39.207,-22.683,16_10_1.csv
2018-07-12T11:12:47.811613,-1.093,-0.767,0.116,-8.963,-19.207,39.268,16_10_1.csv
2018-07-12T11:12:47.870771,0.301,-0.22,0.119,-11.768,-57.134,-5.549,16_10_1.csv
2018-07-12T11:12:47.932436,0.152,-0.012,0.003,102.256,7.683,4.451,16_10_1.csv
2018-07-12T11:12:47.979061,0.152,-0.012,0.003,83.902,31.646,21.524,16_10_1.csv
2018-07-12T11:12:48.029195,0.013,-0.129,0.003,48.11,-4.634,10.183,16_10_1.csv
2018-07-12T11:12:48.077323,0.013,-0.129,0.003,50.183,11.707,-13.78,16_10_1.csv
2018-07-12T11:12:48.135980,-0.753,-0.258,-0.018,35.793,134.512,-25.854,16_10_1.csv
2018-07-12T11:12:48.192130,-2.833,-0.656,-0.321,-69.634,-24.329,9.939,16_10_1.csv
2018-07-12T11:12:48.250787,-2.596,-1.117,-0.196,-137.256,4.39,-35.854,16_10_1.csv
2018-07-12T11:12:48.293400,-2.596,-1.117,-0.196,-49.695,-1.524,21.829,16_10_1.csv
2018-07-12T11:12:48.343535,-0.854,-0.604,0.012,16.951,-9.146,70.671,16_10_1.csv
2018-07-12T11:12:48.387652,-0.854,-0.604,0.012,-37.134,-57.439,15.0,16_10_1.csv
2018-07-12T11:12:48.464858,0.328,-0.104,0.123,53.841,-34.39,-6.585,16_10_1.csv
2018-07-12T11:12:48.552592,0.116,-0.034,0.031,44.329,61.402,12.317,16_10_1.csv
2018-07-12T11:12:48.620775,-0.129,-0.094,0.093,55.854,-8.841,-3.902,16_10_1.csv
2018-07-12T11:12:48.667901,-1.072,-0.303,-0.007,48.232,72.317,-8.293,16_10_1.csv
2018-07-12T11:12:48.720040,-1.072,-0.303,-0.007,22.805,146.829,-5.61,16_10_1.csv
2018-07-12T11:12:48.779198,-2.884,-0.758,-0.416,-170.549,-91.585,-98.72,16_10_1.csv
