time,accel_x_list,accel_y_list,accel_z_list,gyro_x_list,gyro_y_list,gyro_z_list,filename
2018-07-12T11:01:20.639888,-0.959,-0.383,0.243,154.024,78.415,84.634,16_6_3.csv
2018-07-12T11:01:20.694533,-0.959,-0.383,0.243,168.476,69.939,133.049,16_6_3.csv
2018-07-12T11:01:20.756198,-1.188,-0.019,0.105,-82.073,42.256,100.793,16_6_3.csv
2018-07-12T11:01:20.806331,-1.461,-0.241,-0.388,-210.549,17.378,74.451,16_6_3.csv
2018-07-12T11:01:20.855462,-1.461,-0.241,-0.388,-341.951,-52.134,37.073,16_6_3.csv
2018-07-12T11:01:20.922641,-0.932,-0.601,-0.281,-326.463,-40.854,-39.695,16_6_3.csv
2018-07-12T11:01:20.984306,-0.83,-0.609,-0.158,-188.781,-30.366,-41.646,16_6_3.csv
2018-07-12T11:01:21.039954,-0.773,-0.282,-0.039,-17.927,-16.341,-2.012,16_6_3.csv
2018-07-12T11:01:21.089085,-0.773,-0.282,-0.039,-64.634,-17.622,-9.329,16_6_3.csv
2018-07-12T11:01:21.134706,-0.792,-0.304,0.029,-113.781,-14.695,-9.695,16_6_3.csv
2018-07-12T11:01:21.181331,-0.792,-0.304,0.029,-141.646,-14.756,-3.476,16_6_3.csv
2018-07-12T11:01:21.247006,-0.906,-0.551,0.061,-51.707,1.402,34.268,16_6_3.csv
2018-07-12T11:01:21.304158,-0.927,-0.481,0.126,-14.817,9.939,34.878,16_6_3.csv
2018-07-12T11:01:21.350782,-1.109,-0.397,0.043,2.439,23.415,19.329,16_6_3.csv
2018-07-12T11:01:21.396905,-1.109,-0.397,0.043,-20.305,11.951,8.354,16_6_3.csv
2018-07-12T11:01:21.445535,-1.405,-0.523,-0.06,-40.305,4.329,-6.707,16_6_3.csv
2018-07-12T11:01:21.509706,-0.953,-0.492,-0.021,-21.951,-56.159,-44.329,16_6_3.csv
2018-07-12T11:01:21.582901,-0.953,-0.492,-0.021,26.524,-19.512,-71.646,16_6_3.csv
2018-07-12T11:01:21.640054,-0.995,-0.369,-0.123,92.378,-17.073,-72.195,16_6_3.csv
2018-07-12T11:01:21.806500,-0.768,-0.287,-0.058,-2.988,-27.134,-54.207,16_6_3.csv
2018-07-12T11:01:21.866162,-0.76,-0.398,0.063,9.39,-19.329,-39.085,16_6_3.csv
2018-07-12T11:01:21.914794,-0.789,-0.433,0.131,-21.768,-18.78,-16.159,16_6_3.csv
2018-07-12T11:01:21.960416,-0.789,-0.433,0.131,-10.976,-3.415,6.463,16_6_3.csv
2018-07-12T11:01:22.022581,-0.897,-0.373,0.036,-12.927,5.061,31.829,16_6_3.csv
2018-07-12T11:01:22.081739,-1.287,-0.409,-0.196,-56.341,21.89,68.537,16_6_3.csv
2018-07-12T11:01:22.134881,-1.287,-0.409,-0.196,-72.927,32.195,97.134,16_6_3.csv
2018-07-12T11:01:22.187020,-1.171,-0.549,-0.048,-82.5,-2.378,116.159,16_6_3.csv
2018-07-12T11:01:22.243170,-0.829,-0.284,-0.068,-24.085,27.012,60.427,16_6_3.csv
2018-07-12T11:01:22.288290,-0.829,-0.284,-0.068,-24.268,13.659,13.72,16_6_3.csv
2018-07-12T11:01:22.348450,-0.971,-0.324,-0.185,-97.683,-27.012,-31.341,16_6_3.csv
2018-07-12T11:01:22.425656,-0.724,-0.474,-0.176,-129.39,-34.512,-23.902,16_6_3.csv
2018-07-12T11:01:22.498349,-0.821,-0.502,-0.09,-63.72,21.829,18.78,16_6_3.csv
2018-07-12T11:01:22.539961,-0.821,-0.502,-0.09,-12.012,37.256,46.463,16_6_3.csv
2018-07-12T11:01:22.592601,-0.955,-0.467,0.103,3.354,37.378,51.829,16_6_3.csv
2018-07-12T11:01:22.664793,-1.108,-0.389,0.166,-0.305,32.073,18.841,16_6_3.csv
2018-07-12T11:01:22.709412,-1.108,-0.389,0.166,-9.939,10.793,-2.744,16_6_3.csv
2018-07-12T11:01:22.772580,-1.112,-0.343,0.023,-65.427,-36.341,-56.524,16_6_3.csv
2018-07-12T11:01:22.822714,-1.324,-0.603,-0.134,-77.805,-29.451,-67.561,16_6_3.csv
2018-07-12T11:01:22.877861,-0.986,-0.521,-0.113,-6.28,-72.683,-63.476,16_6_3.csv
2018-07-12T11:01:22.952059,-0.986,-0.521,-0.113,44.939,-14.573,-82.561,16_6_3.csv
2018-07-12T11:01:23.016731,-1.003,-0.387,-0.192,114.756,-19.878,-86.22,16_6_3.csv
2018-07-12T11:01:23.152378,-0.814,-0.245,-0.097,30.61,-31.585,-62.805,16_6_3.csv
2018-07-12T11:01:23.197002,-0.624,-0.285,0.078,2.439,-14.329,-50.305,16_6_3.csv
2018-07-12T11:01:23.243125,-0.624,-0.285,0.078,18.963,11.402,-25.488,16_6_3.csv
2018-07-12T11:01:23.309303,-0.686,-0.241,0.155,12.744,20.366,11.524,16_6_3.csv
2018-07-12T11:01:23.372973,-1.015,-0.29,0.009,-61.524,30.061,104.756,16_6_3.csv
2018-07-12T11:01:23.443661,-1.62,-0.49,-0.522,-156.89,27.439,146.829,16_6_3.csv
2018-07-12T11:01:23.525379,-1.122,-0.845,-0.231,-116.281,-44.573,116.89,16_6_3.csv
2018-07-12T11:01:23.573006,-1.122,-0.845,-0.231,68.11,28.902,85.915,16_6_3.csv
2018-07-12T11:01:23.621134,-0.905,-0.186,-0.244,161.159,135.366,66.037,16_6_3.csv
2018-07-12T11:01:23.679790,-0.611,-0.524,-0.171,-121.342,-30.061,-66.28,16_6_3.csv
2018-07-12T11:01:23.760004,-0.611,-0.524,-0.171,-345.0,-75.854,-96.768,16_6_3.csv
2018-07-12T11:01:23.821668,-0.611,-0.524,-0.171,-267.866,-63.11,-66.159,16_6_3.csv
2018-07-12T11:01:23.885338,-0.85,-0.75,0.045,-2.622,25.488,29.756,16_6_3.csv
2018-07-12T11:01:23.930458,-1.167,-0.232,0.127,-1.829,21.098,24.573,16_6_3.csv
2018-07-12T11:01:23.978085,-1.167,-0.232,0.127,-135.244,-31.768,-27.927,16_6_3.csv
2018-07-12T11:01:24.023707,-1.105,-0.391,0.055,-169.39,-28.902,-89.695,16_6_3.csv
2018-07-12T11:01:24.084369,-1.161,-0.611,-0.06,-21.22,-35.854,-56.341,16_6_3.csv
2018-07-12T11:01:24.146033,-1.161,-0.611,-0.06,30.61,-40.061,-32.195,16_6_3.csv
2018-07-12T11:01:24.198172,-1.184,-0.488,-0.097,45.183,-31.829,-32.805,16_6_3.csv
2018-07-12T11:01:24.241788,-1.025,-0.427,-0.221,72.073,-24.451,-66.463,16_6_3.csv
2018-07-12T11:01:24.290919,-1.025,-0.427,-0.221,115.549,-16.098,-74.146,16_6_3.csv
2018-07-12T11:01:24.336540,-1.022,-0.338,-0.231,139.451,-23.354,-63.171,16_6_3.csv
2018-07-12T11:01:24.476413,-0.846,-0.256,-0.089,34.878,-16.524,-55.122,16_6_3.csv
2018-07-12T11:01:24.555123,-0.752,-0.312,-0.005,14.146,-7.988,-43.598,16_6_3.csv
2018-07-12T11:01:24.604756,-0.747,-0.327,0.104,27.744,18.659,-4.512,16_6_3.csv
2018-07-12T11:01:24.656895,-0.751,-0.324,0.153,30.0,30.915,27.866,16_6_3.csv
2018-07-12T11:01:24.710036,-0.751,-0.324,0.153,26.829,49.39,62.256,16_6_3.csv
2018-07-12T11:01:24.772703,-0.882,-0.422,0.063,86.22,113.476,129.695,16_6_3.csv
2018-07-12T11:01:24.838378,-1.419,-0.311,-0.095,95.549,136.159,149.878,16_6_3.csv
2018-07-12T11:01:24.912576,-1.402,-0.022,-0.292,-131.829,41.646,102.256,16_6_3.csv
2018-07-12T11:01:24.979254,-1.012,0.226,-0.498,-461.037,12.012,-39.268,16_6_3.csv
2018-07-12T11:01:25.024374,-1.012,0.226,-0.498,-596.403,17.927,-123.963,16_6_3.csv
2018-07-12T11:01:25.070998,-0.684,-0.748,-0.472,-469.024,-171.829,-191.829,16_6_3.csv
2018-07-12T11:01:25.123638,-0.684,-0.748,-0.472,-135.061,-72.439,-60.793,16_6_3.csv
2018-07-12T11:01:25.207361,-0.854,-0.268,-0.106,22.073,27.073,16.829,16_6_3.csv
2018-07-12T11:01:25.287575,-0.897,-0.338,-0.017,-10.793,30.061,20.0,16_6_3.csv
2018-07-12T11:01:25.354253,-0.897,-0.338,-0.017,-41.22,24.451,7.317,16_6_3.csv
2018-07-12T11:01:25.396365,-1.011,-0.394,0.074,-62.5,27.073,-19.512,16_6_3.csv
2018-07-12T11:01:25.447000,-1.259,-0.281,0.164,10.549,32.866,-19.939,16_6_3.csv
2018-07-12T11:01:25.498136,-1.259,-0.281,0.164,-7.927,14.878,-27.866,16_6_3.csv
2018-07-12T11:01:25.567822,-1.447,-0.14,-0.052,-135.366,-10.915,-53.963,16_6_3.csv
2018-07-12T11:01:25.628986,-0.969,-0.67,-0.099,-122.439,-126.585,-75.671,16_6_3.csv
2018-07-12T11:01:25.698671,-1.076,-0.346,-0.209,176.342,0.671,-64.878,16_6_3.csv
2018-07-12T11:01:25.756826,-1.076,-0.346,-0.209,162.683,-46.098,-74.085,16_6_3.csv
2018-07-12T11:01:25.866117,-0.828,-0.14,-0.079,-24.451,-60.122,-72.012,16_6_3.csv
2018-07-12T11:01:25.917755,-0.828,-0.14,-0.079,-89.634,-62.012,-87.256,16_6_3.csv
2018-07-12T11:01:25.993457,-0.617,-0.318,0.082,-21.28,-13.476,-39.634,16_6_3.csv
2018-07-12T11:01:26.053116,-0.703,-0.232,0.139,-8.11,8.537,51.585,16_6_3.csv
2018-07-12T11:01:26.106257,-0.953,-0.225,0.003,-53.902,15.915,83.537,16_6_3.csv
2018-07-12T11:01:26.150375,-0.953,-0.225,0.003,-94.573,14.573,105.61,16_6_3.csv
2018-07-12T11:01:26.199506,-1.501,-0.385,-0.314,-114.451,14.573,125.793,16_6_3.csv
2018-07-12T11:01:26.258162,-1.411,-0.546,-0.137,-135.244,-1.037,121.463,16_6_3.csv
2018-07-12T11:01:26.314813,-1.411,-0.546,-0.137,-108.963,-8.841,91.646,16_6_3.csv
2018-07-12T11:01:26.380489,-0.832,-0.399,-0.047,0.122,26.098,14.39,16_6_3.csv
2018-07-12T11:01:26.453683,-0.912,-0.192,-0.185,-71.768,-49.878,-36.89,16_6_3.csv
2018-07-12T11:01:26.522868,-0.747,-0.3,-0.151,-168.11,-54.39,-70.549,16_6_3.csv
2018-07-12T11:01:26.574004,-0.729,-0.559,-0.073,-167.012,-12.378,-28.415,16_6_3.csv
2018-07-12T11:01:26.621631,-0.729,-0.559,-0.073,-55.915,23.72,20.244,16_6_3.csv
2018-07-12T11:01:26.685802,-0.935,-0.436,0.06,8.11,41.829,47.744,16_6_3.csv
2018-07-12T11:01:26.757994,-1.129,-0.341,0.067,5.366,48.049,20.366,16_6_3.csv
2018-07-12T11:01:26.823168,-1.361,-0.393,0.0,8.78,18.659,-10.122,16_6_3.csv
2018-07-12T11:01:26.876310,-1.361,-0.393,0.0,11.037,0.427,-24.268,16_6_3.csv
2018-07-12T11:01:26.930454,-1.349,-0.406,-0.054,-4.268,-20.549,-44.695,16_6_3.csv
2018-07-12T11:01:26.996630,-1.019,-0.33,-0.141,42.744,-53.598,-83.415,16_6_3.csv
2018-07-12T11:01:27.053281,-1.019,-0.33,-0.141,111.951,-42.195,-74.329,16_6_3.csv
2018-07-12T11:01:27.184776,-0.822,-0.268,-0.129,35.549,-35.244,-49.939,16_6_3.csv
2018-07-12T11:01:27.242931,-0.738,-0.252,-0.079,24.573,-24.817,-38.537,16_6_3.csv
2018-07-12T11:01:27.287053,-0.738,-0.252,-0.079,17.195,-19.573,-23.293,16_6_3.csv
2018-07-12T11:01:27.350222,-0.707,-0.209,-0.002,-26.89,-2.134,0.0,16_6_3.csv
2018-07-12T11:01:27.401359,-0.849,-0.261,-0.041,-58.902,2.622,12.5,16_6_3.csv
2018-07-12T11:01:27.454000,-0.849,-0.261,-0.041,-73.902,14.573,41.402,16_6_3.csv
2018-07-12T11:01:27.536219,-1.28,-0.348,-0.219,-111.829,30.0,86.159,16_6_3.csv
2018-07-12T11:01:27.592369,-1.275,-0.481,-0.109,-87.805,17.256,84.878,16_6_3.csv
2018-07-12T11:01:27.651526,-1.064,-0.395,-0.02,-61.951,65.488,72.988,16_6_3.csv
2018-07-12T11:01:27.700156,-0.995,-0.276,-0.086,-47.195,-19.268,4.939,16_6_3.csv
2018-07-12T11:01:27.757809,-0.995,-0.276,-0.086,-84.146,-37.012,-33.415,16_6_3.csv
2018-07-12T11:01:27.819975,-0.726,-0.338,-0.037,-128.476,-26.951,-60.549,16_6_3.csv
2018-07-12T11:01:27.874621,-0.804,-0.46,-0.064,-92.805,-23.049,-23.841,16_6_3.csv
2018-07-12T11:01:27.948818,-0.915,-0.419,-0.052,-48.11,22.439,35.427,16_6_3.csv
2018-07-12T11:01:27.994440,-0.915,-0.419,-0.052,-22.5,22.622,31.585,16_6_3.csv
2018-07-12T11:01:28.038056,-1.098,-0.4,0.0,16.524,32.683,22.805,16_6_3.csv
2018-07-12T11:01:28.089694,-1.098,-0.4,0.0,37.134,31.951,13.415,16_6_3.csv
2018-07-12T11:01:28.161886,-1.417,-0.329,-0.122,-34.634,-12.378,-42.195,16_6_3.csv
2018-07-12T11:01:28.225556,-1.222,-0.472,-0.152,-8.902,-61.585,-72.866,16_6_3.csv
2018-07-12T11:01:28.288725,-0.908,-0.308,-0.164,60.976,-18.78,-85.305,16_6_3.csv
2018-07-12T11:01:28.336852,-0.908,-0.308,-0.164,125.854,-26.098,-78.049,16_6_3.csv
2018-07-12T11:01:28.383477,-0.94,-0.221,-0.117,67.561,-34.634,-61.098,16_6_3.csv
2018-07-12T11:01:28.427595,-0.839,-0.236,-0.073,37.866,-26.646,-43.963,16_6_3.csv
2018-07-12T11:01:28.547915,-0.748,-0.321,0.104,4.695,-6.28,6.646,16_6_3.csv
2018-07-12T11:01:28.631638,-0.829,-0.282,0.18,-2.439,5.976,34.817,16_6_3.csv
2018-07-12T11:01:28.681271,-0.951,-0.25,0.057,-38.841,-9.634,43.598,16_6_3.csv
2018-07-12T11:01:28.730903,-0.951,-0.25,0.057,-71.159,-11.646,50.671,16_6_3.csv
2018-07-12T11:01:28.773517,-1.253,-0.293,-0.25,-104.939,-15.183,52.561,16_6_3.csv
2018-07-12T11:01:28.823149,-1.253,-0.293,-0.25,-146.951,-14.573,52.378,16_6_3.csv
2018-07-12T11:01:28.885816,-1.319,-0.509,-0.304,-168.781,-54.634,45.061,16_6_3.csv
2018-07-12T11:01:28.947982,-0.861,-0.498,-0.079,23.841,63.659,39.878,16_6_3.csv
2018-07-12T11:01:29.024686,-1.033,-0.09,-0.17,28.72,7.988,9.085,16_6_3.csv
2018-07-12T11:01:29.073817,-0.725,-0.24,-0.062,-228.293,-70.549,-83.963,16_6_3.csv
2018-07-12T11:01:29.118435,-0.725,-0.24,-0.062,-268.902,-65.854,-85.549,16_6_3.csv
2018-07-12T11:01:29.179599,-0.648,-0.578,-0.081,-147.378,-32.927,-14.39,16_6_3.csv
2018-07-12T11:01:29.274853,-0.966,-0.386,-0.007,-8.659,27.317,69.329,16_6_3.csv
2018-07-12T11:01:29.330501,-1.078,-0.359,0.056,-29.817,33.476,47.134,16_6_3.csv
2018-07-12T11:01:29.386651,-1.078,-0.359,0.056,-26.768,41.22,18.171,16_6_3.csv
2018-07-12T11:01:29.431270,-1.243,-0.358,-0.021,-35.671,7.439,-24.695,16_6_3.csv
2018-07-12T11:01:29.478896,-1.367,-0.448,-0.088,-36.22,-15.732,-35.549,16_6_3.csv
2018-07-12T11:01:29.522513,-1.367,-0.448,-0.088,-29.329,-69.573,-46.159,16_6_3.csv
2018-07-12T11:01:29.583175,-0.934,-0.389,-0.082,-6.402,-55.976,-69.024,16_6_3.csv
2018-07-12T11:01:29.642334,-1.06,-0.168,-0.183,173.598,-29.512,-35.793,16_6_3.csv
2018-07-12T11:01:29.695975,-1.06,-0.168,-0.183,162.866,-48.232,-5.366,16_6_3.csv
2018-07-12T11:01:29.741597,-0.942,-0.133,-0.074,1.646,-53.598,-57.378,16_6_3.csv
2018-07-12T11:01:29.790227,-0.816,-0.323,-0.136,-37.561,-43.659,-64.268,16_6_3.csv
2018-07-12T11:01:29.846376,-0.816,-0.323,-0.136,-7.622,-48.415,-53.902,16_6_3.csv
2018-07-12T11:01:30.487606,-0.75,-0.359,0.0,-152.012,-9.451,-27.5,16_6_3.csv
2018-07-12T11:01:30.578350,-0.978,-0.424,0.148,-65.244,3.598,20.122,16_6_3.csv
2018-07-12T11:01:30.649539,-1.024,-0.447,0.165,70.366,38.232,40.915,16_6_3.csv
2018-07-12T11:01:30.695161,-1.109,-0.248,0.003,58.049,22.134,19.756,16_6_3.csv
2018-07-12T11:01:30.745295,-1.109,-0.248,0.003,9.085,-7.683,-8.11,16_6_3.csv
2018-07-12T11:01:30.790415,-1.36,-0.378,-0.081,-34.512,-21.037,-35.366,16_6_3.csv
2018-07-12T11:01:30.850074,-1.069,-0.435,-0.105,-6.341,-58.293,-43.171,16_6_3.csv
2018-07-12T11:01:30.933295,-1.068,-0.11,-0.132,129.878,-26.768,-35.61,16_6_3.csv
2018-07-12T11:01:31.022533,-0.965,-0.256,-0.102,-44.634,-61.341,-90.305,16_6_3.csv
2018-07-12T11:01:31.073669,-0.965,-0.256,-0.102,-48.537,-54.817,-89.207,16_6_3.csv
2018-07-12T11:01:31.138342,-0.743,-0.292,-0.052,-21.951,-40.0,-77.5,16_6_3.csv
2018-07-12T11:01:31.195996,-0.664,-0.286,0.149,-2.317,-14.817,-41.524,16_6_3.csv
2018-07-12T11:01:31.349993,-1.162,-0.302,-0.047,-47.012,23.72,100.793,16_6_3.csv
2018-07-12T11:01:31.423694,-1.603,-0.476,-0.286,-113.354,12.012,112.866,16_6_3.csv
2018-07-12T11:01:31.492379,-1.0,-0.557,0.001,-84.817,-16.341,64.817,16_6_3.csv
2018-07-12T11:01:31.540006,-1.0,-0.557,0.001,-17.988,19.085,22.012,16_6_3.csv
2018-07-12T11:01:31.587132,-0.863,-0.295,-0.093,40.488,41.28,-16.951,16_6_3.csv
2018-07-12T11:01:31.634759,-0.863,-0.295,-0.093,49.695,-13.354,-52.134,16_6_3.csv
2018-07-12T11:01:31.696424,-0.95,-0.016,-0.092,-115.854,-85.0,-110.427,16_6_3.csv
2018-07-12T11:01:31.772125,-0.71,-0.272,0.026,-239.39,-84.756,-86.585,16_6_3.csv
2018-07-12T11:01:31.819752,-0.724,-0.496,0.044,-138.171,-46.341,-14.817,16_6_3.csv
2018-07-12T11:01:31.877907,-0.724,-0.496,0.044,-77.866,-14.146,29.329,16_6_3.csv
2018-07-12T11:01:31.977171,-1.094,-0.534,-0.063,36.463,56.585,78.11,16_6_3.csv
2018-07-12T11:01:32.023294,-1.094,-0.534,-0.063,105.488,49.573,89.024,16_6_3.csv
2018-07-12T11:01:32.077940,-1.426,-0.254,-0.147,126.585,45.976,91.585,16_6_3.csv
2018-07-12T11:01:32.133588,-1.103,-0.384,-0.043,-81.585,-44.512,-32.622,16_6_3.csv
2018-07-12T11:01:32.180213,-1.103,-0.384,-0.043,-76.829,-57.256,-69.207,16_6_3.csv
2018-07-12T11:01:32.247893,-0.988,-0.469,-0.112,96.28,-40.366,-65.732,16_6_3.csv
2018-07-12T11:01:32.306549,-1.013,-0.254,-0.123,75.488,-65.0,-71.768,16_6_3.csv
2018-07-12T11:01:32.368715,-0.868,-0.271,-0.045,14.695,-41.646,-92.134,16_6_3.csv
2018-07-12T11:01:32.422358,-0.868,-0.271,-0.045,14.024,-36.707,-69.695,16_6_3.csv
2018-07-12T11:01:32.476503,-0.788,-0.255,0.005,39.268,-28.171,-34.756,16_6_3.csv
2018-07-12T11:01:32.522625,-0.77,-0.189,0.022,34.756,-22.683,-12.378,16_6_3.csv
2018-07-12T11:01:32.568748,-0.77,-0.189,0.022,-50.793,-18.659,7.988,16_6_3.csv
2018-07-12T11:01:32.646827,-0.887,-0.284,-0.04,-69.512,1.951,52.927,16_6_3.csv
2018-07-12T11:01:32.726542,-1.113,-0.356,-0.132,-85.732,36.463,98.293,16_6_3.csv
2018-07-12T11:01:32.811270,-1.524,-0.46,-0.233,-98.78,17.378,129.268,16_6_3.csv
2018-07-12T11:01:32.903518,-0.913,-0.417,-0.045,-67.317,56.341,35.427,16_6_3.csv
2018-07-12T11:01:32.945129,-0.955,-0.298,-0.133,-35.305,32.5,-18.78,16_6_3.csv
2018-07-12T11:01:32.995263,-0.955,-0.298,-0.133,-45.671,-10.183,-42.744,16_6_3.csv
2018-07-12T11:01:33.040383,-0.844,-0.258,-0.037,-91.646,-26.524,-58.841,16_6_3.csv
2018-07-12T11:01:33.112575,-0.78,-0.425,0.088,-144.878,-3.232,-50.61,16_6_3.csv
2018-07-12T11:01:33.177749,-0.974,-0.352,0.149,-8.476,29.756,17.378,16_6_3.csv
2018-07-12T11:01:33.229387,-0.974,-0.352,0.149,74.817,25.854,51.037,16_6_3.csv
2018-07-12T11:01:33.272502,-1.104,-0.036,0.084,110.976,23.415,56.829,16_6_3.csv
2018-07-12T11:01:33.326646,-1.146,-0.238,-0.005,-113.415,-20.061,-63.049,16_6_3.csv
2018-07-12T11:01:33.385302,-1.146,-0.238,-0.005,-130.732,-32.195,-67.5,16_6_3.csv
2018-07-12T11:01:33.449974,-1.395,-0.533,-0.123,-61.463,-53.72,-20.61,16_6_3.csv
2018-07-12T11:01:33.499105,-1.069,-0.429,-0.103,-33.476,-70.793,-29.634,16_6_3.csv
2018-07-12T11:01:33.553752,-1.069,-0.429,-0.103,2.988,-37.134,-72.988,16_6_3.csv
2018-07-12T11:01:33.603383,-1.135,-0.353,-0.21,38.841,-34.634,-112.744,16_6_3.csv
2018-07-12T11:01:33.653016,-1.089,-0.2,-0.18,87.805,-76.768,-94.268,16_6_3.csv
2018-07-12T11:01:33.700141,-1.089,-0.2,-0.18,36.28,-78.171,-102.317,16_6_3.csv
2018-07-12T11:01:33.771832,-0.785,-0.208,-0.019,-23.232,-49.268,-86.768,16_6_3.csv
2018-07-12T11:01:33.840014,-0.606,-0.216,0.113,5.549,-35.61,-50.061,16_6_3.csv
2018-07-12T11:01:33.913710,-0.615,-0.215,0.105,-83.415,2.378,-10.0,16_6_3.csv
2018-07-12T11:01:34.004452,-0.897,-0.555,-0.162,-154.512,4.146,54.939,16_6_3.csv
2018-07-12T11:01:34.073135,-1.515,-0.496,-0.499,-64.451,-21.098,158.415,16_6_3.csv
2018-07-12T11:01:34.121263,-1.515,-0.496,-0.499,-93.476,-44.817,180.183,16_6_3.csv
2018-07-12T11:01:34.183931,-1.282,-0.584,-0.169,-113.11,1.463,121.22,16_6_3.csv
2018-07-12T11:01:34.239579,-1.001,-0.398,-0.155,-47.5,75.427,46.829,16_6_3.csv
2018-07-12T11:01:34.305254,-0.799,-0.144,-0.203,-51.098,-38.476,-41.037,16_6_3.csv
2018-07-12T11:01:34.356390,-0.799,-0.144,-0.203,-128.598,-63.537,-66.22,16_6_3.csv
2018-07-12T11:01:34.420060,-0.639,-0.345,-0.164,-227.073,-77.134,-39.878,16_6_3.csv
2018-07-12T11:01:34.498269,-0.747,-0.576,-0.106,-120.915,-11.22,34.268,16_6_3.csv
2018-07-12T11:01:34.573970,-0.958,-0.585,0.018,9.573,50.183,57.5,16_6_3.csv
2018-07-12T11:01:34.627613,-1.146,-0.368,0.096,44.024,67.317,41.646,16_6_3.csv
2018-07-12T11:01:34.684765,-1.146,-0.368,0.096,20.976,49.695,6.402,16_6_3.csv
2018-07-12T11:01:34.746931,-1.44,-0.216,-0.003,-102.317,-11.098,-71.89,16_6_3.csv
2018-07-12T11:01:34.804585,-1.202,-0.476,-0.08,-153.476,-88.78,-118.902,16_6_3.csv
2018-07-12T11:01:34.851710,-1.202,-0.476,-0.08,-107.012,-95.915,-141.89,16_6_3.csv
2018-07-12T11:01:34.939444,-0.945,-0.289,-0.235,173.232,-38.476,-79.085,16_6_3.csv
2018-07-12T11:01:35.003115,-0.945,-0.289,-0.235,175.427,-6.341,-53.415,16_6_3.csv
2018-07-12T11:01:35.076811,-0.763,-0.189,-0.178,75.671,39.024,-25.793,16_6_3.csv
2018-07-12T11:01:35.132459,-0.686,-0.213,0.005,31.28,27.683,-23.72,16_6_3.csv
2018-07-12T11:01:35.181590,-0.819,-0.33,0.188,-6.463,35.488,16.28,16_6_3.csv
2018-07-12T11:01:35.226209,-0.819,-0.33,0.188,0.61,54.268,51.22,16_6_3.csv
2018-07-12T11:01:35.289377,-1.025,-0.289,0.072,-12.317,55.488,77.317,16_6_3.csv
2018-07-12T11:01:35.421228,-1.423,-0.488,-0.364,-149.146,-2.622,65.915,16_6_3.csv
2018-07-12T11:01:35.480386,-1.423,-0.488,-0.364,-139.329,-9.634,41.524,16_6_3.csv
2018-07-12T11:01:35.538541,-0.999,-0.408,-0.132,-59.878,16.159,-3.598,16_6_3.csv
2018-07-12T11:01:35.588675,-0.934,-0.266,-0.071,-147.744,-48.476,-77.988,16_6_3.csv
2018-07-12T11:01:35.633294,-0.934,-0.266,-0.071,-178.232,-78.049,-98.598,16_6_3.csv
2018-07-12T11:01:35.701977,-0.697,-0.36,-0.128,-106.159,-44.39,-65.122,16_6_3.csv
2018-07-12T11:01:35.754617,-0.73,-0.323,-0.095,-99.817,-37.866,-54.756,16_6_3.csv
2018-07-12T11:01:35.823802,-0.893,-0.38,0.044,-56.524,-7.744,6.22,16_6_3.csv
2018-07-12T11:01:35.875940,-0.893,-0.38,0.044,-20.854,5.793,37.134,16_6_3.csv
2018-07-12T11:01:35.929082,-0.944,-0.415,0.048,6.951,14.817,52.195,16_6_3.csv
2018-07-12T11:01:35.976208,-0.944,-0.415,0.048,13.293,26.768,43.354,16_6_3.csv
2018-07-12T11:01:36.033861,-1.082,-0.445,-0.068,57.317,26.768,51.037,16_6_3.csv
2018-07-12T11:01:36.103046,-1.46,-0.369,-0.146,-40.854,-6.159,-12.195,16_6_3.csv
2018-07-12T11:01:36.164209,-0.98,-0.473,-0.074,-42.012,-56.037,-30.061,16_6_3.csv
2018-07-12T11:01:36.208828,-0.98,-0.473,-0.074,3.598,-33.171,-54.39,16_6_3.csv
2018-07-12T11:01:36.259463,-0.923,-0.361,-0.122,66.098,-16.28,-81.524,16_6_3.csv
2018-07-12T11:01:36.323132,-1.03,-0.283,-0.15,87.988,-50.0,-67.805,16_6_3.csv
2018-07-12T11:01:36.387804,-0.889,-0.273,-0.118,30.61,-38.354,-55.549,16_6_3.csv
2018-07-12T11:01:36.451975,-0.889,-0.273,-0.118,16.037,-34.207,-50.366,16_6_3.csv
2018-07-12T11:01:36.506621,-0.62,-0.269,-0.123,22.195,-9.146,-28.11,16_6_3.csv
2018-07-12T11:01:36.552744,-0.688,-0.392,0.091,56.585,25.854,11.768,16_6_3.csv
2018-07-12T11:01:36.602878,-0.688,-0.392,0.091,97.439,94.024,64.878,16_6_3.csv
2018-07-12T11:01:36.648499,-1.083,-0.189,0.02,75.305,97.561,85.305,16_6_3.csv
2018-07-12T11:01:36.723700,-1.374,-0.145,-0.094,-81.646,42.073,43.415,16_6_3.csv
2018-07-12T11:01:36.794889,-1.34,-0.49,-0.041,-202.439,-10.122,28.11,16_6_3.csv
2018-07-12T11:01:36.868084,-1.061,-0.542,-0.008,-117.012,-16.89,25.488,16_6_3.csv
2018-07-12T11:01:36.913205,-1.061,-0.542,-0.008,-56.037,-46.829,-17.317,16_6_3.csv
2018-07-12T11:01:36.964341,-0.873,-0.295,-0.144,47.439,-39.512,-2.195,16_6_3.csv
2018-07-12T11:01:37.046560,-0.68,-0.155,-0.112,-71.951,-49.329,-67.561,16_6_3.csv
2018-07-12T11:01:37.122262,-0.727,-0.312,-0.044,-95.61,-40.366,-42.195,16_6_3.csv
2018-07-12T11:01:37.194455,-0.888,-0.291,0.041,-47.561,6.524,35.366,16_6_3.csv
2018-07-12T11:01:37.257623,-0.888,-0.291,0.041,-67.073,24.024,39.939,16_6_3.csv
2018-07-12T11:01:37.309260,-1.161,-0.349,0.199,-135.488,25.183,-17.683,16_6_3.csv
2018-07-12T11:01:37.361903,-1.302,-0.81,-0.07,-147.378,-14.878,-45.0,16_6_3.csv
2018-07-12T11:01:37.425069,-1.302,-0.81,-0.07,73.841,7.256,22.805,16_6_3.csv
2018-07-12T11:01:37.498265,-1.156,-0.352,-0.14,116.951,-39.878,7.256,16_6_3.csv
2018-07-12T11:01:37.539875,-0.942,-0.08,-0.081,44.634,-24.085,-34.512,16_6_3.csv
2018-07-12T11:01:37.587502,-0.974,-0.406,-0.144,-29.634,-42.805,-80.671,16_6_3.csv
2018-07-12T11:01:37.633124,-0.974,-0.406,-0.144,-16.463,-59.39,-57.866,16_6_3.csv
2018-07-12T11:01:37.715342,-0.856,-0.292,-0.158,-38.659,-47.683,-61.22,16_6_3.csv
2018-07-12T11:01:37.785028,-0.79,-0.312,-0.055,-43.659,-34.939,-56.89,16_6_3.csv
2018-07-12T11:01:37.865242,-0.81,-0.272,0.204,-4.878,9.695,3.049,16_6_3.csv
2018-07-12T11:01:37.915376,-0.947,-0.212,0.072,-82.439,-6.646,47.744,16_6_3.csv
2018-07-12T11:01:37.981050,-0.947,-0.212,0.072,-126.159,-26.585,48.902,16_6_3.csv
2018-07-12T11:01:38.086331,-1.494,-0.583,-0.398,-87.927,-5.976,87.134,16_6_3.csv
2018-07-12T11:01:38.153510,-1.024,-0.421,-0.175,-13.963,-33.537,64.39,16_6_3.csv
2018-07-12T11:01:38.215676,-1.024,-0.421,-0.175,-22.012,18.415,13.049,16_6_3.csv
2018-07-12T11:01:38.272828,-0.876,-0.263,-0.164,-39.756,-12.622,-63.354,16_6_3.csv
2018-07-12T11:01:38.319954,-0.82,-0.099,-0.061,-84.207,-49.329,-54.39,16_6_3.csv
2018-07-12T11:01:38.368584,-0.82,-0.099,-0.061,-205.183,-75.427,-71.341,16_6_3.csv
2018-07-12T11:01:38.413203,-0.658,-0.44,-0.027,-300.305,-81.768,-87.927,16_6_3.csv
2018-07-12T11:01:38.474366,-0.856,-0.653,0.067,-75.061,-14.512,29.329,16_6_3.csv
2018-07-12T11:01:38.533523,-0.856,-0.653,0.067,22.561,23.659,73.841,16_6_3.csv
2018-07-12T11:01:38.588671,-1.048,-0.38,0.01,85.915,30.305,77.866,16_6_3.csv
2018-07-12T11:01:38.639305,-1.043,-0.148,-0.062,39.39,9.573,14.39,16_6_3.csv
2018-07-12T11:01:38.695455,-1.043,-0.148,-0.062,-67.012,-23.354,-29.878,16_6_3.csv
2018-07-12T11:01:38.741578,-1.15,-0.436,-0.078,-93.598,-24.39,-37.561,16_6_3.csv
2018-07-12T11:01:38.802239,-1.255,-0.526,-0.042,-35.244,-4.878,2.134,16_6_3.csv
2018-07-12T11:01:38.863904,-1.255,-0.526,-0.042,-1.159,-36.707,2.988,16_6_3.csv
2018-07-12T11:01:38.929078,-0.911,-0.248,-0.058,102.378,-7.988,-56.28,16_6_3.csv
2018-07-12T11:01:38.973696,-1.075,-0.122,-0.11,88.841,-40.854,-58.354,16_6_3.csv
2018-07-12T11:01:39.023830,-1.075,-0.122,-0.11,-21.951,-68.476,-78.11,16_6_3.csv
2018-07-12T11:01:39.068950,-0.793,-0.385,-0.017,-51.402,-48.598,-67.988,16_6_3.csv
2018-07-12T11:01:39.139137,-0.848,-0.467,0.159,92.012,19.451,-5.61,16_6_3.csv
2018-07-12T11:01:39.215340,-1.013,-0.002,0.087,152.012,22.073,45.427,16_6_3.csv
2018-07-12T11:01:39.319618,-0.902,-0.147,0.082,-109.024,-34.268,1.341,16_6_3.csv
2018-07-12T11:01:39.371256,-1.033,-0.325,-0.028,-110.915,-33.232,32.195,16_6_3.csv
2018-07-12T11:01:39.457488,-1.326,-0.279,-0.345,-205.305,-33.963,50.122,16_6_3.csv
2018-07-12T11:01:39.511633,-1.326,-0.279,-0.345,-274.329,-56.22,24.451,16_6_3.csv
2018-07-12T11:01:39.580822,-0.941,-0.568,-0.086,-194.329,-4.756,14.634,16_6_3.csv
2018-07-12T11:01:39.644494,-0.814,-0.501,0.004,45.976,32.622,35.427,16_6_3.csv
2018-07-12T11:01:39.701145,-0.932,-0.062,-0.043,37.378,2.134,26.585,16_6_3.csv
2018-07-12T11:01:39.771332,-0.829,-0.287,-0.022,-235.183,-50.61,-61.829,16_6_3.csv
2018-07-12T11:01:39.820964,-0.829,-0.287,-0.022,-267.988,-52.744,-65.488,16_6_3.csv
2018-07-12T11:01:39.888143,-0.822,-0.736,0.008,40.305,32.012,73.659,16_6_3.csv
2018-07-12T11:01:39.950810,-0.956,-0.305,0.129,99.573,56.646,86.098,16_6_3.csv
2018-07-12T11:01:40.036037,-1.238,-0.209,0.021,-39.695,39.268,5.854,16_6_3.csv
2018-07-12T11:01:40.089179,-1.462,-0.508,-0.073,-54.146,-16.89,-27.866,16_6_3.csv
2018-07-12T11:01:40.137808,-1.462,-0.508,-0.073,-19.756,-24.817,-20.732,16_6_3.csv
2018-07-12T11:01:40.208998,-1.048,-0.376,-0.065,3.171,-54.085,-63.598,16_6_3.csv
2018-07-12T11:01:40.265649,-0.854,-0.26,-0.111,51.037,-34.756,-72.988,16_6_3.csv
2018-07-12T11:01:40.335335,-0.9,-0.358,-0.129,52.927,-45.549,-61.768,16_6_3.csv
2018-07-12T11:01:40.382962,-0.9,-0.358,-0.129,73.232,-31.28,-28.11,16_6_3.csv
2018-07-12T11:01:40.446130,-0.843,-0.318,-0.058,24.146,-3.11,-8.476,16_6_3.csv
2018-07-12T11:01:40.509824,-0.805,-0.32,0.028,25.427,6.463,-5.671,16_6_3.csv
2018-07-12T11:01:40.569985,-0.854,-0.278,0.082,26.159,3.049,0.183,16_6_3.csv
2018-07-12T11:01:40.615607,-0.854,-0.278,0.082,10.244,2.256,10.61,16_6_3.csv
2018-07-12T11:01:40.664737,-0.97,-0.252,0.041,-25.793,1.951,17.256,16_6_3.csv
2018-07-12T11:01:40.711863,-0.97,-0.252,0.041,-65.122,-0.061,20.976,16_6_3.csv
2018-07-12T11:01:40.990111,-0.875,-0.141,-0.087,8.049,-1.28,-13.232,16_6_3.csv
2018-07-12T11:01:41.046266,-0.745,-0.437,-0.018,-180.183,-80.549,-63.354,16_6_3.csv
2018-07-12T11:01:41.104420,-0.745,-0.437,-0.018,-133.11,-23.963,5.427,16_6_3.csv
2018-07-12T11:01:41.149041,-0.794,-0.508,-0.03,-61.037,17.378,61.037,16_6_3.csv
2018-07-12T11:01:41.216722,-0.976,-0.435,0.052,15.732,51.22,76.402,16_6_3.csv
2018-07-12T11:01:41.256829,-0.976,-0.435,0.052,31.098,48.171,59.451,16_6_3.csv
2018-07-12T11:01:41.319496,-1.136,-0.317,0.06,10.61,41.402,21.951,16_6_3.csv
2018-07-12T11:01:41.382163,-1.441,-0.427,-0.087,-34.39,-10.244,-37.134,16_6_3.csv
2018-07-12T11:01:41.453352,-1.222,-0.469,-0.131,-20.427,-52.134,-58.415,16_6_3.csv
2018-07-12T11:01:41.506995,-1.222,-0.469,-0.131,-8.537,-77.378,-76.463,16_6_3.csv
2018-07-12T11:01:41.555626,-0.838,-0.355,-0.119,21.829,-35.976,-109.695,16_6_3.csv
2018-07-12T11:01:41.600745,-0.838,-0.355,-0.119,60.366,-33.049,-119.268,16_6_3.csv
2018-07-12T11:01:41.658399,-0.934,-0.359,-0.119,123.537,-26.402,-50.549,16_6_3.csv
2018-07-12T11:01:41.720565,-0.916,-0.247,-0.046,92.622,-10.183,-35.732,16_6_3.csv
2018-07-12T11:01:41.772703,-0.831,-0.327,0.013,2.866,-15.793,-32.744,16_6_3.csv
2018-07-12T11:01:41.818827,-0.831,-0.327,0.013,-14.817,-13.11,-36.951,16_6_3.csv
2018-07-12T11:01:41.873472,-0.77,-0.375,0.075,-6.707,-6.098,-33.354,16_6_3.csv
2018-07-12T11:01:41.929622,-0.77,-0.375,0.075,1.402,-0.366,-15.183,16_6_3.csv
2018-07-12T11:01:41.994796,-0.814,-0.317,0.112,-27.744,12.378,39.024,16_6_3.csv
2018-07-12T11:01:42.076012,-1.126,-0.271,-0.216,-141.951,-4.024,65.671,16_6_3.csv
2018-07-12T11:01:42.180791,-0.952,-0.492,-0.084,47.378,78.598,138.781,16_6_3.csv
2018-07-12T11:01:42.228419,-0.952,-0.492,-0.084,88.049,67.744,88.598,16_6_3.csv
2018-07-12T11:01:42.274040,-0.873,-0.044,-0.071,15.427,9.512,30.061,16_6_3.csv
2018-07-12T11:01:42.319661,-0.873,-0.044,-0.071,-116.89,-40.427,-23.049,16_6_3.csv
2018-07-12T11:01:42.386840,-0.726,-0.305,-0.109,-235.061,-50.488,-36.341,16_6_3.csv
2018-07-12T11:01:42.447502,-0.862,-0.594,-0.1,-195.427,-45.61,-2.317,16_6_3.csv
2018-07-12T11:01:42.512676,-0.958,-0.458,0.063,-87.439,3.415,32.988,16_6_3.csv
2018-07-12T11:01:42.571833,-0.958,-0.458,0.063,-78.598,21.646,4.146,16_6_3.csv
2018-07-12T11:01:42.622970,-1.093,-0.393,0.029,-64.512,9.695,-40.366,16_6_3.csv
2018-07-12T11:01:42.679120,-1.299,-0.471,-0.066,-51.524,-13.902,-42.805,16_6_3.csv
2018-07-12T11:01:42.741786,-1.116,-0.521,-0.062,-24.817,-33.293,-37.134,16_6_3.csv
2018-07-12T11:01:42.803952,-1.116,-0.521,-0.062,5.427,-39.146,-47.195,16_6_3.csv
2018-07-12T11:01:42.867121,-0.981,-0.423,-0.132,107.744,-13.11,-84.146,16_6_3.csv
2018-07-12T11:01:42.935803,-1.121,-0.323,-0.168,143.293,-39.146,-44.207,16_6_3.csv
2018-07-12T11:01:42.992955,-0.928,-0.149,-0.048,68.841,-38.78,-64.085,16_6_3.csv
2018-07-12T11:01:43.038577,-0.928,-0.149,-0.048,-4.756,-46.951,-86.89,16_6_3.csv
2018-07-12T11:01:43.105255,-0.814,-0.273,0.042,2.866,-42.561,-56.707,16_6_3.csv
2018-07-12T11:01:43.153885,-0.77,-0.207,0.127,11.585,-29.939,-26.463,16_6_3.csv
2018-07-12T11:01:43.211037,-0.77,-0.207,0.127,-11.89,-22.866,5.793,16_6_3.csv
2018-07-12T11:01:43.266685,-0.833,-0.2,0.121,-77.927,-8.476,75.671,16_6_3.csv
2018-07-12T11:01:43.340883,-1.302,-0.246,-0.274,-196.098,-33.171,115.854,16_6_3.csv
2018-07-12T11:01:43.419593,-1.482,-0.608,-0.427,-256.524,-100.305,99.573,16_6_3.csv
2018-07-12T11:01:43.476745,-0.826,-0.619,-0.099,-122.927,17.5,92.5,16_6_3.csv
2018-07-12T11:01:43.604586,-0.919,-0.225,-0.196,-34.207,-26.707,6.098,16_6_3.csv
2018-07-12T11:01:43.651210,-0.765,-0.204,-0.111,-168.293,-41.402,-36.707,16_6_3.csv
2018-07-12T11:01:43.701845,-0.771,-0.593,-0.042,-218.293,-24.024,-16.28,16_6_3.csv
2018-07-12T11:01:43.769526,-0.771,-0.593,-0.042,-104.024,0.305,27.5,16_6_3.csv
2018-07-12T11:01:43.829686,-0.976,-0.479,0.147,-21.463,27.683,29.573,16_6_3.csv
2018-07-12T11:01:43.883329,-1.045,-0.375,0.172,-47.134,32.561,1.159,16_6_3.csv
2018-07-12T11:01:43.937974,-1.045,-0.375,0.172,-52.195,24.268,-14.329,16_6_3.csv
2018-07-12T11:01:43.993623,-1.362,-0.472,-0.06,-26.037,-5.793,-16.707,16_6_3.csv
2018-07-12T11:01:44.037740,-1.352,-0.443,-0.104,-27.5,-24.024,-37.317,16_6_3.csv
2018-07-12T11:01:44.100909,-1.352,-0.443,-0.104,-25.854,-39.39,-72.012,16_6_3.csv
2018-07-12T11:01:44.186637,-0.974,-0.297,-0.139,76.22,-41.646,-122.744,16_6_3.csv
2018-07-12T11:01:44.256323,-0.974,-0.297,-0.139,92.012,-44.756,-91.402,16_6_3.csv
2018-07-12T11:01:44.306457,-0.803,-0.239,-0.023,42.744,-7.805,-34.695,16_6_3.csv
2018-07-12T11:01:44.351577,-0.744,-0.261,0.051,33.476,-0.915,-13.293,16_6_3.csv
2018-07-12T11:01:44.398201,-0.744,-0.261,0.051,41.28,3.232,13.902,16_6_3.csv
2018-07-12T11:01:44.462372,-0.85,-0.233,0.1,3.537,3.293,52.561,16_6_3.csv
2018-07-12T11:01:44.529050,-0.983,-0.229,0.029,-39.085,-2.378,55.976,16_6_3.csv
2018-07-12T11:01:44.585199,-1.194,-0.31,-0.132,-104.024,-16.768,53.78,16_6_3.csv
2018-07-12T11:01:44.631322,-1.194,-0.31,-0.132,-129.146,-15.854,55.183,16_6_3.csv
2018-07-12T11:01:44.687973,-1.456,-0.46,-0.32,-165.183,-24.207,55.366,16_6_3.csv
2018-07-12T11:01:44.742118,-1.456,-0.46,-0.32,-177.012,-51.89,53.537,16_6_3.csv
2018-07-12T11:01:44.806289,-0.738,-0.579,0.015,2.012,63.963,56.707,16_6_3.csv
2018-07-12T11:01:44.912572,-0.818,-0.179,-0.062,-97.744,-46.402,-42.988,16_6_3.csv
2018-07-12T11:01:44.965212,-0.818,-0.179,-0.062,-175.183,-45.732,-61.098,16_6_3.csv
2018-07-12T11:01:45.010834,-0.713,-0.517,0.049,-164.573,-17.073,-36.28,16_6_3.csv
2018-07-12T11:01:45.056957,-0.713,-0.517,0.049,-71.829,15.183,12.195,16_6_3.csv
2018-07-12T11:01:45.102578,-0.936,-0.433,0.127,1.159,32.439,47.073,16_6_3.csv
2018-07-12T11:01:45.181789,-1.05,-0.291,0.128,-15.793,48.171,26.646,16_6_3.csv
2018-07-12T11:01:45.247966,-1.306,-0.372,-0.069,-33.049,14.573,-3.171,16_6_3.csv
2018-07-12T11:01:45.312638,-1.419,-0.492,-0.104,-34.146,-31.22,-20.183,16_6_3.csv
2018-07-12T11:01:45.398868,-0.957,-0.406,-0.112,-14.573,-53.415,-52.439,16_6_3.csv
2018-07-12T11:01:45.444991,-0.957,-0.406,-0.112,21.098,-34.573,-89.024,16_6_3.csv
2018-07-12T11:01:45.512671,-1.042,-0.378,-0.234,87.256,-63.415,-76.098,16_6_3.csv
2018-07-12T11:01:45.568319,-0.872,-0.284,-0.123,83.415,-56.402,-65.793,16_6_3.csv
2018-07-12T11:01:45.621461,-0.872,-0.284,-0.123,48.598,-24.39,-68.049,16_6_3.csv
2018-07-12T11:01:45.679115,-0.755,-0.281,-0.085,44.329,-3.11,-42.805,16_6_3.csv
2018-07-12T11:01:45.725238,-0.776,-0.218,-0.083,41.768,-5.0,-21.22,16_6_3.csv
2018-07-12T11:01:45.773867,-0.776,-0.218,-0.083,5.915,-5.244,-9.695,16_6_3.csv
2018-07-12T11:01:45.821494,-0.799,-0.25,-0.052,-35.61,0.915,0.366,16_6_3.csv
2018-07-12T11:01:45.882657,-1.051,-0.321,-0.076,-46.829,32.317,58.841,16_6_3.csv
2018-07-12T11:01:45.945325,-1.051,-0.321,-0.076,-59.512,36.22,88.902,16_6_3.csv
2018-07-12T11:01:46.023032,-1.457,-0.389,-0.215,-124.39,31.341,125.305,16_6_3.csv
2018-07-12T11:01:46.076173,-1.157,-0.563,0.009,-75.854,44.634,99.268,16_6_3.csv
2018-07-12T11:01:46.133827,-0.943,-0.372,-0.026,-16.89,51.89,32.073,16_6_3.csv
2018-07-12T11:01:46.185464,-0.943,-0.372,-0.026,11.707,8.415,-15.915,16_6_3.csv
2018-07-12T11:01:46.269188,-0.859,-0.18,-0.025,-73.232,-55.915,-75.61,16_6_3.csv
2018-07-12T11:01:46.338372,-0.765,-0.311,0.034,-163.415,-47.988,-73.232,16_6_3.csv
2018-07-12T11:01:46.418586,-0.829,-0.506,-0.028,-54.512,-13.232,-20.915,16_6_3.csv
2018-07-12T11:01:46.459696,-0.993,-0.415,0.047,12.805,13.598,-6.402,16_6_3.csv
2018-07-12T11:01:46.509829,-0.993,-0.415,0.047,51.463,30.793,-6.402,16_6_3.csv
2018-07-12T11:01:46.557456,-1.164,-0.212,-0.008,-30.244,-7.683,-34.451,16_6_3.csv
2018-07-12T11:01:46.620123,-1.423,-0.455,-0.132,-53.293,-15.061,-26.28,16_6_3.csv
2018-07-12T11:01:46.667249,-1.423,-0.455,-0.132,-46.037,-44.939,-3.598,16_6_3.csv
2018-07-12T11:01:46.726406,-0.963,-0.403,-0.116,28.537,-25.0,-41.22,16_6_3.csv
2018-07-12T11:01:46.792081,-0.935,-0.364,-0.125,38.902,-19.695,-76.22,16_6_3.csv
2018-07-12T11:01:46.840710,-0.979,-0.25,-0.081,94.939,-26.22,-38.902,16_6_3.csv
2018-07-12T11:01:46.889340,-0.979,-0.25,-0.081,56.585,-27.561,-34.451,16_6_3.csv
2018-07-12T11:01:46.968551,-0.834,-0.257,0.072,-11.89,-18.598,-36.585,16_6_3.csv
2018-07-12T11:01:47.035230,-0.831,-0.274,0.195,23.476,2.439,-7.988,16_6_3.csv
2018-07-12T11:01:47.105917,-0.903,-0.174,0.087,-24.207,-18.11,33.354,16_6_3.csv
2018-07-12T11:01:47.154046,-0.903,-0.174,0.087,-75.122,-30.915,37.927,16_6_3.csv
2018-07-12T11:01:47.212702,-0.994,-0.278,-0.098,-147.317,-42.378,47.439,16_6_3.csv
2018-07-12T11:01:47.256319,-1.339,-0.434,-0.331,-177.866,-36.585,50.305,16_6_3.csv
2018-07-12T11:01:47.331018,-1.021,-0.651,-0.065,-144.146,-44.451,91.585,16_6_3.csv
2018-07-12T11:01:47.390175,-1.021,-0.651,-0.065,-57.378,16.402,98.171,16_6_3.csv
2018-07-12T11:01:47.450336,-0.961,-0.382,-0.073,40.549,23.72,8.232,16_6_3.csv
2018-07-12T11:01:47.506987,-0.945,-0.132,-0.138,8.171,-31.524,-23.598,16_6_3.csv
2018-07-12T11:01:47.555115,-0.945,-0.132,-0.138,-72.439,-55.976,-67.073,16_6_3.csv
2018-07-12T11:01:47.655883,-0.786,-0.491,0.098,-154.817,-22.134,-33.841,16_6_3.csv
2018-07-12T11:01:47.729582,-0.938,-0.526,0.133,-25.549,15.0,50.122,16_6_3.csv
2018-07-12T11:01:47.794258,-0.938,-0.526,0.133,40.061,48.72,64.695,16_6_3.csv
2018-07-12T11:01:47.853418,-1.191,-0.239,0.118,10.793,53.902,42.5,16_6_3.csv
2018-07-12T11:01:47.899037,-1.313,-0.19,-0.074,-128.659,-12.561,-14.146,16_6_3.csv
2018-07-12T11:01:47.950174,-1.313,-0.19,-0.074,-214.512,-34.573,-61.463,16_6_3.csv
2018-07-12T11:01:48.009332,-1.166,-0.739,-0.094,-39.024,-68.415,-47.439,16_6_3.csv
2018-07-12T11:01:48.064980,-1.065,-0.442,-0.171,48.659,-25.793,-68.354,16_6_3.csv
2018-07-12T11:01:48.124639,-1.188,-0.246,-0.272,104.451,-71.341,-112.256,16_6_3.csv
2018-07-12T11:01:48.198837,-1.188,-0.246,-0.272,89.512,-83.963,-113.72,16_6_3.csv
2018-07-12T11:01:48.246464,-0.9,-0.206,-0.046,-35.488,-40.915,-114.268,16_6_3.csv
2018-07-12T11:01:48.303616,-0.748,-0.285,0.108,-20.0,-25.854,-77.012,16_6_3.csv
2018-07-12T11:01:48.349739,-0.748,-0.285,0.108,13.72,-28.232,-34.817,16_6_3.csv
2018-07-12T11:01:48.411403,-0.644,-0.102,0.245,-30.732,-27.744,29.024,16_6_3.csv
2018-07-12T11:01:48.472566,-0.762,-0.196,0.176,-73.963,-19.512,69.146,16_6_3.csv
2018-07-12T11:01:48.522700,-1.338,-0.406,-0.146,-116.342,-1.341,176.829,16_6_3.csv
2018-07-12T11:01:48.568824,-1.338,-0.406,-0.146,-146.524,-7.256,206.159,16_6_3.csv
2018-07-12T11:01:48.617452,-1.756,-0.648,-0.461,-161.342,-20.793,195.427,16_6_3.csv
2018-07-12T11:01:48.665581,-1.756,-0.648,-0.461,-133.659,-38.354,136.829,16_6_3.csv
2018-07-12T11:01:48.739778,-0.87,-0.408,0.0,-87.134,57.073,-33.11,16_6_3.csv
2018-07-12T11:01:48.800941,-0.855,-0.277,-0.19,-114.939,12.195,-94.817,16_6_3.csv
2018-07-12T11:01:48.931790,-0.591,-0.398,0.015,-153.659,-50.915,-60.732,16_6_3.csv
2018-07-12T11:01:49.038575,-0.852,-0.478,0.032,-52.317,49.146,63.11,16_6_3.csv
2018-07-12T11:01:49.088708,-1.104,-0.354,0.137,26.22,79.634,113.72,16_6_3.csv
2018-07-12T11:01:49.131823,-1.104,-0.354,0.137,5.244,80.61,88.049,16_6_3.csv
2018-07-12T11:01:49.209029,-1.245,-0.314,0.08,-32.988,16.159,14.512,16_6_3.csv
2018-07-12T11:01:49.269189,-1.341,-0.394,-0.047,-55.61,-13.293,-18.293,16_6_3.csv
2018-07-12T11:01:49.321830,-1.341,-0.394,-0.047,-85.671,-34.573,-47.378,16_6_3.csv
2018-07-12T11:01:49.366449,-1.0,-0.571,-0.083,-63.963,-74.756,-57.561,16_6_3.csv
2018-07-12T11:01:49.418588,-0.951,-0.488,-0.175,66.037,-16.037,-70.854,16_6_3.csv
2018-07-12T11:01:49.475241,-0.951,-0.488,-0.175,131.281,-15.244,-68.11,16_6_3.csv
2018-07-12T11:01:49.554454,-1.206,-0.361,-0.27,212.561,-25.793,-37.012,16_6_3.csv
2018-07-12T11:01:49.614616,-0.944,-0.117,-0.062,7.012,-26.22,-87.195,16_6_3.csv
2018-07-12T11:01:49.682801,-0.766,-0.261,-0.016,-16.037,-32.134,-101.098,16_6_3.csv
2018-07-12T11:01:49.730929,-0.755,-0.252,0.085,30.427,-16.159,-54.817,16_6_3.csv
2018-07-12T11:01:49.789084,-0.755,-0.252,0.085,19.573,-2.866,-15.915,16_6_3.csv
2018-07-12T11:01:49.840220,-0.804,-0.104,0.05,-7.317,5.671,20.61,16_6_3.csv
2018-07-12T11:01:49.898877,-1.151,-0.274,-0.218,-127.5,-3.841,67.866,16_6_3.csv
2018-07-12T11:01:49.959538,-1.151,-0.274,-0.218,-149.512,-8.78,104.939,16_6_3.csv
2018-07-12T11:01:50.023208,-1.454,-0.602,-0.197,-79.756,25.732,153.842,16_6_3.csv
2018-07-12T11:01:50.070333,-0.897,-0.514,0.038,-8.171,75.244,144.268,16_6_3.csv
2018-07-12T11:01:50.122472,-0.897,-0.514,0.038,67.134,107.927,103.842,16_6_3.csv
2018-07-12T11:01:50.178622,-1.102,-0.147,-0.204,-33.841,-33.537,-21.829,16_6_3.csv
2018-07-12T11:01:50.241791,-0.87,-0.222,-0.094,-147.195,-67.561,-79.817,16_6_3.csv
2018-07-12T11:01:50.592471,-1.316,-0.394,-0.039,14.817,-16.28,-6.098,16_6_3.csv
2018-07-12T11:01:50.645612,-1.294,-0.542,-0.135,49.695,-28.963,10.183,16_6_3.csv
2018-07-12T11:01:50.707782,-0.788,-0.276,-0.141,103.902,-35.793,-5.732,16_6_3.csv
2018-07-12T11:01:50.770451,-0.788,-0.276,-0.141,188.232,3.11,-7.073,16_6_3.csv
2018-07-12T11:01:50.818580,-1.155,-0.093,-0.173,6.768,-65.0,-56.28,16_6_3.csv
2018-07-12T11:01:50.868211,-0.96,-0.361,-0.112,-65.0,-73.598,-81.707,16_6_3.csv
2018-07-12T11:01:50.913833,-0.96,-0.361,-0.112,-55.427,-57.378,-81.098,16_6_3.csv
2018-07-12T11:01:51.024127,-0.791,-0.188,0.113,95.061,2.622,-2.012,16_6_3.csv
2018-07-12T11:01:51.111861,-0.896,-0.165,0.095,-17.744,-5.122,12.195,16_6_3.csv
2018-07-12T11:01:51.194582,-1.026,-0.249,-0.07,-99.451,-11.159,29.329,16_6_3.csv
2018-07-12T11:01:51.246721,-1.026,-0.249,-0.07,-141.342,-9.085,32.378,16_6_3.csv
2018-07-12T11:01:51.287830,-1.464,-0.428,-0.363,-192.5,-10.427,44.085,16_6_3.csv
2018-07-12T11:01:51.338966,-0.951,-0.629,-0.038,-162.866,-35.305,91.524,16_6_3.csv
2018-07-12T11:01:51.388599,-0.951,-0.629,-0.038,-57.805,43.902,86.402,16_6_3.csv
2018-07-12T11:01:51.459287,-0.915,-0.334,-0.165,40.366,12.866,16.89,16_6_3.csv
2018-07-12T11:01:51.523959,-0.908,-0.154,-0.133,-26.524,-30.061,-8.049,16_6_3.csv
2018-07-12T11:01:51.587128,-0.701,-0.413,-0.1,-180.915,-21.28,-36.22,16_6_3.csv
2018-07-12T11:01:51.633752,-0.701,-0.413,-0.1,-160.854,1.341,-14.634,16_6_3.csv
2018-07-12T11:01:51.776645,-1.054,-0.38,0.165,25.793,63.049,51.341,16_6_3.csv
2018-07-12T11:01:51.837311,-1.198,-0.347,0.043,13.11,47.805,-9.024,16_6_3.csv
2018-07-12T11:01:51.903487,-1.288,-0.386,-0.112,38.293,-31.524,-38.171,16_6_3.csv
2018-07-12T11:01:51.954626,-1.288,-0.386,-0.112,144.634,-17.866,-86.707,16_6_3.csv
2018-07-12T11:01:52.043363,-1.105,-0.438,-0.199,562.317,42.683,58.659,16_6_3.csv
2018-07-12T11:01:52.091491,-0.93,0.017,-0.174,238.171,-36.22,97.134,16_6_3.csv
2018-07-12T11:01:52.148142,-1.173,-0.554,0.004,-150.0,-18.171,30.793,16_6_3.csv
2018-07-12T11:01:52.205796,-1.173,-0.554,0.004,57.622,-119.756,-1.037,16_6_3.csv
2018-07-12T11:01:52.288015,-0.871,-0.058,0.021,-415.427,-40.427,2.195,16_6_3.csv
2018-07-12T11:01:52.355695,-0.831,-0.603,-0.011,-18.049,-60.366,-16.951,16_6_3.csv
2018-07-12T11:01:52.400815,-0.701,-0.235,0.16,38.476,-15.488,-4.207,16_6_3.csv
2018-07-12T11:01:52.461979,-0.701,-0.235,0.16,27.378,10.915,10.854,16_6_3.csv
2018-07-12T11:01:52.522640,-0.77,-0.107,0.139,-113.902,25.488,25.732,16_6_3.csv
2018-07-12T11:01:52.583803,-1.005,-0.375,0.032,-182.439,42.927,73.11,16_6_3.csv
2018-07-12T11:01:52.655494,-1.5,-0.765,-0.159,-219.817,35.366,84.573,16_6_3.csv
2018-07-12T11:01:52.712145,-1.171,-0.756,0.133,-165.671,28.049,70.244,16_6_3.csv
2018-07-12T11:01:52.758268,-1.171,-0.756,0.133,-62.012,68.354,16.646,16_6_3.csv
2018-07-12T11:01:52.804391,-0.932,-0.416,0.03,6.098,53.11,-50.61,16_6_3.csv
2018-07-12T11:01:52.863549,-0.932,-0.416,0.03,9.817,-33.415,-46.159,16_6_3.csv
2018-07-12T11:01:52.933234,-0.824,-0.19,0.03,-99.817,-115.061,-45.244,16_6_3.csv
2018-07-12T11:01:52.993395,-0.734,-0.223,0.084,-210.183,-100.854,-37.195,16_6_3.csv
2018-07-12T11:01:53.081129,-0.747,-0.405,0.098,-138.11,-36.89,-6.28,16_6_3.csv
2018-07-12T11:01:53.133360,-0.943,-0.41,0.342,-46.341,34.634,17.134,16_6_3.csv
2018-07-12T11:01:53.177981,-0.943,-0.41,0.342,30.549,88.293,36.341,16_6_3.csv
2018-07-12T11:01:53.241651,-1.18,-0.215,0.118,-102.866,-0.793,25.244,16_6_3.csv
2018-07-12T11:01:53.315848,-1.362,-0.647,0.01,-92.805,-76.402,-14.634,16_6_3.csv
2018-07-12T11:01:53.366985,-1.241,-0.721,0.065,-12.256,-63.72,-7.134,16_6_3.csv
2018-07-12T11:01:53.432158,-0.908,-0.416,-0.019,88.049,-64.756,-65.427,16_6_3.csv
2018-07-12T11:01:53.482292,-0.908,-0.416,-0.019,107.561,-76.463,-74.573,16_6_3.csv
2018-07-12T11:01:53.555015,-0.831,-0.358,-0.001,104.695,-54.146,-33.415,16_6_3.csv
2018-07-12T11:01:53.614675,-0.75,-0.302,0.068,76.463,-22.317,-10.793,16_6_3.csv
2018-07-12T11:01:53.672833,-0.751,-0.292,0.112,6.28,-1.341,6.159,16_6_3.csv
2018-07-12T11:01:53.726979,-0.751,-0.292,0.112,-16.402,-2.988,9.756,16_6_3.csv
2018-07-12T11:01:53.819225,-0.842,-0.285,0.249,4.512,41.28,10.122,16_6_3.csv
2018-07-12T11:01:53.890416,-0.956,-0.235,0.19,-34.451,33.354,36.28,16_6_3.csv
2018-07-12T11:01:53.966619,-1.128,-0.378,0.064,-95.915,22.317,54.573,16_6_3.csv
2018-07-12T11:01:54.022266,-1.356,-0.633,-0.034,-128.232,15.793,53.902,16_6_3.csv
2018-07-12T11:01:54.069392,-1.356,-0.633,-0.034,-146.524,9.817,52.378,16_6_3.csv
2018-07-12T11:01:54.122534,-0.921,-0.549,0.158,-30.915,62.134,-2.866,16_6_3.csv
2018-07-12T11:01:54.194225,-0.936,-0.307,0.045,-42.012,-37.561,-29.634,16_6_3.csv
2018-07-12T11:01:54.272433,-0.817,-0.215,0.087,-149.756,-106.342,-52.866,16_6_3.csv
2018-07-12T11:01:54.338609,-0.706,-0.366,0.189,-127.683,-75.732,-40.061,16_6_3.csv
2018-07-12T11:01:54.388743,-0.706,-0.366,0.189,-94.878,-39.39,-17.683,16_6_3.csv
2018-07-12T11:01:54.933235,-0.836,-0.279,0.077,13.293,-82.012,-52.134,16_6_3.csv
2018-07-12T11:01:54.981364,-0.709,-0.242,0.139,15.061,-63.902,-31.768,16_6_3.csv
2018-07-12T11:01:55.066595,-0.723,-0.202,0.146,-8.963,-30.305,5.915,16_6_3.csv
2018-07-12T11:01:55.131775,-0.876,-0.316,0.136,-53.476,13.78,45.0,16_6_3.csv
2018-07-12T11:01:55.195447,-0.876,-0.316,0.136,-67.439,37.195,63.354,16_6_3.csv
2018-07-12T11:01:55.240567,-1.213,-0.445,0.014,-109.207,57.256,75.305,16_6_3.csv
2018-07-12T11:01:55.290199,-1.452,-0.536,0.032,-152.927,38.415,78.476,16_6_3.csv
2018-07-12T11:01:55.337325,-1.452,-0.536,0.032,-203.171,33.841,82.317,16_6_3.csv
2018-07-12T11:01:55.396482,-0.943,-0.558,0.129,-250.671,13.415,38.049,16_6_3.csv
2018-07-12T11:01:55.454136,-0.923,-0.614,0.072,-42.134,-10.732,-4.146,16_6_3.csv
2018-07-12T11:01:55.512291,-0.923,-0.614,0.072,24.939,-26.28,2.683,16_6_3.csv
2018-07-12T11:01:55.554905,-0.772,-0.238,0.12,-2.439,-54.512,-28.78,16_6_3.csv
2018-07-12T11:01:55.603534,-0.707,-0.338,0.166,-83.293,-50.366,-53.049,16_6_3.csv
2018-07-12T11:01:55.648654,-0.707,-0.338,0.166,-64.024,-17.256,-24.756,16_6_3.csv
2018-07-12T11:01:55.712324,-0.886,-0.355,0.23,-41.707,15.61,5.305,16_6_3.csv
2018-07-12T11:01:55.917197,-1.234,-0.441,0.147,-12.622,6.829,9.817,16_6_3.csv
2018-07-12T11:01:55.979365,-1.381,-0.552,0.083,-22.622,-54.451,-1.829,16_6_3.csv
2018-07-12T11:01:56.037021,-1.071,-0.517,0.011,0.183,-68.171,-16.22,16_6_3.csv
2018-07-12T11:01:56.085651,-0.975,-0.486,-0.029,45.244,-115.671,-56.646,16_6_3.csv
2018-07-12T11:01:56.152328,-0.975,-0.486,-0.029,70.244,-107.439,-45.183,16_6_3.csv
2018-07-12T11:01:56.219507,-0.847,-0.332,0.041,45.427,-67.927,-45.0,16_6_3.csv
2018-07-12T11:01:56.300222,-0.769,-0.267,0.111,21.951,-36.098,-10.0,16_6_3.csv
2018-07-12T11:01:56.354367,-0.744,-0.179,0.184,19.085,-15.0,11.524,16_6_3.csv
2018-07-12T11:01:56.398484,-0.744,-0.179,0.184,-4.634,-0.61,27.439,16_6_3.csv
2018-07-12T11:01:56.461151,-0.814,-0.186,0.169,-86.22,15.305,52.988,16_6_3.csv
2018-07-12T11:01:56.510283,-1.122,-0.383,0.042,-112.561,29.939,74.451,16_6_3.csv
2018-07-12T11:01:56.573952,-1.549,-0.723,-0.13,-195.915,11.463,96.28,16_6_3.csv
2018-07-12T11:01:56.631104,-1.549,-0.723,-0.13,-218.537,-7.744,96.22,16_6_3.csv
2018-07-12T11:01:56.685248,-0.908,-0.679,0.198,-50.183,81.159,37.195,16_6_3.csv
2018-07-12T11:01:56.732875,-0.916,-0.476,0.013,37.622,61.951,0.549,16_6_3.csv
2018-07-12T11:01:56.774988,-0.916,-0.476,0.013,51.402,-0.549,6.524,16_6_3.csv
2018-07-12T11:01:56.820108,-0.863,-0.23,-0.009,-12.5,-56.768,-2.317,16_6_3.csv
2018-07-12T11:01:56.885783,-0.593,-0.426,0.147,-193.842,-72.073,-55.244,16_6_3.csv
2018-07-12T11:01:56.949453,-0.593,-0.426,0.147,-152.256,-13.841,-37.378,16_6_3.csv
2018-07-12T11:01:57.005602,-0.838,-0.502,0.242,4.573,78.537,18.78,16_6_3.csv
2018-07-12T11:01:57.054733,-1.161,-0.256,0.313,22.134,95.183,9.146,16_6_3.csv
2018-07-12T11:01:57.102360,-1.161,-0.256,0.313,7.5,82.622,-19.39,16_6_3.csv
2018-07-12T11:01:57.209313,-1.274,-0.408,0.075,-33.415,-78.78,-11.768,16_6_3.csv
2018-07-12T11:01:57.271484,-1.274,-0.408,0.075,-41.768,-105.427,-22.195,16_6_3.csv
2018-07-12T11:01:57.356211,-1.228,-0.545,0.133,-45.793,-96.89,5.671,16_6_3.csv
2018-07-12T11:01:57.413364,-0.917,-0.413,0.015,49.024,-90.976,-70.976,16_6_3.csv
2018-07-12T11:01:57.465001,-0.966,-0.454,-0.011,66.463,-97.317,-54.634,16_6_3.csv
2018-07-12T11:01:57.543711,-0.799,-0.309,0.158,94.146,-28.902,-4.207,16_6_3.csv
2018-07-12T11:01:57.600863,-0.799,-0.309,0.158,80.488,6.402,-9.146,16_6_3.csv
2018-07-12T11:01:57.649493,-0.828,-0.185,0.219,111.829,46.098,16.768,16_6_3.csv
2018-07-12T11:01:57.712661,-0.813,-0.011,0.211,57.439,21.707,30.732,16_6_3.csv
2018-07-12T11:01:57.770817,-0.82,-0.137,0.23,-51.28,13.537,29.695,16_6_3.csv
2018-07-12T11:01:57.819948,-0.82,-0.137,0.23,-72.622,34.756,42.195,16_6_3.csv
2018-07-12T11:01:57.865569,-1.148,-0.303,0.019,-120.244,35.671,57.683,16_6_3.csv
2018-07-12T11:01:57.913196,-1.148,-0.303,0.019,-205.488,8.354,61.22,16_6_3.csv
2018-07-12T11:01:57.961324,-1.427,-0.703,-0.252,-299.329,-42.561,45.976,16_6_3.csv
2018-07-12T11:01:58.033016,-0.863,-0.724,0.132,-251.098,-15.305,31.89,16_6_3.csv
2018-07-12T11:01:58.097187,-0.865,-0.339,0.074,66.402,139.573,3.72,16_6_3.csv
2018-07-12T11:01:58.167373,-0.865,-0.339,0.074,68.171,94.085,28.72,16_6_3.csv
2018-07-12T11:01:58.215501,-0.991,-0.17,-0.029,-127.927,-50.366,-18.78,16_6_3.csv
2018-07-12T11:01:58.273155,-0.774,-0.485,0.107,-182.073,-62.256,-52.012,16_6_3.csv
2018-07-12T11:01:58.321785,-0.774,-0.485,0.107,-141.89,-29.634,-37.195,16_6_3.csv
2018-07-12T11:01:58.393476,-0.827,-0.593,0.229,30.488,67.134,15.061,16_6_3.csv
2018-07-12T11:01:58.450628,-1.086,-0.274,0.252,53.415,79.878,6.28,16_6_3.csv
2018-07-12T11:01:58.585991,-1.52,-0.289,-0.042,-104.756,-80.549,-39.024,16_6_3.csv
2018-07-12T11:01:58.633120,-1.52,-0.289,-0.042,-224.512,-157.012,-26.585,16_6_3.csv
2018-07-12T11:01:58.684256,-1.044,-0.819,0.042,-142.744,-175.976,16.341,16_6_3.csv
2018-07-12T11:01:58.733390,-1.044,-0.819,0.042,70.854,-91.098,-25.549,16_6_3.csv
2018-07-12T11:01:58.802575,-0.891,-0.504,-0.005,151.646,-67.805,-47.5,16_6_3.csv
2018-07-12T11:01:58.884794,-0.875,-0.374,-0.037,133.415,-24.573,-12.744,16_6_3.csv
2018-07-12T11:01:58.945957,-0.83,-0.307,0.042,8.598,-38.537,-14.939,16_6_3.csv
2018-07-12T11:01:59.001605,-0.769,-0.324,0.133,-3.415,-39.268,-19.756,16_6_3.csv
2018-07-12T11:01:59.064773,-0.815,-0.233,0.173,21.524,-3.659,-25.122,16_6_3.csv
2018-07-12T11:01:59.155515,-0.958,-0.222,0.142,-20.366,28.293,18.476,16_6_3.csv
2018-07-12T11:01:59.214673,-0.958,-0.222,0.142,-60.61,43.78,36.22,16_6_3.csv
2018-07-12T11:01:59.258791,-1.376,-0.358,-0.021,-159.695,52.012,62.744,16_6_3.csv
2018-07-12T11:01:59.317948,-1.074,-0.548,0.102,-229.39,18.354,81.951,16_6_3.csv
2018-07-12T11:01:59.382620,-0.938,-0.619,0.153,-41.22,97.683,46.646,16_6_3.csv
2018-07-12T11:01:59.445288,-0.938,-0.619,0.153,54.695,91.098,52.927,16_6_3.csv
2018-07-12T11:01:59.497426,-0.957,-0.305,0.103,56.951,56.098,47.134,16_6_3.csv
2018-07-12T11:01:59.555581,-0.824,-0.283,0.146,-91.22,-21.646,-30.366,16_6_3.csv
2018-07-12T11:01:59.600702,-0.824,-0.283,0.146,-132.012,-36.159,-45.305,16_6_3.csv
2018-07-12T11:01:59.669385,-0.847,-0.481,0.171,-82.012,-16.22,-29.939,16_6_3.csv
2018-07-12T11:01:59.729545,-1.042,-0.356,0.232,-36.402,6.646,-27.5,16_6_3.csv
2018-07-12T11:01:59.790708,-1.196,-0.329,0.127,-72.256,-31.646,-49.695,16_6_3.csv
2018-07-12T11:02:00.522180,-1.131,-0.354,0.104,-51.463,44.695,34.939,16_6_3.csv
2018-07-12T11:02:00.572319,-1.131,-0.354,0.104,-75.305,40.671,43.902,16_6_3.csv
2018-07-12T11:02:00.617440,-1.408,-0.587,-0.011,-99.329,25.976,53.598,16_6_3.csv
2018-07-12T11:02:00.684624,-0.968,-0.471,0.067,-85.915,27.866,59.512,16_6_3.csv
2018-07-12T11:02:00.761833,-0.879,-0.392,-0.01,-74.024,-34.39,-18.841,16_6_3.csv
2018-07-12T11:02:00.820991,-0.879,-0.392,-0.01,-87.866,-62.988,-3.415,16_6_3.csv
2018-07-12T11:02:00.867615,-0.721,-0.374,0.055,-137.622,-51.951,-3.293,16_6_3.csv
2018-07-12T11:02:00.914239,-0.717,-0.439,0.12,-136.342,-24.39,-3.841,16_6_3.csv
2018-07-12T11:02:00.960863,-0.717,-0.439,0.12,-98.537,3.72,6.28,16_6_3.csv
2018-07-12T11:02:01.050603,-0.985,-0.458,0.211,-40.0,47.744,20.122,16_6_3.csv
2018-07-12T11:02:01.112267,-1.063,-0.306,0.225,-42.012,21.646,-22.439,16_6_3.csv
2018-07-12T11:02:01.163404,-1.153,-0.356,0.147,-55.793,-12.805,-39.817,16_6_3.csv
2018-07-12T11:02:01.352177,-1.015,-0.475,0.071,36.951,-52.378,-9.695,16_6_3.csv
2018-07-12T11:02:01.402280,-0.944,-0.344,0.007,65.183,-69.573,-44.085,16_6_3.csv
2018-07-12T11:02:01.453422,-0.944,-0.344,0.007,41.829,-84.939,-45.549,16_6_3.csv
2018-07-12T11:02:01.527622,-0.938,-0.409,-0.007,46.646,-67.927,-25.549,16_6_3.csv
2018-07-12T11:02:01.589789,-0.823,-0.329,0.049,5.793,-40.305,-19.085,16_6_3.csv
2018-07-12T11:02:01.649451,-0.747,-0.269,0.177,0.671,-17.683,-8.72,16_6_3.csv
2018-07-12T11:02:01.700588,-0.747,-0.269,0.177,5.854,6.463,-3.232,16_6_3.csv
2018-07-12T11:02:01.743703,-0.849,-0.23,0.208,0.488,19.695,10.61,16_6_3.csv
2018-07-12T11:02:01.805368,-0.936,-0.26,0.167,-54.512,21.159,39.695,16_6_3.csv
2018-07-12T11:02:01.870040,-1.099,-0.407,0.005,-99.573,10.427,45.976,16_6_3.csv
2018-07-12T11:02:01.916664,-1.099,-0.407,0.005,-119.268,9.756,39.146,16_6_3.csv
2018-07-12T11:02:01.965795,-1.482,-0.688,-0.087,-142.683,4.817,43.049,16_6_3.csv
2018-07-12T11:02:02.014926,-1.482,-0.688,-0.087,-144.634,14.207,59.329,16_6_3.csv
2018-07-12T11:02:02.084611,-0.859,-0.532,0.165,7.378,90.183,1.22,16_6_3.csv
2018-07-12T11:02:02.161817,-0.884,-0.252,0.004,-25.549,-29.146,-2.195,16_6_3.csv
2018-07-12T11:02:02.225487,-0.852,-0.273,0.059,-119.39,-80.427,-3.659,16_6_3.csv
2018-07-12T11:02:02.291663,-0.73,-0.444,0.146,-187.195,-57.195,-8.293,16_6_3.csv
2018-07-12T11:02:02.336282,-0.73,-0.444,0.146,-146.646,-26.89,-9.451,16_6_3.csv
2018-07-12T11:02:02.390928,-0.956,-0.455,0.246,-90.976,1.037,0.854,16_6_3.csv
2018-07-12T11:02:02.468635,-1.045,-0.295,0.294,-17.927,35.488,13.78,16_6_3.csv
2018-07-12T11:02:02.544838,-1.188,-0.363,0.121,0.183,14.939,-24.817,16_6_3.csv
2018-07-12T11:02:02.974492,-0.752,-0.357,0.025,25.854,-15.549,-15.183,16_6_3.csv
2018-07-12T11:02:03.022625,-0.791,-0.322,0.036,10.915,-8.78,-7.256,16_6_3.csv
2018-07-12T11:02:03.070753,-0.791,-0.322,0.036,-8.72,-3.476,-4.878,16_6_3.csv
2018-07-12T11:02:03.137936,-0.771,-0.246,0.24,0.61,53.293,-2.256,16_6_3.csv
2018-07-12T11:02:03.204114,-0.986,-0.194,0.282,-21.22,100.0,57.927,16_6_3.csv
2018-07-12T11:02:03.256253,-1.407,-0.366,0.013,-47.561,94.146,85.305,16_6_3.csv
2018-07-12T11:02:03.336469,-1.34,-0.646,-0.06,-176.098,3.171,66.22,16_6_3.csv
2018-07-12T11:02:03.388107,-1.34,-0.646,-0.06,-188.842,-20.305,31.89,16_6_3.csv
2018-07-12T11:02:03.494390,-0.903,-0.278,0.008,68.11,-6.585,-32.195,16_6_3.csv
2018-07-12T11:02:03.554049,-0.903,-0.278,0.008,0.244,-37.317,-34.39,16_6_3.csv
2018-07-12T11:02:03.621730,-0.783,-0.067,0.091,-209.817,-90.061,-63.598,16_6_3.csv
2018-07-12T11:02:03.661836,-0.772,-0.437,0.125,-214.573,-93.72,-49.878,16_6_3.csv
2018-07-12T11:02:03.718988,-0.772,-0.437,0.125,-133.598,-59.939,-8.841,16_6_3.csv
2018-07-12T11:02:03.771128,-0.917,-0.544,0.244,65.61,69.207,39.756,16_6_3.csv
2018-07-12T11:02:03.835799,-1.059,-0.17,0.213,104.207,84.085,40.488,16_6_3.csv
2018-07-12T11:02:03.908995,-1.267,-0.37,0.05,-41.89,-2.012,-1.768,16_6_3.csv
2018-07-12T11:02:04.029317,-1.34,-0.615,0.023,-50.732,-81.159,-5.671,16_6_3.csv
2018-07-12T11:02:04.083463,-0.993,-0.504,-0.022,10.122,-95.183,-69.024,16_6_3.csv
2018-07-12T11:02:04.139615,-0.907,-0.424,-0.006,35.854,-97.5,-67.195,16_6_3.csv
2018-07-12T11:02:04.194763,-0.907,-0.424,-0.006,48.415,-82.317,-49.451,16_6_3.csv
2018-07-12T11:02:04.256428,-0.74,-0.283,0.116,31.037,-43.293,-37.805,16_6_3.csv
2018-07-12T11:02:04.329122,-0.794,-0.233,0.23,71.341,9.634,19.878,16_6_3.csv
2018-07-12T11:02:04.402317,-0.937,-0.123,0.174,29.634,0.61,42.439,16_6_3.csv
2018-07-12T11:02:04.447438,-0.917,-0.284,0.131,-96.159,-25.549,37.134,16_6_3.csv
2018-07-12T11:02:04.497069,-0.917,-0.284,0.131,-113.415,-15.915,43.598,16_6_3.csv
2018-07-12T11:02:04.539182,-1.041,-0.464,0.033,-112.744,0.915,57.622,16_6_3.csv
2018-07-12T11:02:04.606862,-1.372,-0.665,-0.08,-141.585,17.988,68.049,16_6_3.csv
2018-07-12T11:02:04.664014,-1.372,-0.665,-0.08,-163.781,12.012,81.646,16_6_3.csv
2018-07-12T11:02:04.710137,-0.909,-0.577,0.143,-122.317,49.878,70.061,16_6_3.csv
2018-07-12T11:02:04.758767,-0.909,-0.577,0.143,-46.89,83.232,10.366,16_6_3.csv
2018-07-12T11:02:04.803888,-0.912,-0.397,0.074,-15.732,44.756,-14.756,16_6_3.csv
2018-07-12T11:02:04.851013,-0.822,-0.234,0.116,-69.756,-30.244,-17.805,16_6_3.csv
2018-07-12T11:02:04.954288,-0.776,-0.455,0.187,-156.89,-40.366,-31.707,16_6_3.csv
2018-07-12T11:02:05.021467,-0.984,-0.481,0.3,-31.829,36.646,16.341,16_6_3.csv
2018-07-12T11:02:05.087143,-1.095,-0.258,0.27,-1.098,48.232,-3.415,16_6_3.csv
2018-07-12T11:02:05.132263,-1.095,-0.258,0.27,-26.098,13.598,-28.049,16_6_3.csv
2018-07-12T11:02:05.180391,-1.227,-0.365,0.145,-35.183,-28.476,-35.61,16_6_3.csv
2018-07-12T11:02:05.225511,-1.227,-0.365,0.145,-34.329,-64.39,-19.939,16_6_3.csv
2018-07-12T11:02:05.357864,-0.971,-0.437,0.031,-20.488,-92.073,-26.707,16_6_3.csv
2018-07-12T11:02:05.418525,-0.976,-0.53,-0.043,34.39,-107.805,-74.756,16_6_3.csv
2018-07-12T11:02:05.480189,-0.976,-0.53,-0.043,79.085,-83.841,-32.561,16_6_3.csv
2018-07-12T11:02:05.524307,-0.852,-0.354,0.035,95.488,-42.134,-7.744,16_6_3.csv
2018-07-12T11:02:05.571934,-0.76,-0.296,0.074,10.854,-21.463,-20.61,16_6_3.csv
2018-07-12T11:02:05.619061,-0.76,-0.296,0.074,4.512,-17.988,-14.512,16_6_3.csv
2018-07-12T11:02:05.682732,-0.74,-0.248,0.181,9.268,-5.915,-1.402,16_6_3.csv
2018-07-12T11:02:05.746901,-0.84,-0.197,0.204,-16.707,28.171,26.951,16_6_3.csv
2018-07-12T11:02:05.809066,-0.84,-0.197,0.204,-46.89,38.232,42.012,16_6_3.csv
2018-07-12T11:02:05.853184,-1.015,-0.306,0.134,-118.781,45.549,68.537,16_6_3.csv
2018-07-12T11:02:05.903317,-1.392,-0.615,-0.124,-141.402,43.354,75.122,16_6_3.csv
2018-07-12T11:02:05.963478,-1.392,-0.615,-0.124,-162.805,19.39,67.134,16_6_3.csv
2018-07-12T11:02:06.029654,-1.269,-0.734,-0.059,-129.207,17.561,40.366,16_6_3.csv
2018-07-12T11:02:06.083297,-0.782,-0.48,0.024,-83.415,39.695,-13.78,16_6_3.csv
2018-07-12T11:02:06.147468,-0.896,-0.361,-0.004,-30.854,-26.89,-15.488,16_6_3.csv
2018-07-12T11:02:06.198103,-0.896,-0.361,-0.004,-69.329,-42.378,-1.585,16_6_3.csv
2018-07-12T11:02:06.259266,-0.733,-0.321,0.06,-188.415,-44.939,-26.28,16_6_3.csv
2018-07-12T11:02:06.320429,-0.756,-0.545,0.162,-137.439,-10.427,-14.329,16_6_3.csv
2018-07-12T11:02:06.382093,-1.059,-0.389,0.277,33.171,77.134,20.427,16_6_3.csv
2018-07-12T11:02:06.449273,-1.059,-0.389,0.277,46.037,83.598,7.744,16_6_3.csv
2018-07-12T11:02:06.508932,-1.132,-0.152,0.166,-36.402,-24.573,-40.61,16_6_3.csv
2018-07-12T11:02:06.555054,-1.146,-0.37,0.091,-52.012,-69.329,-38.476,16_6_3.csv
2018-07-12T11:02:06.602681,-1.146,-0.37,0.091,-43.11,-85.793,-17.073,16_6_3.csv
2018-07-12T11:02:06.653316,-1.286,-0.676,0.075,-32.012,-80.183,-20.061,16_6_3.csv
2018-07-12T11:02:06.897615,-1.199,-0.593,-0.05,-25.0,-140.549,1.951,16_6_3.csv
2018-07-12T11:02:06.958277,-0.744,-0.36,0.07,-59.268,-152.256,-25.122,16_6_3.csv
2018-07-12T11:02:07.006405,-0.744,-0.36,0.07,-75.793,-131.037,-54.573,16_6_3.csv
2018-07-12T11:02:07.054031,-0.596,-0.306,0.183,-7.683,-65.915,-56.89,16_6_3.csv
2018-07-12T11:02:07.121211,-0.683,-0.076,0.21,66.585,30.122,8.293,16_6_3.csv
2018-07-12T11:02:07.180368,-1.004,-0.175,0.147,-48.476,77.378,40.976,16_6_3.csv
2018-07-12T11:02:07.245041,-1.004,-0.175,0.147,-109.146,82.256,64.939,16_6_3.csv
2018-07-12T11:02:07.315729,-1.468,-0.554,-0.015,-194.878,73.841,91.524,16_6_3.csv
2018-07-12T11:02:07.380902,-1.334,-0.684,0.185,-145.732,88.232,63.415,16_6_3.csv
2018-07-12T11:02:07.429533,-0.828,-0.455,0.261,-54.39,92.5,9.878,16_6_3.csv
2018-07-12T11:02:07.588960,-0.805,-0.252,0.098,-105.61,-159.634,-20.732,16_6_3.csv
2018-07-12T11:02:07.632077,-0.805,-0.252,0.098,-210.854,-151.159,-54.146,16_6_3.csv
2018-07-12T11:02:07.702765,-0.587,-0.477,0.164,-152.683,-31.28,-51.28,16_6_3.csv
2018-07-12T11:02:07.770446,-0.802,-0.487,0.283,-28.354,28.72,-6.402,16_6_3.csv
2018-07-12T11:02:07.819576,-0.802,-0.487,0.283,52.5,77.561,17.622,16_6_3.csv
2018-07-12T11:02:07.869711,-1.188,-0.233,0.257,2.134,68.659,-11.22,16_6_3.csv
2018-07-12T11:02:07.916837,-1.489,-0.488,0.107,-15.732,22.378,-2.439,16_6_3.csv
2018-07-12T11:02:07.960959,-1.489,-0.488,0.107,-2.378,-8.049,9.634,16_6_3.csv
2018-07-12T11:02:08.076270,-0.861,-0.444,0.023,30.244,-80.976,-38.232,16_6_3.csv
2018-07-12T11:02:08.140443,-0.861,-0.444,0.023,64.695,-91.341,-35.854,16_6_3.csv
2018-07-12T11:02:08.209627,-0.875,-0.448,0.084,75.061,-42.622,-5.671,16_6_3.csv
2018-07-12T11:02:08.260262,-0.787,-0.343,0.107,60.427,-15.976,-11.037,16_6_3.csv
2018-07-12T11:02:08.304380,-0.789,-0.295,0.135,34.39,-16.037,-9.695,16_6_3.csv
2018-07-12T11:02:08.359527,-0.789,-0.295,0.135,26.89,-12.561,0.366,16_6_3.csv
2018-07-12T11:02:08.440242,-0.863,-0.269,0.157,-17.683,2.561,14.634,16_6_3.csv
2018-07-12T11:02:08.498397,-0.981,-0.338,0.131,-48.354,10.0,18.293,16_6_3.csv
2018-07-12T11:02:08.554547,-1.299,-0.484,-0.008,-81.89,32.195,20.976,16_6_3.csv
2018-07-12T11:02:08.601672,-1.299,-0.484,-0.008,-115.854,24.146,31.768,16_6_3.csv
2018-07-12T11:02:08.672862,-1.156,-0.594,0.124,-119.878,58.841,53.171,16_6_3.csv
2018-07-12T11:02:08.756084,-0.75,-0.387,0.239,52.256,66.585,-8.598,16_6_3.csv
2018-07-12T11:02:08.854345,-1.06,-0.188,0.141,-122.256,-109.207,-5.915,16_6_3.csv
2018-07-12T11:02:08.903978,-0.792,-0.402,0.181,-146.951,-85.305,-11.829,16_6_3.csv
2018-07-12T11:02:08.966645,-0.836,-0.344,0.187,-55.61,-9.695,-30.183,16_6_3.csv
2018-07-12T11:02:09.023296,-0.836,-0.344,0.187,-6.768,5.915,-17.012,16_6_3.csv
2018-07-12T11:02:09.085462,-0.873,-0.276,0.181,62.805,55.793,42.5,16_6_3.csv
2018-07-12T11:02:09.141611,-1.0,-0.237,0.214,44.268,64.024,-2.561,16_6_3.csv
2018-07-12T11:02:09.202273,-1.344,-0.471,0.107,-49.756,9.451,-29.207,16_6_3.csv
2018-07-12T11:02:09.256919,-1.344,-0.471,0.107,-53.293,-20.732,-25.732,16_6_3.csv
2018-07-12T11:02:09.304546,-1.263,-0.566,0.148,-40.427,-47.683,9.512,16_6_3.csv
2018-07-12T11:02:09.351671,-1.063,-0.363,0.01,44.634,-57.439,-16.22,16_6_3.csv
2018-07-12T11:02:09.447928,-1.042,-0.445,0.031,24.024,-129.817,-43.963,16_6_3.csv
2018-07-12T11:02:09.501571,-1.042,-0.445,0.031,56.585,-110.488,-28.598,16_6_3.csv
2018-07-12T11:02:09.573264,-0.832,-0.313,0.104,15.488,-62.988,-24.878,16_6_3.csv
2018-07-12T11:02:09.621392,-0.701,-0.245,0.121,4.695,-57.195,-21.646,16_6_3.csv
2018-07-12T11:02:09.664509,-0.701,-0.245,0.121,3.354,-44.939,-8.415,16_6_3.csv
2018-07-12T11:02:09.713640,-0.694,-0.153,0.194,-5.183,7.378,14.695,16_6_3.csv
2018-07-12T11:02:09.780819,-0.892,-0.179,0.184,-43.78,26.098,39.512,16_6_3.csv
2018-07-12T11:02:09.831955,-1.29,-0.431,0.06,-131.402,67.622,94.756,16_6_3.csv
2018-07-12T11:02:09.883593,-1.29,-0.431,0.06,-176.585,61.768,105.549,16_6_3.csv
2018-07-12T11:02:09.931220,-1.581,-0.702,0.032,-202.927,44.207,87.683,16_6_3.csv
2018-07-12T11:02:09.976841,-1.581,-0.702,0.032,-180.488,32.988,56.037,16_6_3.csv
2018-07-12T11:02:10.026474,-0.874,-0.483,0.191,-111.89,28.78,41.768,16_6_3.csv
2018-07-12T11:02:10.085130,-0.822,-0.339,0.056,-64.39,-41.098,-14.085,16_6_3.csv
2018-07-12T11:02:10.138773,-0.822,-0.339,0.056,-89.268,-98.415,0.61,16_6_3.csv
2018-07-12T11:02:10.196427,-0.781,-0.355,0.007,-213.293,-144.024,-14.512,16_6_3.csv
2018-07-12T11:02:10.251574,-0.567,-0.478,0.105,-248.903,-111.585,-33.963,16_6_3.csv
2018-07-12T11:02:10.326273,-0.751,-0.588,0.281,-90.244,49.939,23.598,16_6_3.csv
2018-07-12T11:02:10.371895,-0.751,-0.588,0.281,40.0,144.39,59.878,16_6_3.csv
2018-07-12T11:02:10.430049,-1.237,-0.259,0.255,87.195,187.866,57.012,16_6_3.csv
2018-07-12T11:02:10.475170,-1.396,-0.225,0.09,-51.951,44.207,-8.354,16_6_3.csv
2018-07-12T11:02:10.522796,-1.396,-0.225,0.09,-104.39,-43.598,-53.232,16_6_3.csv
2018-07-12T11:02:10.570925,-1.311,-0.558,0.094,-139.207,-103.902,-81.463,16_6_3.csv
2018-07-12T11:02:10.634093,-0.808,-0.637,0.179,-76.28,-114.756,-50.671,16_6_3.csv
2018-07-12T11:02:10.694254,-0.808,-0.637,0.179,51.28,-68.11,-74.146,16_6_3.csv
2018-07-12T11:02:10.805049,-1.082,-0.357,0.017,208.72,-39.817,-6.951,16_6_3.csv
2018-07-12T11:02:10.850673,-1.082,-0.357,0.017,179.39,-23.598,-20.854,16_6_3.csv
2018-07-12T11:02:10.898302,-0.832,-0.146,0.119,63.659,-46.768,-35.732,16_6_3.csv
2018-07-12T11:02:10.944925,-0.832,-0.146,0.119,-17.378,-70.854,-36.341,16_6_3.csv
2018-07-12T11:02:11.005587,-0.688,-0.221,0.157,16.707,-31.707,9.085,16_6_3.csv
2018-07-12T11:02:11.072264,-0.733,-0.186,0.087,-31.524,-16.585,25.427,16_6_3.csv
2018-07-12T11:02:11.117385,-0.953,-0.382,0.071,-118.171,21.951,49.817,16_6_3.csv
2018-07-12T11:02:11.163007,-0.953,-0.382,0.071,-124.695,64.268,79.39,16_6_3.csv
2018-07-12T11:02:11.214644,-1.476,-0.638,-0.022,-140.854,86.524,105.549,16_6_3.csv
2018-07-12T11:02:11.263274,-1.476,-0.638,-0.022,-159.329,93.049,123.171,16_6_3.csv
2018-07-12T11:02:11.336468,-1.36,-0.645,0.191,-122.744,111.281,78.841,16_6_3.csv
2018-07-12T11:02:11.397632,-0.779,-0.4,0.208,-18.659,36.951,-11.768,16_6_3.csv
2018-07-12T11:02:11.450272,-0.946,-0.394,0.011,-4.085,-27.561,13.537,16_6_3.csv
2018-07-12T11:02:11.507926,-0.946,-0.394,0.011,-37.683,-88.72,25.122,16_6_3.csv
2018-07-12T11:02:11.555051,-0.843,-0.247,0.196,-123.72,-120.976,0.61,16_6_3.csv
2018-07-12T11:02:11.601174,-0.764,-0.371,0.099,-248.598,-82.012,-73.963,16_6_3.csv
2018-07-12T11:02:11.662337,-0.764,-0.371,0.099,-231.098,-90.976,-63.598,16_6_3.csv
2018-07-12T11:02:11.727512,-0.882,-0.614,0.233,6.829,6.585,-17.5,16_6_3.csv
2018-07-12T11:02:11.803714,-0.98,-0.373,0.242,70.427,50.854,-22.378,16_6_3.csv
2018-07-12T11:02:11.854851,-1.171,-0.371,0.177,89.756,45.122,-6.098,16_6_3.csv
2018-07-12T11:02:11.901976,-1.171,-0.371,0.177,103.171,54.146,-3.11,16_6_3.csv
2018-07-12T11:02:11.951107,-1.335,-0.264,0.16,32.256,27.927,-14.695,16_6_3.csv
2018-07-12T11:02:12.024302,-0.979,-0.443,0.071,-59.817,-71.585,-14.695,16_6_3.csv
2018-07-12T11:02:12.087972,-0.981,-0.318,0.054,113.171,-43.598,1.646,16_6_3.csv
2018-07-12T11:02:12.257925,-0.753,-0.283,0.154,61.098,18.902,-0.366,16_6_3.csv
2018-07-12T11:02:12.304047,-0.753,-0.283,0.154,31.28,13.232,0.549,16_6_3.csv
2018-07-12T11:02:12.351674,-0.82,-0.264,0.145,6.341,-0.549,4.634,16_6_3.csv
2018-07-12T11:02:12.401808,-0.82,-0.264,0.145,-12.317,-0.793,10.305,16_6_3.csv
2018-07-12T11:02:12.464976,-0.898,-0.346,0.143,-52.378,17.439,17.988,16_6_3.csv
2018-07-12T11:02:12.510096,-1.129,-0.458,0.114,-59.451,23.476,20.305,16_6_3.csv
2018-07-12T11:02:12.555217,-1.129,-0.458,0.114,-64.329,30.854,19.329,16_6_3.csv
2018-07-12T11:02:12.602342,-1.346,-0.546,0.06,-80.61,27.317,10.732,16_6_3.csv
2018-07-12T11:02:12.666012,-0.896,-0.371,0.265,-67.439,24.39,11.707,16_6_3.csv
2018-07-12T11:02:12.730685,-1.006,-0.165,0.111,-36.768,-5.244,-41.463,16_6_3.csv
2018-07-12T11:02:12.772797,-1.006,-0.165,0.111,-106.89,-125.061,-42.5,16_6_3.csv
2018-07-12T11:02:12.851507,-0.848,-0.463,0.116,-81.159,-113.659,-1.829,16_6_3.csv
2018-07-12T11:02:12.899635,-0.624,-0.377,0.163,-48.415,-31.341,5.549,16_6_3.csv
2018-07-12T11:02:12.946259,-0.624,-0.377,0.163,-51.768,2.317,0.305,16_6_3.csv
2018-07-12T11:02:13.008425,-0.792,-0.354,0.21,-16.89,51.951,31.28,16_6_3.csv
2018-07-12T11:02:13.064073,-0.994,-0.39,0.238,-2.988,69.268,41.768,16_6_3.csv
2018-07-12T11:02:13.134260,-1.233,-0.378,0.228,-6.341,73.659,18.963,16_6_3.csv
2018-07-12T11:02:13.187903,-1.233,-0.378,0.228,-35.305,45.915,8.963,16_6_3.csv
2018-07-12T11:02:13.242549,-1.38,-0.534,0.15,-49.939,2.683,-4.207,16_6_3.csv
2018-07-12T11:02:13.305216,-1.029,-0.476,0.144,-17.317,-70.366,-16.707,16_6_3.csv
2018-07-12T11:02:13.412502,-1.061,-0.512,-0.019,63.171,-127.256,-26.463,16_6_3.csv
2018-07-12T11:02:13.533325,-0.803,-0.357,0.136,-48.232,-69.695,-47.805,16_6_3.csv
2018-07-12T11:02:13.586468,-0.803,-0.357,0.136,-128.963,-63.293,-83.049,16_6_3.csv
2018-07-12T11:02:13.635603,-0.669,-0.536,0.17,-79.268,-41.098,-97.988,16_6_3.csv
2018-07-12T11:02:13.681727,-0.669,-0.536,0.17,16.28,-16.829,-61.463,16_6_3.csv
2018-07-12T11:02:13.724847,-0.593,-0.276,0.276,81.951,15.732,-5.122,16_6_3.csv
2018-07-12T11:02:13.791023,-0.67,-0.09,0.21,64.451,65.488,74.268,16_6_3.csv
2018-07-12T11:02:13.852188,-1.258,-0.41,0.132,-44.512,111.646,121.524,16_6_3.csv
2018-07-12T11:02:13.919367,-1.258,-0.41,0.132,-87.805,146.707,124.024,16_6_3.csv
2018-07-12T11:02:13.976520,-1.694,-0.7,0.073,-148.963,93.415,54.451,16_6_3.csv
2018-07-12T11:02:14.039187,-0.995,-0.529,0.012,-72.378,55.122,-12.195,16_6_3.csv
2018-07-12T11:02:14.084808,-0.995,-0.529,0.012,-24.573,-12.439,-52.683,16_6_3.csv
2018-07-12T11:02:14.151486,-0.929,-0.348,-0.05,-87.317,-153.537,-27.744,16_6_3.csv
2018-07-12T11:02:14.225183,-0.685,-0.244,0.087,-236.524,-120.061,-39.634,16_6_3.csv
2018-07-12T11:02:14.272308,-0.606,-0.42,0.084,-227.561,-93.598,-27.073,16_6_3.csv
2018-07-12T11:02:14.320436,-0.606,-0.42,0.084,-170.732,-55.671,-1.951,16_6_3.csv
2018-07-12T11:02:14.384607,-0.885,-0.47,0.274,-97.927,31.098,26.402,16_6_3.csv
2018-07-12T11:02:14.432736,-0.95,-0.519,0.262,-48.78,52.805,46.768,16_6_3.csv
2018-07-12T11:02:14.493899,-0.95,-0.519,0.262,33.11,77.744,46.707,16_6_3.csv
2018-07-12T11:02:14.588651,-1.456,-0.585,0.107,-58.049,-30.793,0.793,16_6_3.csv
2018-07-12T11:02:14.664353,-0.988,-0.589,0.163,-39.146,-75.061,4.146,16_6_3.csv
2018-07-12T11:02:14.726518,-0.988,-0.589,0.163,29.817,-68.902,-54.512,16_6_3.csv
2018-07-12T11:02:14.774147,-0.948,-0.493,0.016,98.415,-85.122,-73.537,16_6_3.csv
2018-07-12T11:02:14.902989,-0.864,-0.28,0.094,42.134,-44.512,-20.427,16_6_3.csv
2018-07-12T11:02:14.989219,-0.786,-0.26,0.157,5.427,-39.756,-13.78,16_6_3.csv
2018-07-12T11:02:15.065424,-0.779,-0.164,0.198,-11.463,-26.707,-2.317,16_6_3.csv
2018-07-12T11:02:15.134110,-0.779,-0.164,0.198,-31.463,-9.207,11.341,16_6_3.csv
2018-07-12T11:02:15.184744,-0.854,-0.19,0.185,-94.024,23.354,52.744,16_6_3.csv
2018-07-12T11:02:15.233876,-1.171,-0.39,0.063,-127.927,37.744,68.902,16_6_3.csv
2018-07-12T11:02:15.304063,-1.532,-0.782,0.014,-197.256,40.671,105.305,16_6_3.csv
2018-07-12T11:02:15.365727,-1.532,-0.782,0.014,-185.732,45.915,113.842,16_6_3.csv
2018-07-12T11:02:15.418367,-0.837,-0.682,0.072,30.549,74.634,-8.963,16_6_3.csv
2018-07-12T11:02:15.522144,-0.91,-0.388,-0.097,-0.671,-37.927,-23.232,16_6_3.csv
2018-07-12T11:02:15.576288,-0.777,-0.278,0.111,-133.781,-53.415,-28.232,16_6_3.csv
2018-07-12T11:02:15.633440,-0.679,-0.469,0.225,-188.293,-1.524,-21.402,16_6_3.csv
2018-07-12T11:02:15.679062,-0.679,-0.469,0.225,-103.842,28.78,-14.024,16_6_3.csv
2018-07-12T11:02:15.741729,-1.025,-0.431,0.334,41.829,86.28,3.72,16_6_3.csv
2018-07-12T11:02:15.799884,-1.238,-0.141,0.141,45.305,63.902,3.171,16_6_3.csv
2018-07-12T11:02:15.854028,-1.238,-0.141,0.141,5.976,-2.378,-12.5,16_6_3.csv
2018-07-12T11:02:15.908674,-1.19,0.131,-0.193,-241.463,-176.585,-51.463,16_6_3.csv
2018-07-12T11:02:15.962818,-1.121,-0.635,-0.021,-246.768,-167.256,-15.366,16_6_3.csv
2018-07-12T11:02:16.007438,-1.121,-0.635,-0.021,-69.939,-73.354,14.939,16_6_3.csv
2018-07-12T11:02:16.082136,-1.101,-0.625,0.085,108.537,11.646,44.695,16_6_3.csv
2018-07-12T11:02:16.152324,-0.86,-0.33,0.052,35.61,-65.183,-52.256,16_6_3.csv
2018-07-12T11:02:16.262617,-0.94,-0.376,0.07,41.829,-47.134,-17.805,16_6_3.csv
2018-07-12T11:02:16.303225,-0.94,-0.376,0.07,-9.268,-54.451,-49.695,16_6_3.csv
2018-07-12T11:02:16.351855,-0.847,-0.343,0.145,-13.902,-58.415,-65.854,16_6_3.csv
2018-07-12T11:02:16.399983,-0.847,-0.343,0.145,33.171,-45.61,-67.256,16_6_3.csv
2018-07-12T11:02:16.476186,-0.807,-0.155,0.188,35.061,-19.817,-29.756,16_6_3.csv
2018-07-12T11:02:16.526320,-0.788,-0.124,0.197,-13.354,-1.463,-5.0,16_6_3.csv
2018-07-12T11:02:16.587483,-1.075,-0.356,0.114,-77.744,53.78,58.415,16_6_3.csv
2018-07-12T11:02:16.633606,-1.075,-0.356,0.114,-111.646,69.878,81.402,16_6_3.csv
2018-07-12T11:02:16.686748,-1.499,-0.637,0.147,-139.573,79.634,91.341,16_6_3.csv
2018-07-12T11:02:16.772476,-1.011,-0.582,0.253,-55.854,117.866,79.878,16_6_3.csv
2018-07-12T11:02:16.844669,-0.93,-0.324,-0.021,61.89,22.622,4.024,16_6_3.csv
2018-07-12T11:02:16.910846,-0.938,-0.292,0.018,-73.293,-167.073,-32.744,16_6_3.csv
2018-07-12T11:02:16.980029,-0.938,-0.292,0.018,-166.829,-185.488,-52.439,16_6_3.csv
2018-07-12T11:02:17.025651,-0.668,-0.34,0.144,-155.854,-75.671,-48.537,16_6_3.csv
2018-07-12T11:02:17.071273,-0.758,-0.276,0.156,-86.22,-39.573,-11.524,16_6_3.csv
2018-07-12T11:02:17.120905,-0.758,-0.276,0.156,-38.293,3.963,36.585,16_6_3.csv
2018-07-12T11:02:17.181567,-0.966,-0.278,0.277,2.317,68.902,51.89,16_6_3.csv
2018-07-12T11:02:17.249247,-1.18,-0.559,0.171,-15.915,91.22,7.378,16_6_3.csv
2018-07-12T11:02:17.304394,-1.18,-0.559,0.171,37.622,82.012,35.61,16_6_3.csv
2018-07-12T11:02:17.351520,-1.485,-0.468,0.072,-55.366,-23.78,-0.61,16_6_3.csv
2018-07-12T11:02:17.405664,-0.944,-0.483,0.196,-92.561,-56.829,-14.329,16_6_3.csv
2018-07-12T11:02:17.460310,-0.944,-0.483,0.196,-35.183,-57.927,-44.207,16_6_3.csv
2018-07-12T11:02:17.547041,-0.92,-0.525,0.071,117.195,-70.244,-14.39,16_6_3.csv
2018-07-12T11:02:17.629765,-0.852,-0.317,0.092,10.61,-72.317,-36.829,16_6_3.csv
2018-07-12T11:02:17.682907,-0.852,-0.317,0.092,-4.268,-67.927,-29.512,16_6_3.csv
2018-07-12T11:02:17.730032,-0.727,-0.31,0.107,9.939,-54.451,-12.439,16_6_3.csv
2018-07-12T11:02:17.776155,-0.727,-0.31,0.107,7.195,-40.0,-9.878,16_6_3.csv
2018-07-12T11:02:17.821777,-0.76,-0.256,0.145,-20.549,-26.646,-4.573,16_6_3.csv
2018-07-12T11:02:17.882939,-0.941,-0.347,0.138,-53.78,23.902,31.402,16_6_3.csv
2018-07-12T11:02:17.935079,-0.941,-0.347,0.138,-62.378,39.817,42.866,16_6_3.csv
2018-07-12T11:02:17.992231,-1.297,-0.554,-0.013,-108.415,45.732,57.683,16_6_3.csv
2018-07-12T11:02:18.037351,-1.06,-0.619,0.184,-96.707,71.951,75.549,16_6_3.csv
2018-07-12T11:02:18.086482,-1.06,-0.619,0.184,-30.305,120.061,54.268,16_6_3.csv
2018-07-12T11:02:18.137117,-1.037,-0.305,0.067,7.073,111.22,-2.134,16_6_3.csv
2018-07-12T11:02:18.200945,-0.968,-0.405,0.062,-116.829,-79.207,-12.927,16_6_3.csv
2018-07-12T11:02:18.264114,-0.968,-0.405,0.062,-117.256,-75.244,-3.171,16_6_3.csv
2018-07-12T11:02:18.321768,-0.698,-0.394,0.203,-121.646,-32.622,-32.134,16_6_3.csv
2018-07-12T11:02:18.370899,-0.81,-0.395,0.247,-67.5,4.695,-13.476,16_6_3.csv
2018-07-12T11:02:18.416520,-0.81,-0.395,0.247,-30.549,26.89,2.378,16_6_3.csv
2018-07-12T11:02:18.459635,-1.019,-0.325,0.237,-19.756,30.305,10.305,16_6_3.csv
2018-07-12T11:02:18.528320,-1.138,-0.313,0.194,-11.463,-1.037,-22.012,16_6_3.csv
2018-07-12T11:02:18.588980,-1.138,-0.313,0.194,-15.427,-23.537,-25.061,16_6_3.csv
2018-07-12T11:02:18.655658,-1.411,-0.466,0.095,-51.768,-70.854,-11.28,16_6_3.csv
2018-07-12T11:02:18.714815,-1.114,-0.521,0.093,-29.878,-88.902,-6.707,16_6_3.csv
2018-07-12T11:02:18.772970,-0.887,-0.397,0.021,33.293,-89.024,-50.854,16_6_3.csv
2018-07-12T11:02:18.855691,-0.961,-0.437,0.067,69.878,-92.134,-26.22,16_6_3.csv
2018-07-12T11:02:18.913345,-0.961,-0.437,0.067,88.598,-51.646,0.854,16_6_3.csv
2018-07-12T11:02:19.090316,-0.732,-0.349,0.287,-80.427,-8.598,21.707,16_6_3.csv
2018-07-12T11:02:19.148471,-0.732,-0.349,0.287,-52.378,4.634,39.268,16_6_3.csv
2018-07-12T11:02:19.195095,-0.943,-0.41,0.202,-38.293,11.341,50.183,16_6_3.csv
2018-07-12T11:02:19.242722,-1.184,-0.464,0.073,-44.634,28.963,49.695,16_6_3.csv
2018-07-12T11:02:19.288845,-1.184,-0.464,0.073,-66.768,24.573,40.244,16_6_3.csv
2018-07-12T11:02:19.350009,-1.26,-0.654,-0.015,-94.634,8.232,48.11,16_6_3.csv
2018-07-12T11:02:19.406659,-0.773,-0.588,0.158,-46.585,57.622,40.183,16_6_3.csv
2018-07-12T11:02:19.474841,-0.773,-0.588,0.158,51.89,96.829,0.854,16_6_3.csv
2018-07-12T11:02:19.528985,-0.973,-0.269,0.057,31.28,32.683,12.805,16_6_3.csv
2018-07-12T11:02:19.601178,-0.899,-0.134,0.03,-243.72,-74.207,-28.11,16_6_3.csv
2018-07-12T11:02:19.662341,-0.72,-0.526,0.037,-281.524,-72.317,-24.573,16_6_3.csv
2018-07-12T11:02:19.709466,-0.72,-0.526,0.037,-238.842,-50.427,-8.72,16_6_3.csv
2018-07-12T11:02:19.756592,-0.895,-0.572,0.226,-144.512,-0.549,4.085,16_6_3.csv
2018-07-12T11:02:19.804720,-1.087,-0.369,0.276,-51.463,58.293,3.841,16_6_3.csv
2018-07-12T11:02:19.849842,-1.087,-0.369,0.276,-62.805,37.195,-9.451,16_6_3.csv
2018-07-12T11:02:19.912009,-1.194,-0.404,0.204,-44.146,15.61,-14.695,16_6_3.csv
2018-07-12T11:02:19.975182,-1.379,-0.457,0.122,-15.427,-53.537,-26.585,16_6_3.csv
2018-07-12T11:02:20.040359,-1.379,-0.457,0.122,-25.427,-80.915,-29.39,16_6_3.csv
2018-07-12T11:02:20.085478,-1.01,-0.469,0.149,20.061,-90.671,-34.207,16_6_3.csv
2018-07-12T11:02:20.133606,-0.951,-0.47,-0.008,73.476,-97.805,-55.732,16_6_3.csv
2018-07-12T11:02:20.179729,-0.951,-0.47,-0.008,108.537,-110.366,-36.524,16_6_3.csv
2018-07-12T11:02:20.248412,-1.127,-0.483,-0.018,92.561,-70.793,7.073,16_6_3.csv
2018-07-12T11:02:20.353723,-0.81,-0.326,0.063,-23.841,-60.549,-50.915,16_6_3.csv
2018-07-12T11:02:20.412881,-0.702,-0.334,0.163,64.329,-5.061,-30.366,16_6_3.csv
2018-07-12T11:02:20.459509,-0.773,-0.085,0.214,64.634,11.707,-8.11,16_6_3.csv
2018-07-12T11:02:20.512650,-0.773,-0.085,0.214,6.341,15.732,10.793,16_6_3.csv
2018-07-12T11:02:20.554765,-0.872,-0.154,0.154,-67.439,16.951,29.085,16_6_3.csv
