time,accel_x_list,accel_y_list,accel_z_list,gyro_x_list,gyro_y_list,gyro_z_list,filename
2018-07-12T11:00:16.576566,-0.654,-0.114,0.226,9.146,-48.902,17.683,16_6_2.csv
2018-07-12T11:00:16.635223,-0.745,-0.147,0.127,-49.085,-42.866,27.5,16_6_2.csv
2018-07-12T11:00:16.690871,-0.745,-0.147,0.127,-87.561,-28.415,47.683,16_6_2.csv
2018-07-12T11:00:16.766072,-1.04,-0.296,-0.167,-163.232,-15.244,86.341,16_6_2.csv
2018-07-12T11:00:16.839768,-1.46,-0.583,-0.317,-216.037,-33.11,149.512,16_6_2.csv
2018-07-12T11:00:16.896920,-1.185,-0.757,-0.047,-127.317,72.622,194.695,16_6_2.csv
2018-07-12T11:00:16.945550,-1.059,-0.415,-0.189,52.195,91.22,160.061,16_6_2.csv
2018-07-12T11:00:16.993678,-1.059,-0.415,-0.189,11.524,46.463,91.585,16_6_2.csv
2018-07-12T11:00:17.037295,-0.908,-0.232,-0.158,-122.683,-4.329,-7.622,16_6_2.csv
2018-07-12T11:00:17.100463,-0.908,-0.232,-0.158,-248.659,-43.171,-66.463,16_6_2.csv
2018-07-12T11:00:17.166639,-0.688,-0.627,-0.044,-180.305,-18.049,-32.805,16_6_2.csv
2018-07-12T11:00:17.224293,-0.842,-0.627,0.172,7.378,44.085,29.817,16_6_2.csv
2018-07-12T11:00:17.270917,-1.039,-0.401,0.193,34.329,50.732,30.305,16_6_2.csv
2018-07-12T11:00:17.319546,-1.039,-0.401,0.193,17.439,46.646,3.415,16_6_2.csv
2018-07-12T11:00:17.378203,-1.226,-0.372,0.0,-11.22,9.268,-31.707,16_6_2.csv
2018-07-12T11:00:17.450396,-1.489,-0.524,-0.067,-42.5,-36.829,-109.451,16_6_2.csv
2018-07-12T11:00:17.505041,-1.489,-0.524,-0.067,-24.512,-61.22,-107.195,16_6_2.csv
2018-07-12T11:00:17.553671,-1.231,-0.45,-0.146,56.829,-60.366,-131.89,16_6_2.csv
2018-07-12T11:00:17.726130,-0.889,-0.307,-0.046,105.366,-13.049,-79.024,16_6_2.csv
2018-07-12T11:00:17.776264,-0.806,-0.243,0.061,86.829,-4.817,-42.561,16_6_2.csv
2018-07-12T11:00:17.826398,-0.806,-0.243,0.061,84.512,0.061,-2.561,16_6_2.csv
2018-07-12T11:00:17.917641,-0.815,-0.135,0.114,-48.415,-13.659,39.756,16_6_2.csv
2018-07-12T11:00:17.995348,-1.001,-0.286,-0.009,-137.134,-9.39,73.963,16_6_2.csv
2018-07-12T11:00:18.057514,-1.001,-0.286,-0.009,-162.134,-10.183,99.939,16_6_2.csv
2018-07-12T11:00:18.116170,-1.489,-0.455,-0.332,-239.878,-43.354,138.72,16_6_2.csv
2018-07-12T11:00:18.163797,-1.429,-0.742,-0.291,-272.622,-69.756,141.951,16_6_2.csv
2018-07-12T11:00:18.210924,-1.429,-0.742,-0.291,-230.0,-43.11,136.768,16_6_2.csv
2018-07-12T11:00:18.280107,-0.824,-0.708,-0.105,23.78,63.659,78.963,16_6_2.csv
2018-07-12T11:00:18.327734,-0.909,-0.351,-0.198,63.841,27.866,57.256,16_6_2.csv
2018-07-12T11:00:18.384886,-0.909,-0.351,-0.198,-4.39,-3.841,17.012,16_6_2.csv
2018-07-12T11:00:18.430508,-0.736,-0.317,-0.062,-179.512,-9.268,-57.866,16_6_2.csv
2018-07-12T11:00:18.490668,-0.867,-0.415,0.135,-145.0,11.098,-49.268,16_6_2.csv
2018-07-12T11:00:18.539799,-0.867,-0.415,0.135,-127.622,30.061,-32.744,16_6_2.csv
2018-07-12T11:00:18.599959,-0.931,-0.486,0.148,-136.524,-20.854,-44.695,16_6_2.csv
2018-07-12T11:00:18.653602,-1.033,-0.573,0.227,29.024,51.22,-22.256,16_6_2.csv
2018-07-12T11:00:18.724792,-1.271,-0.124,0.142,103.598,32.988,-9.268,16_6_2.csv
2018-07-12T11:00:18.771917,-1.271,-0.124,0.142,2.134,-9.817,-37.256,16_6_2.csv
2018-07-12T11:00:18.820046,-1.288,-0.362,-0.046,-115.915,-77.744,-79.268,16_6_2.csv
2018-07-12T11:00:18.870681,-1.288,-0.362,-0.046,-103.11,-80.915,-87.195,16_6_2.csv
2018-07-12T11:00:18.932345,-1.043,-0.722,-0.063,106.281,-31.341,-4.878,16_6_2.csv
2018-07-12T11:00:19.081744,-1.077,-0.226,-0.186,133.537,-27.927,-19.146,16_6_2.csv
2018-07-12T11:00:19.146416,-0.911,-0.22,-0.091,27.561,-50.305,-37.195,16_6_2.csv
2018-07-12T11:00:19.194042,-0.911,-0.22,-0.091,-55.061,-59.329,-56.037,16_6_2.csv
2018-07-12T11:00:19.244176,-0.73,-0.379,0.077,-16.037,-13.659,-49.817,16_6_2.csv
2018-07-12T11:00:19.288294,-0.783,-0.29,0.167,16.037,0.671,-30.183,16_6_2.csv
2018-07-12T11:00:19.349958,-0.783,-0.29,0.167,18.537,6.28,-9.268,16_6_2.csv
2018-07-12T11:00:19.415132,-0.87,-0.224,0.148,-32.439,24.878,38.476,16_6_2.csv
2018-07-12T11:00:19.474289,-1.047,-0.338,-0.009,-59.329,25.366,64.573,16_6_2.csv
2018-07-12T11:00:19.522418,-1.414,-0.487,-0.167,-112.256,36.037,76.707,16_6_2.csv
2018-07-12T11:00:19.570546,-1.414,-0.487,-0.167,-133.537,12.927,82.378,16_6_2.csv
2018-07-12T11:00:19.616168,-1.048,-0.529,0.024,-99.695,37.988,94.939,16_6_2.csv
2018-07-12T11:00:19.691869,-0.983,-0.382,-0.106,-45.915,25.305,14.573,16_6_2.csv
2018-07-12T11:00:19.752531,-0.983,-0.382,-0.106,-57.256,-32.805,-10.793,16_6_2.csv
2018-07-12T11:00:19.805673,-0.798,-0.331,-0.065,-111.22,-32.439,-40.915,16_6_2.csv
2018-07-12T11:00:19.869342,-0.753,-0.447,-0.069,-134.146,-22.561,-35.61,16_6_2.csv
2018-07-12T11:00:19.916969,-0.753,-0.447,-0.069,-100.549,-7.378,-15.122,16_6_2.csv
2018-07-12T11:00:19.960586,-0.895,-0.477,0.111,-1.037,51.646,28.902,16_6_2.csv
2018-07-12T11:00:20.024255,-1.064,-0.225,0.042,-44.573,42.378,19.817,16_6_2.csv
2018-07-12T11:00:20.086421,-1.12,-0.526,0.075,-153.354,-40.915,-52.195,16_6_2.csv
2018-07-12T11:00:20.167136,-1.25,-0.412,0.013,-49.268,-18.841,-46.098,16_6_2.csv
2018-07-12T11:00:20.210251,-1.25,-0.412,0.013,-98.232,-52.5,-66.89,16_6_2.csv
2018-07-12T11:00:20.258379,-1.041,-0.59,-0.093,-102.134,-93.293,-67.988,16_6_2.csv
2018-07-12T11:00:20.366670,-0.87,-0.595,-0.182,180.854,-12.134,-59.329,16_6_2.csv
2018-07-12T11:00:20.431842,-1.059,-0.417,-0.202,267.866,10.915,-26.707,16_6_2.csv
2018-07-12T11:00:20.484482,-0.944,-0.124,-0.017,190.671,43.841,-4.329,16_6_2.csv
2018-07-12T11:00:20.553165,-0.944,-0.124,-0.017,51.768,3.72,-21.463,16_6_2.csv
2018-07-12T11:00:20.600792,-0.785,-0.207,0.052,-27.805,-37.622,-49.024,16_6_2.csv
2018-07-12T11:00:20.647917,-0.809,-0.29,0.095,-17.317,-38.78,-38.72,16_6_2.csv
2018-07-12T11:00:20.695044,-0.809,-0.29,0.095,-20.793,-24.39,-13.476,16_6_2.csv
2018-07-12T11:00:20.774755,-0.824,-0.293,0.104,-30.366,19.573,40.061,16_6_2.csv
2018-07-12T11:00:20.851460,-1.048,-0.337,0.008,-17.805,64.512,90.61,16_6_2.csv
2018-07-12T11:00:20.917636,-1.532,-0.41,-0.204,-54.207,64.146,106.463,16_6_2.csv
2018-07-12T11:00:20.964762,-1.0,-0.458,0.017,-148.293,30.732,92.622,16_6_2.csv
2018-07-12T11:00:21.023919,-1.0,-0.458,0.017,-127.744,52.5,38.171,16_6_2.csv
2018-07-12T11:00:21.071547,-0.826,-0.379,-0.066,-73.902,48.232,-12.805,16_6_2.csv
2018-07-12T11:00:21.126693,-0.877,-0.318,-0.042,-51.22,-32.622,-21.28,16_6_2.csv
2018-07-12T11:00:21.191867,-0.877,-0.318,-0.042,-99.085,-34.878,-18.232,16_6_2.csv
2018-07-12T11:00:21.242502,-0.805,-0.396,-0.053,-154.207,-26.463,-21.463,16_6_2.csv
2018-07-12T11:00:21.305670,-0.917,-0.473,-0.021,-121.281,-8.415,-36.707,16_6_2.csv
2018-07-12T11:00:21.366834,-1.04,-0.185,0.16,-95.793,15.305,-34.39,16_6_2.csv
2018-07-12T11:00:21.426994,-1.04,-0.185,0.16,-117.134,14.939,-35.793,16_6_2.csv
2018-07-12T11:00:21.490664,-1.128,-0.37,0.109,-105.793,-21.768,-33.963,16_6_2.csv
2018-07-12T11:00:21.558845,-1.188,-0.557,0.008,20.488,-1.098,5.183,16_6_2.csv
2018-07-12T11:00:21.623016,-1.197,-0.428,0.095,9.573,-6.463,6.159,16_6_2.csv
2018-07-12T11:00:21.732307,-1.153,-0.426,-0.108,35.671,-88.293,-65.427,16_6_2.csv
2018-07-12T11:00:21.841097,-1.176,-0.383,-0.207,10.976,-106.281,-92.012,16_6_2.csv
2018-07-12T11:00:21.909280,-0.935,-0.248,-0.218,-9.207,-62.5,-111.402,16_6_2.csv
2018-07-12T11:00:21.976458,-0.719,-0.244,-0.062,36.28,-55.366,-55.854,16_6_2.csv
2018-07-12T11:00:22.023083,-0.659,-0.111,0.095,40.732,-37.683,-25.488,16_6_2.csv
2018-07-12T11:00:22.076224,-0.659,-0.111,0.095,6.098,-22.134,-4.329,16_6_2.csv
2018-07-12T11:00:22.116331,-0.779,-0.205,0.057,-48.537,-13.476,22.317,16_6_2.csv
2018-07-12T11:00:22.176495,-1.286,-0.392,-0.348,-81.28,28.902,119.451,16_6_2.csv
2018-07-12T11:00:22.226630,-1.286,-0.392,-0.348,-136.585,19.207,150.0,16_6_2.csv
2018-07-12T11:00:22.272755,-1.456,-0.77,-0.344,-188.659,-22.683,166.768,16_6_2.csv
2018-07-12T11:00:22.321387,-1.456,-0.77,-0.344,-142.134,12.073,171.646,16_6_2.csv
2018-07-12T11:00:22.370019,-0.997,-0.546,-0.088,36.098,168.537,46.768,16_6_2.csv
2018-07-12T11:00:22.429179,-1.044,-0.186,-0.206,-49.573,38.354,2.134,16_6_2.csv
2018-07-12T11:00:22.488336,-1.044,-0.186,-0.206,-177.012,-36.524,-27.561,16_6_2.csv
2018-07-12T11:00:22.550502,-0.74,-0.411,-0.095,-290.122,-66.341,-63.78,16_6_2.csv
2018-07-12T11:00:22.600134,-0.759,-0.665,0.031,-217.134,-41.951,-37.134,16_6_2.csv
2018-07-12T11:00:22.646758,-0.759,-0.665,0.031,-99.634,1.646,-9.817,16_6_2.csv
2018-07-12T11:00:22.697394,-0.998,-0.465,0.138,-44.695,12.378,-16.646,16_6_2.csv
2018-07-12T11:00:22.743015,-1.047,-0.415,0.153,-55.244,11.28,-46.768,16_6_2.csv
2018-07-12T11:00:22.810194,-1.047,-0.415,0.153,-31.159,0.61,-62.805,16_6_2.csv
2018-07-12T11:00:22.930013,-1.397,-0.425,-0.067,54.024,-46.646,-51.768,16_6_2.csv
2018-07-12T11:00:23.009726,-1.083,-0.373,-0.164,49.756,-71.402,-86.159,16_6_2.csv
2018-07-12T11:00:23.118516,-1.006,-0.369,-0.111,91.341,-63.841,-57.195,16_6_2.csv
2018-07-12T11:00:23.170655,-0.834,-0.265,-0.06,56.098,-35.305,-47.317,16_6_2.csv
2018-07-12T11:00:23.231818,-0.736,-0.271,-0.039,-0.976,-40.366,-54.634,16_6_2.csv
2018-07-12T11:00:23.288970,-0.736,-0.271,-0.039,-3.72,-32.988,-42.622,16_6_2.csv
2018-07-12T11:00:23.338101,-0.61,-0.228,0.056,-64.146,-12.378,-19.695,16_6_2.csv
2018-07-12T11:00:23.389738,-0.696,-0.346,0.208,-71.402,25.427,14.207,16_6_2.csv
2018-07-12T11:00:23.458923,-1.181,-0.41,0.021,-51.098,61.402,117.317,16_6_2.csv
2018-07-12T11:00:23.520086,-1.181,-0.41,0.021,-72.134,56.951,146.524,16_6_2.csv
2018-07-12T11:00:23.578241,-1.662,-0.616,-0.163,-125.183,15.366,150.61,16_6_2.csv
2018-07-12T11:00:23.632385,-1.017,-0.589,-0.034,-79.146,42.988,103.293,16_6_2.csv
2018-07-12T11:00:23.678508,-1.017,-0.589,-0.034,-5.915,64.634,37.805,16_6_2.csv
2018-07-12T11:00:23.727138,-1.013,-0.325,-0.243,23.232,2.256,-8.11,16_6_2.csv
2018-07-12T11:00:23.774764,-1.013,-0.325,-0.243,-18.476,-59.573,-41.829,16_6_2.csv
2018-07-12T11:00:23.840440,-0.761,-0.227,-0.149,-215.488,-74.573,-112.073,16_6_2.csv
2018-07-12T11:00:23.921656,-0.57,-0.454,-0.099,-155.549,-18.537,-40.305,16_6_2.csv
2018-07-12T11:00:23.991843,-0.792,-0.523,0.071,-16.768,40.671,66.768,16_6_2.csv
2018-07-12T11:00:24.043982,-1.037,-0.417,0.159,-0.366,68.049,80.122,16_6_2.csv
2018-07-12T11:00:24.104644,-1.244,-0.451,0.085,-7.195,53.476,31.159,16_6_2.csv
2018-07-12T11:00:24.152772,-1.244,-0.451,0.085,11.768,26.829,20.549,16_6_2.csv
2018-07-12T11:00:24.210927,-1.48,-0.496,-0.047,20.244,-10.915,8.293,16_6_2.csv
2018-07-12T11:00:24.263066,-1.109,-0.417,-0.086,5.793,-89.268,-42.378,16_6_2.csv
2018-07-12T11:00:24.323226,-1.109,-0.417,-0.086,3.11,-100.488,-85.976,16_6_2.csv
2018-07-12T11:00:24.369349,-0.933,-0.369,-0.132,48.476,-98.72,-103.781,16_6_2.csv
2018-07-12T11:00:24.544817,-0.859,-0.315,-0.094,-2.195,-52.805,-31.402,16_6_2.csv
2018-07-12T11:00:24.604977,-0.701,-0.319,-0.011,-10.915,-35.183,-33.049,16_6_2.csv
2018-07-12T11:00:24.673159,-0.717,-0.289,0.022,3.902,1.098,-7.866,16_6_2.csv
2018-07-12T11:00:24.740839,-0.717,-0.289,0.022,-33.841,18.78,0.122,16_6_2.csv
2018-07-12T11:00:24.789469,-0.917,-0.376,-0.058,-84.329,31.402,31.037,16_6_2.csv
2018-07-12T11:00:24.856648,-1.239,-0.472,-0.217,-80.793,35.061,61.159,16_6_2.csv
2018-07-12T11:00:24.901768,-1.239,-0.472,-0.217,-96.89,32.5,93.049,16_6_2.csv
2018-07-12T11:00:24.942376,-1.175,-0.642,0.009,-106.281,30.854,138.781,16_6_2.csv
2018-07-12T11:00:25.005545,-0.992,-0.46,0.067,-35.915,108.598,98.902,16_6_2.csv
2018-07-12T11:00:25.057183,-0.992,-0.46,0.067,-27.561,69.146,25.183,16_6_2.csv
2018-07-12T11:00:25.120852,-1.026,-0.314,-0.045,-51.585,-33.78,-46.524,16_6_2.csv
2018-07-12T11:00:25.168980,-0.836,-0.314,0.03,-108.354,-59.024,-81.646,16_6_2.csv
2018-07-12T11:00:25.213098,-0.836,-0.314,0.03,-138.476,-52.439,-88.049,16_6_2.csv
2018-07-12T11:00:25.259221,-0.844,-0.471,0.062,-125.793,-39.451,-63.598,16_6_2.csv
2018-07-12T11:00:25.319883,-0.952,-0.351,0.088,-3.293,-0.427,6.707,16_6_2.csv
2018-07-12T11:00:25.382048,-0.952,-0.351,0.088,40.854,15.854,27.134,16_6_2.csv
2018-07-12T11:00:25.450230,-1.119,-0.319,0.103,-43.78,9.878,-2.866,16_6_2.csv
2018-07-12T11:00:25.508386,-1.28,-0.558,-0.013,9.207,-20.549,-1.707,16_6_2.csv
2018-07-12T11:00:25.556513,-1.174,-0.515,-0.042,33.11,-40.671,0.427,16_6_2.csv
2018-07-12T11:00:25.608151,-1.174,-0.515,-0.042,35.427,-53.232,-31.098,16_6_2.csv
2018-07-12T11:00:25.678338,-1.126,-0.387,-0.183,47.195,-107.927,-98.963,16_6_2.csv
2018-07-12T11:00:25.734488,-1.049,-0.365,-0.127,47.744,-114.695,-93.598,16_6_2.csv
2018-07-12T11:00:25.865837,-0.878,-0.281,-0.031,-18.659,-75.0,-79.207,16_6_2.csv
2018-07-12T11:00:25.958585,-0.617,-0.148,0.187,-0.915,-26.22,11.707,16_6_2.csv
2018-07-12T11:00:26.009721,-0.617,-0.148,0.187,-33.171,-14.817,41.707,16_6_2.csv
2018-07-12T11:00:26.052335,-0.841,-0.245,0.077,-72.988,-1.524,73.902,16_6_2.csv
2018-07-12T11:00:26.118512,-1.354,-0.443,-0.247,-134.512,11.707,143.354,16_6_2.csv
2018-07-12T11:00:26.176165,-1.354,-0.443,-0.247,-182.073,-1.585,155.244,16_6_2.csv
2018-07-12T11:00:26.237829,-1.503,-0.73,-0.346,-194.756,-21.585,118.232,16_6_2.csv
2018-07-12T11:00:26.293477,-0.896,-0.657,-0.062,-98.11,63.232,79.573,16_6_2.csv
2018-07-12T11:00:26.334587,-0.896,-0.657,-0.062,-11.402,95.854,41.829,16_6_2.csv
2018-07-12T11:00:26.386225,-0.942,-0.355,-0.148,15.366,38.11,24.451,16_6_2.csv
2018-07-12T11:00:26.460422,-0.815,-0.279,-0.06,-135.366,-32.805,-31.524,16_6_2.csv
2018-07-12T11:00:26.516572,-0.799,-0.512,0.014,-211.829,-23.598,-36.89,16_6_2.csv
2018-07-12T11:00:26.574226,-0.799,-0.512,0.014,-160.549,-15.366,-15.793,16_6_2.csv
2018-07-12T11:00:26.619346,-0.922,-0.581,0.183,-92.866,1.463,1.098,16_6_2.csv
2018-07-12T11:00:26.666973,-0.922,-0.581,0.183,-19.817,33.293,15.61,16_6_2.csv
2018-07-12T11:00:26.729640,-1.048,-0.424,0.163,37.256,36.524,-9.268,16_6_2.csv
2018-07-12T11:00:26.803336,-1.114,-0.379,0.024,37.195,-23.171,-36.341,16_6_2.csv
2018-07-12T11:00:26.871017,-1.375,-0.495,-0.022,38.963,-19.817,-42.256,16_6_2.csv
2018-07-12T11:00:26.929673,-1.159,-0.432,-0.093,31.707,-53.476,-37.683,16_6_2.csv
2018-07-12T11:00:26.975294,-1.159,-0.432,-0.093,50.549,-58.659,-78.171,16_6_2.csv
2018-07-12T11:00:27.023925,-1.079,-0.354,-0.157,72.683,-76.463,-112.439,16_6_2.csv
2018-07-12T11:00:27.069546,-1.079,-0.354,-0.157,74.146,-91.463,-107.927,16_6_2.csv
2018-07-12T11:00:27.128202,-0.985,-0.296,-0.094,50.305,-62.622,-78.963,16_6_2.csv
2018-07-12T11:00:27.240001,-0.593,-0.283,0.166,-25.061,-36.829,-34.207,16_6_2.csv
2018-07-12T11:00:27.392406,-0.803,-0.374,0.338,-22.256,62.622,69.268,16_6_2.csv
2018-07-12T11:00:27.459585,-1.013,-0.265,0.067,-78.171,-26.768,101.646,16_6_2.csv
2018-07-12T11:00:27.521751,-1.176,-0.334,-0.291,-256.342,-134.329,74.878,16_6_2.csv
2018-07-12T11:00:27.596451,-1.335,-0.83,-0.338,-254.939,-99.878,120.366,16_6_2.csv
2018-07-12T11:00:27.651096,-0.857,-0.833,-0.038,-102.927,16.768,134.878,16_6_2.csv
2018-07-12T11:00:27.699725,-0.857,-0.833,-0.038,74.329,127.988,104.634,16_6_2.csv
2018-07-12T11:00:27.741838,-0.95,-0.375,-0.183,148.293,118.659,76.829,16_6_2.csv
2018-07-12T11:00:27.806510,-0.872,-0.118,0.003,-38.11,-8.171,-34.451,16_6_2.csv
2018-07-12T11:00:27.868676,-0.872,-0.118,0.003,-166.707,-27.317,-86.951,16_6_2.csv
2018-07-12T11:00:27.949892,-0.752,-0.443,0.042,-156.159,-12.927,-53.902,16_6_2.csv
2018-07-12T11:00:28.006043,-0.942,-0.485,0.104,-33.476,18.659,14.695,16_6_2.csv
2018-07-12T11:00:28.076229,-1.204,-0.209,0.254,-19.207,40.427,16.402,16_6_2.csv
2018-07-12T11:00:28.171984,-1.163,-0.28,0.02,-130.0,-47.439,-50.549,16_6_2.csv
2018-07-12T11:00:28.225627,-1.269,-0.745,-0.142,-72.744,-62.744,-29.512,16_6_2.csv
2018-07-12T11:00:28.272752,-1.269,-0.745,-0.142,21.037,-64.207,15.061,16_6_2.csv
2018-07-12T11:00:28.326897,-0.974,-0.559,-0.068,119.024,-19.207,-27.683,16_6_2.csv
2018-07-12T11:00:28.381542,-0.972,-0.372,-0.17,116.829,-32.134,-78.11,16_6_2.csv
2018-07-12T11:00:28.444711,-0.979,-0.323,-0.124,115.732,-64.329,-68.72,16_6_2.csv
2018-07-12T11:00:28.508882,-0.979,-0.323,-0.124,73.902,-50.793,-63.72,16_6_2.csv
2018-07-12T11:00:28.636221,-0.648,-0.316,-0.011,-7.012,-38.415,-50.488,16_6_2.csv
2018-07-12T11:00:28.683848,-0.761,-0.332,0.162,7.317,19.329,-17.561,16_6_2.csv
2018-07-12T11:00:28.726963,-0.761,-0.332,0.162,27.988,48.415,14.207,16_6_2.csv
2018-07-12T11:00:28.775092,-1.033,-0.294,0.134,38.659,68.171,49.573,16_6_2.csv
2018-07-12T11:00:28.854302,-1.434,-0.35,-0.122,-31.89,64.573,65.061,16_6_2.csv
2018-07-12T11:00:28.909450,-1.434,-0.35,-0.122,-82.012,45.793,73.293,16_6_2.csv
2018-07-12T11:00:28.975124,-1.085,-0.566,-0.131,-54.939,36.037,69.268,16_6_2.csv
2018-07-12T11:00:29.025760,-1.108,-0.051,0.104,-32.988,51.951,17.012,16_6_2.csv
2018-07-12T11:00:29.068373,-1.108,-0.051,0.104,-338.293,-145.671,-79.268,16_6_2.csv
2018-07-12T11:00:29.122016,-0.722,-0.751,-0.063,-393.842,-192.988,-143.476,16_6_2.csv
2018-07-12T11:00:29.182678,-0.597,-0.468,-0.183,-9.268,-11.28,32.439,16_6_2.csv
2018-07-12T11:00:29.236321,-0.597,-0.468,-0.183,24.268,15.793,35.244,16_6_2.csv
2018-07-12T11:00:29.292972,-0.793,-0.415,0.038,44.268,76.829,54.268,16_6_2.csv
2018-07-12T11:00:29.354636,-1.049,-0.425,0.122,62.5,101.037,71.89,16_6_2.csv
2018-07-12T11:00:29.413794,-1.148,-0.228,0.092,-4.817,51.707,28.293,16_6_2.csv
2018-07-12T11:00:29.461922,-1.148,-0.228,0.092,-73.476,-3.476,-22.866,16_6_2.csv
2018-07-12T11:00:29.555171,-1.176,-0.413,0.025,-55.915,-42.988,-56.585,16_6_2.csv
2018-07-12T11:00:29.622349,-1.309,-0.585,-0.025,-1.28,-58.78,-21.89,16_6_2.csv
2018-07-12T11:00:29.696548,-0.989,-0.422,-0.105,125.793,-38.598,-39.268,16_6_2.csv
2018-07-12T11:00:29.759716,-1.038,-0.346,-0.145,93.659,-61.646,-70.122,16_6_2.csv
2018-07-12T11:00:29.809849,-0.926,-0.284,-0.126,81.402,-62.988,-48.171,16_6_2.csv
2018-07-12T11:00:29.860723,-0.926,-0.284,-0.126,19.817,-60.183,-53.78,16_6_2.csv
2018-07-12T11:00:29.975529,-0.817,-0.228,0.081,80.854,26.098,3.537,16_6_2.csv
2018-07-12T11:00:30.022153,-0.817,-0.228,0.081,31.402,-11.707,18.171,16_6_2.csv
2018-07-12T11:00:30.071786,-0.81,-0.221,0.104,-20.0,-11.951,10.915,16_6_2.csv
2018-07-12T11:00:30.117908,-0.81,-0.221,0.104,-39.634,8.232,19.024,16_6_2.csv
2018-07-12T11:00:30.178069,-0.946,-0.263,0.087,-74.085,30.915,50.183,16_6_2.csv
2018-07-12T11:00:30.258283,-1.4,-0.332,-0.237,-227.378,-18.171,79.634,16_6_2.csv
2018-07-12T11:00:30.325462,-1.082,-0.627,-0.134,-282.805,-46.829,89.39,16_6_2.csv
2018-07-12T11:00:30.388129,-1.002,-0.622,-0.063,-108.537,51.28,41.341,16_6_2.csv
2018-07-12T11:00:30.447788,-1.002,-0.622,-0.063,-11.768,37.988,30.427,16_6_2.csv
2018-07-12T11:00:30.493409,-0.915,-0.255,-0.08,-94.634,-34.024,-29.939,16_6_2.csv
2018-07-12T11:00:30.574126,-0.759,-0.371,-0.021,-156.463,-33.902,-33.963,16_6_2.csv
2018-07-12T11:00:30.631778,-0.829,-0.485,0.107,-116.524,-7.378,-3.232,16_6_2.csv
2018-07-12T11:00:30.699960,-0.96,-0.448,0.197,-77.134,19.634,10.915,16_6_2.csv
2018-07-12T11:00:30.743075,-0.96,-0.448,0.197,-56.28,28.11,2.5,16_6_2.csv
2018-07-12T11:00:30.796216,-1.224,-0.426,0.083,-41.646,24.085,-12.439,16_6_2.csv
2018-07-12T11:00:30.856878,-1.444,-0.506,-0.056,-42.378,-29.268,-50.671,16_6_2.csv
2018-07-12T11:00:30.924057,-1.444,-0.506,-0.056,-24.756,-67.439,-58.232,16_6_2.csv
2018-07-12T11:00:31.002767,-0.99,-0.447,-0.094,128.537,-39.939,-48.902,16_6_2.csv
2018-07-12T11:00:31.074458,-1.035,-0.088,-0.158,41.22,-79.085,-37.378,16_6_2.csv
2018-07-12T11:00:31.116069,-0.901,-0.318,-0.075,-65.854,-82.195,-69.39,16_6_2.csv
2018-07-12T11:00:31.170213,-0.901,-0.318,-0.075,-73.171,-67.378,-58.354,16_6_2.csv
2018-07-12T11:00:31.219845,-0.76,-0.391,-0.127,-35.305,-59.817,-25.732,16_6_2.csv
2018-07-12T11:00:31.302065,-0.722,-0.32,-0.009,-32.195,-6.951,-10.976,16_6_2.csv
2018-07-12T11:00:31.371750,-0.818,-0.313,0.107,-14.695,21.341,13.415,16_6_2.csv
2018-07-12T11:00:31.428903,-1.014,-0.297,0.058,-24.878,39.695,80.183,16_6_2.csv
2018-07-12T11:00:31.475025,-1.014,-0.297,0.058,-62.256,33.963,100.488,16_6_2.csv
2018-07-12T11:00:31.523154,-1.342,-0.407,-0.194,-110.854,35.244,97.195,16_6_2.csv
2018-07-12T11:00:31.571282,-1.342,-0.407,-0.194,-158.659,20.366,86.341,16_6_2.csv
2018-07-12T11:00:31.630941,-1.248,-0.666,-0.178,-121.585,10.061,57.073,16_6_2.csv
2018-07-12T11:00:31.689597,-0.92,-0.407,-0.07,-45.915,62.256,17.134,16_6_2.csv
2018-07-12T11:00:31.741736,-0.893,-0.155,-0.115,-60.305,-18.963,-46.341,16_6_2.csv
2018-07-12T11:00:31.790366,-0.893,-0.155,-0.115,-129.634,-41.098,-71.585,16_6_2.csv
2018-07-12T11:00:31.835486,-0.773,-0.225,-0.052,-180.0,-50.915,-72.927,16_6_2.csv
2018-07-12T11:00:31.883113,-0.773,-0.225,-0.052,-179.756,-48.11,-59.939,16_6_2.csv
2018-07-12T11:00:31.960820,-0.886,-0.37,0.035,-97.622,-39.695,-3.537,16_6_2.csv
2018-07-12T11:00:32.026495,-0.966,-0.389,0.076,14.756,18.841,29.024,16_6_2.csv
2018-07-12T11:00:32.092170,-1.025,-0.353,0.07,16.098,28.11,10.244,16_6_2.csv
2018-07-12T11:00:32.152832,-1.15,-0.409,0.011,-6.037,13.11,-3.11,16_6_2.csv
2018-07-12T11:00:32.228032,-1.261,-0.419,-0.003,-41.098,-28.171,-28.232,16_6_2.csv
2018-07-12T11:00:32.283681,-1.261,-0.419,-0.003,-40.305,-45.305,-30.427,16_6_2.csv
2018-07-12T11:00:32.339329,-1.063,-0.435,-0.05,-17.622,-57.744,-29.024,16_6_2.csv
2018-07-12T11:00:32.387959,-0.974,-0.342,-0.113,71.28,-56.585,-53.293,16_6_2.csv
2018-07-12T11:00:32.444611,-0.974,-0.342,-0.113,76.28,-55.427,-45.366,16_6_2.csv
2018-07-12T11:00:32.510786,-0.89,-0.347,-0.063,47.561,-36.951,-39.817,16_6_2.csv
2018-07-12T11:00:32.576962,-0.835,-0.313,-0.016,33.963,-30.305,-40.0,16_6_2.csv
2018-07-12T11:00:32.663192,-0.798,-0.311,0.07,6.22,-16.768,-30.549,16_6_2.csv
2018-07-12T11:00:32.724355,-0.809,-0.282,0.131,14.512,0.671,-12.073,16_6_2.csv
2018-07-12T11:00:32.774990,-0.809,-0.282,0.131,2.378,9.817,7.683,16_6_2.csv
2018-07-12T11:00:32.824623,-0.93,-0.273,0.087,-57.622,20.915,44.512,16_6_2.csv
2018-07-12T11:00:32.867236,-1.324,-0.38,-0.165,-95.061,26.463,61.768,16_6_2.csv
2018-07-12T11:00:32.934916,-1.324,-0.38,-0.165,-144.451,12.622,75.427,16_6_2.csv
2018-07-12T11:00:32.989562,-1.177,-0.645,-0.042,-102.5,40.122,94.939,16_6_2.csv
2018-07-12T11:00:33.037690,-0.914,-0.489,-0.003,1.951,92.866,67.988,16_6_2.csv
2018-07-12T11:00:33.098353,-0.914,-0.489,-0.003,54.329,59.817,33.11,16_6_2.csv
2018-07-12T11:00:33.147483,-0.945,-0.209,-0.049,-43.537,-36.341,-31.768,16_6_2.csv
2018-07-12T11:00:33.200123,-0.765,-0.306,0.002,-116.037,-45.915,-57.073,16_6_2.csv
2018-07-12T11:00:33.271313,-0.847,-0.421,0.036,-93.963,-24.146,-37.805,16_6_2.csv
2018-07-12T11:00:33.341500,-0.847,-0.421,0.036,-58.354,-12.744,-8.902,16_6_2.csv
2018-07-12T11:00:33.386621,-0.936,-0.315,0.114,-35.854,2.256,13.598,16_6_2.csv
2018-07-12T11:00:33.431240,-1.098,-0.413,0.103,-65.244,-0.793,-4.39,16_6_2.csv
2018-07-12T11:00:33.484381,-1.098,-0.413,0.103,-49.39,-3.232,-5.0,16_6_2.csv
2018-07-12T11:00:33.552061,-1.242,-0.485,-0.004,-7.683,-10.366,-1.22,16_6_2.csv
2018-07-12T11:00:33.610718,-1.247,-0.537,-0.044,-10.366,-25.122,-5.488,16_6_2.csv
2018-07-12T11:00:33.663358,-1.247,-0.537,-0.044,11.768,-39.634,-0.305,16_6_2.csv
2018-07-12T11:00:33.708979,-1.005,-0.43,-0.12,65.854,-50.671,-76.89,16_6_2.csv
2018-07-12T11:00:33.760617,-0.946,-0.356,-0.117,86.402,-61.646,-72.683,16_6_2.csv
2018-07-12T11:00:33.806740,-0.946,-0.356,-0.117,85.732,-54.024,-65.732,16_6_2.csv
2018-07-12T11:00:33.866901,-0.843,-0.279,-0.041,48.354,-42.988,-68.232,16_6_2.csv
2018-07-12T11:00:33.928565,-0.817,-0.338,0.118,42.683,-25.793,-44.573,16_6_2.csv
2018-07-12T11:00:34.022315,-0.832,-0.137,0.106,71.098,2.805,8.415,16_6_2.csv
2018-07-12T11:00:34.074454,-0.856,-0.173,0.067,-53.78,-18.232,6.524,16_6_2.csv
2018-07-12T11:00:34.122081,-0.856,-0.173,0.067,-98.963,-16.159,24.817,16_6_2.csv
2018-07-12T11:00:34.179233,-0.968,-0.299,-0.037,-128.354,-5.0,47.805,16_6_2.csv
2018-07-12T11:00:34.247415,-1.396,-0.486,-0.322,-207.317,-4.756,81.28,16_6_2.csv
2018-07-12T11:00:34.296044,-1.396,-0.486,-0.322,-238.537,-33.354,97.378,16_6_2.csv
2018-07-12T11:00:34.352695,-1.116,-0.743,-0.086,-114.512,47.5,99.085,16_6_2.csv
2018-07-12T11:00:34.415362,-0.994,-0.541,-0.052,-11.585,85.305,54.085,16_6_2.csv
2018-07-12T11:00:34.463491,-0.994,-0.541,-0.052,38.049,46.037,19.756,16_6_2.csv
2018-07-12T11:00:34.508109,-0.875,-0.187,-0.063,10.854,-6.402,-22.744,16_6_2.csv
2018-07-12T11:00:34.577795,-0.708,-0.341,0.032,-136.22,-55.0,-83.902,16_6_2.csv
2018-07-12T11:00:34.644473,-0.842,-0.437,0.045,-102.5,-13.232,-24.512,16_6_2.csv
2018-07-12T11:00:34.709145,-0.842,-0.437,0.045,-82.073,-1.22,-2.866,16_6_2.csv
2018-07-12T11:00:34.757775,-1.028,-0.355,0.131,-55.793,14.268,5.976,16_6_2.csv
2018-07-12T11:00:34.804399,-1.2,-0.285,0.191,-25.244,40.366,8.232,16_6_2.csv
2018-07-12T11:00:34.851525,-1.2,-0.285,0.191,-51.707,15.244,4.39,16_6_2.csv
2018-07-12T11:00:34.910181,-1.312,-0.533,-0.044,-19.817,-10.549,12.5,16_6_2.csv
2018-07-12T11:00:34.978864,-1.156,-0.495,-0.075,4.085,-57.195,-9.39,16_6_2.csv
2018-07-12T11:00:35.037520,-0.924,-0.362,-0.143,58.963,-50.549,-60.732,16_6_2.csv
2018-07-12T11:00:35.084646,-0.924,-0.362,-0.143,138.476,-44.573,-45.0,16_6_2.csv
2018-07-12T11:00:35.133276,-1.042,-0.267,-0.117,92.134,-67.561,-44.268,16_6_2.csv
2018-07-12T11:00:35.177393,-1.042,-0.267,-0.117,31.159,-66.646,-62.256,16_6_2.csv
2018-07-12T11:00:35.245575,-0.919,-0.318,-0.039,-18.598,-43.232,-51.951,16_6_2.csv
2018-07-12T11:00:35.299719,-0.783,-0.305,0.006,-11.89,-49.451,-50.915,16_6_2.csv
2018-07-12T11:00:35.492254,-0.858,-0.235,0.121,-49.451,12.378,61.585,16_6_2.csv
2018-07-12T11:00:35.539883,-1.055,-0.285,-0.01,-86.402,12.073,84.634,16_6_2.csv
2018-07-12T11:00:35.587511,-1.055,-0.285,-0.01,-138.476,6.159,90.305,16_6_2.csv
2018-07-12T11:00:35.633635,-1.48,-0.512,-0.286,-189.512,-1.951,88.232,16_6_2.csv
2018-07-12T11:00:35.699310,-1.012,-0.688,-0.003,-184.024,-20.244,89.268,16_6_2.csv
2018-07-12T11:00:35.760473,-0.887,-0.45,-0.035,2.5,72.744,28.902,16_6_2.csv
2018-07-12T11:00:35.824143,-0.887,-0.45,-0.035,35.61,21.22,4.939,16_6_2.csv
2018-07-12T11:00:35.864750,-0.925,-0.182,-0.085,0.427,-29.146,-21.951,16_6_2.csv
2018-07-12T11:00:35.922404,-0.76,-0.354,-0.037,-167.012,-63.11,-76.341,16_6_2.csv
2018-07-12T11:00:35.975045,-0.76,-0.354,-0.037,-167.988,-43.659,-59.878,16_6_2.csv
2018-07-12T11:00:36.034202,-0.931,-0.261,0.147,-122.439,-19.512,-29.268,16_6_2.csv
2018-07-12T11:00:36.099877,-0.988,-0.39,0.175,-99.756,-13.78,12.866,16_6_2.csv
2018-07-12T11:00:36.164048,-1.033,-0.479,0.116,16.402,39.085,22.012,16_6_2.csv
2018-07-12T11:00:36.208667,-1.033,-0.479,0.116,35.61,30.244,18.902,16_6_2.csv
2018-07-12T11:00:36.260806,-1.093,-0.301,0.056,-5.427,7.073,11.89,16_6_2.csv
2018-07-12T11:00:36.302919,-1.093,-0.301,0.056,-73.78,-24.146,-13.902,16_6_2.csv
2018-07-12T11:00:36.362577,-1.303,-0.579,0.02,-42.988,-32.927,-24.512,16_6_2.csv
2018-07-12T11:00:36.429255,-0.984,-0.522,-0.03,42.073,-45.305,-1.159,16_6_2.csv
2018-07-12T11:00:36.490920,-1.052,-0.212,-0.108,144.329,-28.598,-48.659,16_6_2.csv
2018-07-12T11:00:36.537544,-1.052,-0.212,-0.108,64.817,-70.061,-64.878,16_6_2.csv
2018-07-12T11:00:36.586173,-1.016,-0.334,-0.065,29.817,-73.232,-65.549,16_6_2.csv
2018-07-12T11:00:36.632296,-1.016,-0.334,-0.065,9.146,-56.585,-58.902,16_6_2.csv
2018-07-12T11:00:36.757630,-0.753,-0.333,0.068,-36.463,-42.927,-68.537,16_6_2.csv
2018-07-12T11:00:36.856895,-0.745,-0.26,0.101,-65.0,-20.854,-0.61,16_6_2.csv
2018-07-12T11:00:36.913044,-0.85,-0.309,0.085,-82.988,-9.451,30.854,16_6_2.csv
2018-07-12T11:00:36.987743,-1.246,-0.429,-0.14,-116.707,-0.061,101.585,16_6_2.csv
2018-07-12T11:00:37.065952,-1.431,-0.79,-0.198,-137.073,-10.488,147.012,16_6_2.csv
2018-07-12T11:00:37.119093,-1.431,-0.79,-0.198,-47.988,10.793,154.634,16_6_2.csv
2018-07-12T11:00:37.164214,-0.753,-0.492,-0.121,119.756,107.5,51.159,16_6_2.csv
2018-07-12T11:00:37.213345,-1.005,-0.189,-0.094,38.841,21.768,0.061,16_6_2.csv
2018-07-12T11:00:37.257963,-1.005,-0.189,-0.094,-86.524,-19.573,-20.305,16_6_2.csv
2018-07-12T11:00:37.322636,-0.809,-0.369,-0.021,-200.244,-25.488,-36.159,16_6_2.csv
2018-07-12T11:00:37.378284,-0.762,-0.65,0.058,-172.744,-28.11,-41.89,16_6_2.csv
2018-07-12T11:00:37.428919,-0.762,-0.65,0.058,-56.28,6.341,-17.378,16_6_2.csv
2018-07-12T11:00:37.475544,-1.042,-0.478,0.184,30.61,36.159,-0.061,16_6_2.csv
2018-07-12T11:00:37.522669,-1.042,-0.478,0.184,50.122,32.561,-6.707,16_6_2.csv
2018-07-12T11:00:37.570299,-1.142,-0.257,0.045,73.537,-19.024,-39.817,16_6_2.csv
2018-07-12T11:00:37.626448,-1.186,-0.214,-0.032,127.683,-31.159,-3.049,16_6_2.csv
2018-07-12T11:00:37.710174,-1.271,-0.442,-0.08,-59.817,-51.402,-36.646,16_6_2.csv
2018-07-12T11:00:37.774846,-0.933,-0.55,-0.117,-10.976,-54.207,-19.634,16_6_2.csv
2018-07-12T11:00:37.823476,-0.933,-0.55,-0.117,89.634,-30.488,-16.159,16_6_2.csv
2018-07-12T11:00:37.872105,-0.913,-0.164,-0.087,164.451,-9.39,-14.878,16_6_2.csv
2018-07-12T11:00:37.930260,-0.933,-0.369,-0.031,-22.805,-36.646,-48.902,16_6_2.csv
2018-07-12T11:00:37.991424,-0.933,-0.369,-0.031,6.89,-30.366,-27.866,16_6_2.csv
2018-07-12T11:00:38.038549,-0.84,-0.342,0.022,27.134,-23.902,-6.707,16_6_2.csv
2018-07-12T11:00:38.117760,-0.817,-0.276,0.083,-10.183,-23.659,-19.451,16_6_2.csv
2018-07-12T11:00:38.165387,-0.817,-0.276,0.083,-17.378,-19.817,-15.793,16_6_2.csv
2018-07-12T11:00:38.241089,-0.85,-0.291,0.103,-21.768,1.585,19.451,16_6_2.csv
2018-07-12T11:00:38.298743,-0.965,-0.298,0.021,-83.232,2.134,42.073,16_6_2.csv
2018-07-12T11:00:38.351884,-1.241,-0.408,-0.199,-120.976,0.122,40.305,16_6_2.csv
2018-07-12T11:00:38.406530,-1.241,-0.408,-0.199,-151.524,-4.756,40.61,16_6_2.csv
2018-07-12T11:00:38.460674,-1.173,-0.582,-0.095,-105.061,18.232,59.207,16_6_2.csv
2018-07-12T11:00:38.505794,-0.916,-0.32,-0.012,-65.854,56.524,26.768,16_6_2.csv
2018-07-12T11:00:38.574980,-0.904,-0.275,-0.056,-83.537,-29.268,-17.988,16_6_2.csv
2018-07-12T11:00:38.622104,-0.904,-0.275,-0.056,-99.756,-44.39,-17.561,16_6_2.csv
2018-07-12T11:00:38.694297,-0.771,-0.386,0.016,-91.707,-4.512,2.195,16_6_2.csv
2018-07-12T11:00:38.741924,-0.866,-0.428,0.066,-63.171,10.915,15.488,16_6_2.csv
2018-07-12T11:00:38.790052,-0.866,-0.428,0.066,-54.939,18.049,23.659,16_6_2.csv
2018-07-12T11:00:38.836175,-1.004,-0.437,0.122,-39.024,27.012,25.0,16_6_2.csv
2018-07-12T11:00:38.915887,-1.085,-0.398,0.194,-7.805,-13.171,-10.976,16_6_2.csv
2018-07-12T11:00:38.970533,-1.085,-0.398,0.194,-30.549,-29.329,-26.098,16_6_2.csv
2018-07-12T11:00:39.041222,-1.093,-0.388,0.116,-71.037,-44.817,-54.024,16_6_2.csv
2018-07-12T11:00:39.088849,-1.333,-0.584,0.026,-65.366,-39.146,-52.073,16_6_2.csv
2018-07-12T11:00:39.152017,-1.005,-0.425,0.014,21.28,-25.671,-18.537,16_6_2.csv
2018-07-12T11:00:39.200145,-1.005,-0.425,0.014,40.488,-28.537,-71.829,16_6_2.csv
2018-07-12T11:00:39.272839,-1.042,-0.378,-0.054,82.195,-49.817,-59.329,16_6_2.csv
2018-07-12T11:00:39.337010,-0.977,-0.265,-0.044,12.256,-61.585,-67.744,16_6_2.csv
2018-07-12T11:00:39.397170,-0.843,-0.288,0.054,-14.268,-59.939,-66.341,16_6_2.csv
2018-07-12T11:00:39.475379,-0.71,-0.254,0.138,-18.171,-36.28,-30.427,16_6_2.csv
2018-07-12T11:00:39.526014,-0.71,-0.254,0.138,-27.622,-20.671,-11.89,16_6_2.csv
2018-07-12T11:00:39.607230,-0.704,-0.261,0.164,-33.476,9.268,54.146,16_6_2.csv
2018-07-12T11:00:39.662878,-0.993,-0.305,0.029,-91.585,16.768,104.695,16_6_2.csv
2018-07-12T11:00:39.727049,-1.511,-0.508,-0.29,-135.915,4.756,119.695,16_6_2.csv
2018-07-12T11:00:39.791220,-1.172,-0.658,-0.112,-173.476,-21.646,119.451,16_6_2.csv
2018-07-12T11:00:39.839850,-1.172,-0.658,-0.112,-106.463,25.61,70.488,16_6_2.csv
2018-07-12T11:00:39.907530,-0.938,-0.535,-0.017,-11.037,-6.585,-2.683,16_6_2.csv
2018-07-12T11:00:39.977216,-0.807,-0.297,-0.018,-32.439,-23.415,-28.11,16_6_2.csv
2018-07-12T11:00:40.068961,-0.702,-0.36,0.013,-117.012,-15.183,-19.512,16_6_2.csv
2018-07-12T11:00:40.121601,-0.849,-0.455,0.088,-98.841,-5.0,1.159,16_6_2.csv
2018-07-12T11:00:40.184769,-0.985,-0.478,0.192,-60.183,18.171,17.866,16_6_2.csv
2018-07-12T11:00:40.241921,-0.985,-0.478,0.192,-32.866,29.817,5.061,16_6_2.csv
2018-07-12T11:00:40.305090,-1.099,-0.399,0.181,-2.805,11.829,-17.683,16_6_2.csv
2018-07-12T11:00:40.360237,-1.249,-0.395,0.038,-23.963,-16.768,-27.256,16_6_2.csv
2018-07-12T11:00:40.429421,-1.192,-0.493,-0.034,-25.976,-42.378,-38.72,16_6_2.csv
2018-07-12T11:00:40.476046,-1.192,-0.493,-0.034,3.171,-49.939,-40.061,16_6_2.csv
2018-07-12T11:00:40.523171,-1.066,-0.387,-0.123,13.963,-50.854,-74.573,16_6_2.csv
2018-07-12T11:00:40.572803,-1.066,-0.387,-0.123,24.085,-62.927,-93.72,16_6_2.csv
2018-07-12T11:00:40.630457,-1.037,-0.339,-0.18,28.232,-72.561,-81.28,16_6_2.csv
2018-07-12T11:00:40.700143,-0.831,-0.295,-0.052,-1.951,-59.207,-79.878,16_6_2.csv
2018-07-12T11:00:40.757295,-0.776,-0.292,0.004,-2.439,-22.744,-31.707,16_6_2.csv
2018-07-12T11:00:41.060611,-1.173,-0.39,-0.032,-101.342,31.768,136.89,16_6_2.csv
2018-07-12T11:00:41.121779,-1.563,-0.591,-0.256,-166.037,-17.073,121.89,16_6_2.csv
2018-07-12T11:00:41.166899,-0.919,-0.551,-0.063,-155.244,-10.732,66.524,16_6_2.csv
2018-07-12T11:00:41.231575,-0.969,-0.425,-0.154,-63.659,-9.756,-45.671,16_6_2.csv
2018-07-12T11:00:41.277698,-0.969,-0.425,-0.154,-59.695,-52.012,-54.024,16_6_2.csv
2018-07-12T11:00:41.342370,-0.852,-0.244,-0.069,-108.781,-80.671,-83.293,16_6_2.csv
2018-07-12T11:00:41.402029,-0.637,-0.394,0.009,-182.744,-66.463,-100.061,16_6_2.csv
2018-07-12T11:00:41.453166,-0.637,-0.394,0.009,-122.927,-48.049,-62.134,16_6_2.csv
2018-07-12T11:00:41.507309,-0.712,-0.447,0.153,-5.61,24.756,37.744,16_6_2.csv
2018-07-12T11:00:41.567971,-0.977,-0.404,0.188,18.963,55.793,60.366,16_6_2.csv
2018-07-12T11:00:41.626628,-0.977,-0.404,0.188,24.085,69.085,68.72,16_6_2.csv
2018-07-12T11:00:41.682276,-1.278,-0.444,0.043,26.098,28.049,51.951,16_6_2.csv
2018-07-12T11:00:41.726393,-1.344,-0.421,-0.028,9.878,0.488,13.415,16_6_2.csv
2018-07-12T11:00:41.774522,-1.344,-0.421,-0.028,-13.537,-25.122,-28.11,16_6_2.csv
2018-07-12T11:00:41.819642,-1.148,-0.498,-0.039,-11.89,-48.659,-40.183,16_6_2.csv
2018-07-12T11:00:41.884314,-0.924,-0.419,-0.105,49.024,-60.305,-62.5,16_6_2.csv
2018-07-12T11:00:41.944976,-0.924,-0.419,-0.105,91.037,-63.232,-62.622,16_6_2.csv
2018-07-12T11:00:42.006139,-0.954,-0.372,-0.111,94.939,-46.707,-37.5,16_6_2.csv
2018-07-12T11:00:42.058779,-0.86,-0.288,-0.097,62.988,-34.939,-38.537,16_6_2.csv
2018-07-12T11:00:42.117435,-0.73,-0.321,0.018,9.207,-34.268,-46.768,16_6_2.csv
2018-07-12T11:00:42.206172,-0.749,-0.263,0.114,49.451,4.817,-20.122,16_6_2.csv
2018-07-12T11:00:42.304434,-0.898,-0.216,0.066,-14.451,14.024,22.195,16_6_2.csv
2018-07-12T11:00:42.364093,-1.19,-0.366,-0.114,-116.281,13.171,41.585,16_6_2.csv
2018-07-12T11:00:42.438291,-1.331,-0.581,-0.148,-171.159,1.341,66.951,16_6_2.csv
2018-07-12T11:00:42.490430,-1.331,-0.581,-0.148,-157.378,12.683,88.659,16_6_2.csv
2018-07-12T11:00:42.538558,-0.944,-0.633,0.078,-65.244,69.695,91.463,16_6_2.csv
2018-07-12T11:00:42.584180,-0.944,-0.633,0.078,41.037,97.866,76.89,16_6_2.csv
2018-07-12T11:00:42.648852,-0.965,-0.235,-0.061,2.317,-4.939,-12.256,16_6_2.csv
2018-07-12T11:00:42.720042,-0.847,-0.256,-0.055,-142.622,-59.695,-70.244,16_6_2.csv
2018-07-12T11:00:42.789226,-0.731,-0.526,0.026,-125.61,-41.89,-47.744,16_6_2.csv
2018-07-12T11:00:42.837354,-0.877,-0.438,0.105,1.037,37.927,12.317,16_6_2.csv
2018-07-12T11:00:42.886987,-0.877,-0.438,0.105,24.207,48.415,20.671,16_6_2.csv
2018-07-12T11:00:42.928598,-1.041,-0.282,0.108,12.378,35.427,15.305,16_6_2.csv
2018-07-12T11:00:43.042902,-1.261,-0.45,0.009,-17.317,-9.329,-16.524,16_6_2.csv
2018-07-12T11:00:43.118604,-1.372,-0.502,-0.044,-32.317,-59.024,-24.085,16_6_2.csv
2018-07-12T11:00:43.179767,-0.999,-0.395,-0.082,-20.122,-56.159,-56.951,16_6_2.csv
2018-07-12T11:00:43.225890,-0.999,-0.395,-0.082,35.671,-67.134,-85.488,16_6_2.csv
2018-07-12T11:00:43.275522,-1.01,-0.341,-0.133,35.671,-96.524,-86.159,16_6_2.csv
2018-07-12T11:00:43.322146,-0.933,-0.33,-0.077,33.659,-79.634,-74.939,16_6_2.csv
2018-07-12T11:00:43.382808,-0.933,-0.33,-0.077,16.159,-59.085,-56.768,16_6_2.csv
2018-07-12T11:00:43.443470,-0.813,-0.312,0.061,16.037,-30.305,-20.183,16_6_2.csv
2018-07-12T11:00:43.491097,-0.776,-0.202,0.221,18.659,-3.354,2.622,16_6_2.csv
2018-07-12T11:00:43.603298,-0.816,-0.24,0.135,-94.451,-31.159,60.305,16_6_2.csv
2018-07-12T11:00:43.647421,-0.983,-0.396,-0.021,-104.024,-27.439,82.805,16_6_2.csv
2018-07-12T11:00:43.694546,-0.983,-0.396,-0.021,-119.634,-23.902,91.098,16_6_2.csv
2018-07-12T11:00:43.756213,-1.391,-0.542,-0.267,-138.781,-22.256,83.232,16_6_2.csv
2018-07-12T11:00:43.813365,-1.072,-0.58,-0.069,-122.866,-8.841,77.439,16_6_2.csv
2018-07-12T11:00:43.869515,-1.072,-0.58,-0.069,-78.11,48.232,52.5,16_6_2.csv
2018-07-12T11:00:43.914635,-0.943,-0.42,-0.094,-40.244,36.89,27.622,16_6_2.csv
2018-07-12T11:00:43.963767,-0.792,-0.25,-0.071,-72.622,-23.476,-17.073,16_6_2.csv
2018-07-12T11:00:44.007383,-0.792,-0.25,-0.071,-139.085,-31.89,-39.939,16_6_2.csv
2018-07-12T11:00:44.068545,-0.746,-0.414,-0.028,-177.195,-32.195,-31.22,16_6_2.csv
2018-07-12T11:00:44.142242,-0.887,-0.541,0.087,-114.695,3.232,42.988,16_6_2.csv
2018-07-12T11:00:44.197890,-0.887,-0.541,0.087,-81.28,26.524,66.707,16_6_2.csv
2018-07-12T11:00:44.242008,-1.025,-0.53,0.194,-26.402,64.207,41.28,16_6_2.csv
2018-07-12T11:00:44.293144,-1.231,-0.428,0.03,-6.402,47.683,10.671,16_6_2.csv
2018-07-12T11:00:44.335256,-1.231,-0.428,0.03,-10.915,-3.476,-28.171,16_6_2.csv
2018-07-12T11:00:44.395918,-1.374,-0.484,-0.106,-29.756,-38.232,-71.829,16_6_2.csv
2018-07-12T11:00:44.457081,-1.081,-0.548,-0.087,12.317,-71.402,-71.098,16_6_2.csv
2018-07-12T11:00:44.524761,-1.1,-0.346,-0.201,112.927,-40.183,-113.537,16_6_2.csv
2018-07-12T11:00:44.572890,-1.1,-0.346,-0.201,114.085,-63.841,-117.195,16_6_2.csv
2018-07-12T11:00:44.621519,-0.956,-0.208,-0.098,92.073,-67.805,-110.854,16_6_2.csv
2018-07-12T11:00:44.682181,-0.729,-0.229,0.029,43.171,-61.707,-101.281,16_6_2.csv
2018-07-12T11:00:44.755376,-0.729,-0.229,0.029,-1.829,-40.854,-46.524,16_6_2.csv
2018-07-12T11:00:44.815536,-0.69,-0.27,0.163,-1.159,-0.244,21.341,16_6_2.csv
2018-07-12T11:00:44.954908,-0.992,-0.366,0.027,-36.524,16.524,99.268,16_6_2.csv
2018-07-12T11:00:45.007047,-1.31,-0.409,-0.152,-78.11,19.512,120.793,16_6_2.csv
2018-07-12T11:00:45.053169,-1.31,-0.409,-0.152,-129.451,7.439,108.293,16_6_2.csv
2018-07-12T11:00:45.109820,-1.364,-0.527,-0.293,-197.317,-28.902,81.646,16_6_2.csv
2018-07-12T11:00:45.177501,-0.88,-0.578,-0.147,-220.976,-14.024,-1.463,16_6_2.csv
2018-07-12T11:00:45.255208,-0.849,-0.433,-0.156,-60.671,-15.976,-14.695,16_6_2.csv
2018-07-12T11:00:45.325395,-0.849,-0.433,-0.156,-58.78,-28.963,-10.061,16_6_2.csv
2018-07-12T11:00:45.385054,-0.703,-0.311,-0.105,-158.11,-12.378,-29.817,16_6_2.csv
2018-07-12T11:00:45.437193,-0.824,-0.53,-0.008,-125.488,7.927,0.244,16_6_2.csv
2018-07-12T11:00:45.491338,-1.07,-0.291,0.141,-31.829,63.963,37.256,16_6_2.csv
2018-07-12T11:00:45.554005,-1.07,-0.291,0.141,-105.244,54.634,17.866,16_6_2.csv
2018-07-12T11:00:45.617173,-1.018,-0.366,0.1,-212.866,-24.512,-66.341,16_6_2.csv
2018-07-12T11:00:45.677835,-1.104,-0.651,0.076,-88.11,-14.573,-34.817,16_6_2.csv
2018-07-12T11:00:45.725462,-1.104,-0.651,0.076,3.293,-25.854,-9.695,16_6_2.csv
2018-07-12T11:00:45.773590,-1.177,-0.472,-0.072,-15.915,-49.512,-42.866,16_6_2.csv
2018-07-12T11:00:45.838765,-1.04,-0.675,-0.082,30.305,-44.085,-25.854,16_6_2.csv
2018-07-12T11:00:45.900929,-0.975,-0.434,-0.133,180.244,8.963,-31.585,16_6_2.csv
2018-07-12T11:00:45.950060,-0.975,-0.434,-0.133,179.817,-15.122,-54.573,16_6_2.csv
2018-07-12T11:00:46.007713,-1.183,-0.294,-0.206,151.159,-46.829,-52.866,16_6_2.csv
2018-07-12T11:00:46.052834,-0.889,-0.291,-0.075,-7.866,-76.341,-76.585,16_6_2.csv
2018-07-12T11:00:46.101964,-0.889,-0.291,-0.075,-74.146,-63.963,-101.524,16_6_2.csv
2018-07-12T11:00:46.148088,-0.705,-0.384,0.034,-64.695,-44.939,-99.329,16_6_2.csv
2018-07-12T11:00:46.208248,-0.705,-0.384,0.034,-34.878,-40.0,-63.78,16_6_2.csv
2018-07-12T11:00:46.410293,-1.108,-0.43,0.014,5.915,54.634,109.329,16_6_2.csv
2018-07-12T11:00:46.490508,-1.481,-0.514,-0.117,-14.329,48.78,120.854,16_6_2.csv
2018-07-12T11:00:46.541143,-1.005,-0.396,-0.025,-69.207,18.354,72.988,16_6_2.csv
2018-07-12T11:00:46.586765,-1.005,-0.396,-0.025,-98.232,23.476,1.159,16_6_2.csv
2018-07-12T11:00:46.654445,-0.958,-0.491,-0.102,-34.939,-43.232,-9.878,16_6_2.csv
2018-07-12T11:00:46.727139,-0.769,-0.314,-0.042,-43.841,-31.159,-22.927,16_6_2.csv
2018-07-12T11:00:46.802339,-0.738,-0.418,-0.001,-123.598,-20.915,-27.256,16_6_2.csv
2018-07-12T11:00:46.873529,-0.862,-0.475,0.124,-57.195,16.402,31.341,16_6_2.csv
2018-07-12T11:00:46.944719,-1.049,-0.387,0.138,-61.951,46.341,25.427,16_6_2.csv
2018-07-12T11:00:46.992346,-1.049,-0.387,0.138,-118.598,23.598,-11.159,16_6_2.csv
2018-07-12T11:00:47.056517,-1.151,-0.623,-0.048,-13.841,-31.402,-18.72,16_6_2.csv
2018-07-12T11:00:47.115674,-1.237,-0.618,-0.1,22.134,-32.439,-24.634,16_6_2.csv
2018-07-12T11:00:47.177339,-0.971,-0.52,-0.074,58.902,-31.707,-27.195,16_6_2.csv
2018-07-12T11:00:47.232486,-0.971,-0.52,-0.074,82.683,-14.512,-50.427,16_6_2.csv
2018-07-12T11:00:47.291644,-0.983,-0.446,-0.151,118.659,-8.232,-70.732,16_6_2.csv
2018-07-12T11:00:47.359825,-0.993,-0.316,-0.098,166.281,-24.085,-33.354,16_6_2.csv
2018-07-12T11:00:47.438033,-0.829,-0.232,-0.035,39.451,-26.402,-41.707,16_6_2.csv
2018-07-12T11:00:47.512231,-0.736,-0.341,-0.004,-45.549,-52.195,-66.341,16_6_2.csv
2018-07-12T11:00:47.590440,-0.741,-0.378,0.125,-27.927,-11.463,-28.963,16_6_2.csv
2018-07-12T11:00:47.883220,-1.249,-0.594,-0.15,-120.0,-36.524,97.134,16_6_2.csv
2018-07-12T11:00:47.929844,-0.795,-0.507,0.001,-109.39,11.707,58.902,16_6_2.csv
2018-07-12T11:00:47.990506,-0.882,-0.441,-0.146,-0.549,0.427,5.976,16_6_2.csv
2018-07-12T11:00:48.094784,-0.816,-0.338,-0.091,-30.427,-10.549,-15.305,16_6_2.csv
2018-07-12T11:00:48.180512,-0.863,-0.423,0.013,-72.073,31.829,-2.439,16_6_2.csv
2018-07-12T11:00:48.251702,-0.995,-0.363,0.158,-84.634,23.659,4.268,16_6_2.csv
2018-07-12T11:00:48.324396,-1.002,-0.521,0.218,-68.476,19.39,2.378,16_6_2.csv
2018-07-12T11:00:48.367511,-1.002,-0.521,0.218,7.439,37.134,14.573,16_6_2.csv
2018-07-12T11:00:48.440706,-1.156,-0.456,0.073,39.695,1.707,24.512,16_6_2.csv
2018-07-12T11:00:48.490338,-1.374,-0.498,-0.014,-8.537,-21.89,-0.122,16_6_2.csv
2018-07-12T11:00:48.539971,-1.374,-0.498,-0.014,-36.098,-68.354,-12.012,16_6_2.csv
2018-07-12T11:00:48.587096,-1.078,-0.505,-0.127,4.512,-83.11,-115.732,16_6_2.csv
2018-07-12T11:00:48.632718,-1.182,-0.463,-0.198,40.915,-101.646,-144.268,16_6_2.csv
2018-07-12T11:00:48.695386,-1.182,-0.463,-0.198,73.537,-107.195,-128.842,16_6_2.csv
2018-07-12T11:00:48.760057,-1.046,-0.306,-0.105,43.415,-70.427,-96.768,16_6_2.csv
2018-07-12T11:00:48.836762,-0.747,-0.251,0.027,-1.159,-43.476,-57.988,16_6_2.csv
2018-07-12T11:00:48.887396,-0.609,-0.235,0.135,13.476,-23.72,-28.049,16_6_2.csv
2018-07-12T11:00:48.932016,-0.609,-0.235,0.135,17.439,-7.561,6.524,16_6_2.csv
2018-07-12T11:00:49.061360,-0.928,-0.25,0.04,-75.061,24.573,105.305,16_6_2.csv
2018-07-12T11:00:49.131547,-1.455,-0.502,-0.272,-168.781,13.963,148.902,16_6_2.csv
2018-07-12T11:00:49.190204,-1.523,-0.788,-0.274,-202.988,-22.805,150.854,16_6_2.csv
2018-07-12T11:00:49.256881,-1.523,-0.788,-0.274,-153.171,-6.037,119.573,16_6_2.csv
2018-07-12T11:00:49.305511,-0.877,-0.529,-0.106,-67.622,71.098,47.561,16_6_2.csv
2018-07-12T11:00:49.352135,-0.924,-0.297,-0.193,-14.085,-17.927,-29.878,16_6_2.csv
2018-07-12T11:00:49.412295,-0.924,-0.297,-0.193,-64.634,-54.695,-40.793,16_6_2.csv
2018-07-12T11:00:49.493010,-0.681,-0.284,-0.079,-228.903,-49.024,-62.012,16_6_2.csv
2018-07-12T11:00:49.555677,-0.66,-0.54,-0.02,-97.805,10.427,-2.561,16_6_2.csv
2018-07-12T11:00:49.606312,-0.972,-0.48,0.141,-25.0,48.415,27.317,16_6_2.csv
2018-07-12T11:00:49.656947,-0.972,-0.48,0.141,-11.768,64.024,31.037,16_6_2.csv
2018-07-12T11:00:49.732649,-1.167,-0.276,0.163,-83.171,37.683,-24.268,16_6_2.csv
2018-07-12T11:00:49.788799,-1.13,-0.422,0.067,-71.341,-33.78,-47.683,16_6_2.csv
2018-07-12T11:00:49.865002,-1.287,-0.563,-0.025,-30.488,-40.244,-37.744,16_6_2.csv
2018-07-12T11:00:49.916138,-1.104,-0.568,-0.07,30.122,-47.988,-1.463,16_6_2.csv
2018-07-12T11:00:49.965269,-1.104,-0.568,-0.07,84.756,-38.537,-17.134,16_6_2.csv
2018-07-12T11:00:50.007883,-0.846,-0.358,-0.134,170.0,-6.037,-50.793,16_6_2.csv
2018-07-12T11:00:50.082582,-1.18,-0.076,-0.116,236.342,-8.415,26.463,16_6_2.csv
2018-07-12T11:00:50.155275,-1.053,-0.321,-0.125,-56.341,-88.841,-42.195,16_6_2.csv
2018-07-12T11:00:50.224460,-1.053,-0.321,-0.125,-129.817,-109.146,-76.28,16_6_2.csv
2018-07-12T11:00:50.273591,-0.717,-0.53,-0.074,-86.159,-75.305,-162.195,16_6_2.csv
2018-07-12T11:00:50.393911,-0.682,-0.175,0.162,63.354,30.427,4.024,16_6_2.csv
2018-07-12T11:00:50.473123,-0.979,-0.208,0.019,-31.829,40.793,77.073,16_6_2.csv
2018-07-12T11:00:50.523256,-0.979,-0.208,0.019,-106.707,41.037,107.317,16_6_2.csv
2018-07-12T11:00:50.573390,-1.584,-0.625,-0.156,-190.793,27.988,137.927,16_6_2.csv
2018-07-12T11:00:50.622521,-1.584,-0.625,-0.156,-196.403,6.524,169.756,16_6_2.csv
2018-07-12T11:00:50.667140,-1.113,-0.645,0.138,-80.305,50.549,177.927,16_6_2.csv
2018-07-12T11:00:50.751364,-1.104,-0.202,-0.125,-40.305,8.11,9.451,16_6_2.csv
2018-07-12T11:00:50.844113,-0.847,-0.327,-0.169,-163.415,-140.793,-76.524,16_6_2.csv
2018-07-12T11:00:50.899292,-0.562,-0.386,-0.124,-227.5,-107.195,-60.793,16_6_2.csv
2018-07-12T11:00:50.957446,-0.668,-0.445,0.251,-129.817,-31.22,22.256,16_6_2.csv
2018-07-12T11:00:51.008587,-0.668,-0.445,0.251,-38.841,45.732,76.098,16_6_2.csv
2018-07-12T11:00:51.056715,-1.041,-0.342,0.036,-112.256,42.317,107.134,16_6_2.csv
2018-07-12T11:00:51.124902,-1.242,-0.958,-0.064,-110.732,-0.671,60.915,16_6_2.csv
2018-07-12T11:00:51.202110,-1.425,-0.681,-0.288,250.61,76.585,47.317,16_6_2.csv
2018-07-12T11:00:51.274803,-1.425,-0.681,-0.288,310.061,28.476,17.317,16_6_2.csv
2018-07-12T11:00:51.323934,-1.08,-0.073,-0.109,74.146,-45.915,-110.244,16_6_2.csv
2018-07-12T11:00:51.372564,-0.927,-0.297,-0.061,-10.915,-78.171,-139.939,16_6_2.csv
2018-07-12T11:00:51.439241,-0.769,-0.416,-0.041,21.098,-57.744,-85.976,16_6_2.csv
2018-07-12T11:00:51.522463,-0.838,-0.347,0.205,49.268,-12.195,-60.854,16_6_2.csv
2018-07-12T11:00:51.569087,-0.838,-0.347,0.205,55.915,37.744,-49.268,16_6_2.csv
2018-07-12T11:00:51.618720,-0.942,-0.271,0.095,50.305,5.0,-19.878,16_6_2.csv
2018-07-12T11:00:51.668355,-0.942,-0.271,0.095,34.146,-37.012,-1.707,16_6_2.csv
2018-07-12T11:00:51.743051,-0.804,-0.224,0.041,-51.951,-53.72,19.939,16_6_2.csv
2018-07-12T11:00:51.795691,-0.9,-0.323,-0.16,-94.878,-59.268,39.634,16_6_2.csv
2018-07-12T11:00:51.856855,-1.347,-0.608,-0.15,-158.963,-46.463,88.963,16_6_2.csv
2018-07-12T11:00:51.896961,-1.347,-0.608,-0.15,-137.073,3.598,146.585,16_6_2.csv
2018-07-12T11:00:51.950103,-1.078,-0.646,0.08,-86.037,81.585,185.915,16_6_2.csv
2018-07-12T11:00:52.007756,-0.867,-0.375,-0.023,9.756,85.915,72.378,16_6_2.csv
2018-07-12T11:00:52.068418,-0.867,-0.375,-0.023,22.439,45.0,2.195,16_6_2.csv
2018-07-12T11:00:52.131085,-0.951,-0.227,-0.118,-65.305,-76.646,-91.037,16_6_2.csv
2018-07-12T11:00:52.216813,-0.743,-0.368,0.086,-168.049,-31.22,-68.293,16_6_2.csv
2018-07-12T11:00:52.273966,-0.775,-0.446,0.125,-121.281,12.561,-19.024,16_6_2.csv
2018-07-12T11:00:52.325102,-0.971,-0.38,0.246,-65.305,24.634,38.354,16_6_2.csv
2018-07-12T11:00:52.369220,-0.971,-0.38,0.246,-50.183,40.671,41.098,16_6_2.csv
2018-07-12T11:00:52.425369,-1.285,-0.536,0.054,-0.976,63.841,36.098,16_6_2.csv
2018-07-12T11:00:52.504581,-1.525,-0.482,-0.143,21.159,-4.573,22.378,16_6_2.csv
2018-07-12T11:00:52.558725,-1.525,-0.482,-0.143,-27.805,-81.585,-12.073,16_6_2.csv
2018-07-12T11:00:52.600336,-1.043,-0.465,-0.082,-33.659,-69.39,-68.293,16_6_2.csv
2018-07-12T11:00:52.665510,-1.09,-0.478,-0.177,62.988,-82.256,-115.061,16_6_2.csv
2018-07-12T11:00:52.708624,-1.09,-0.478,-0.177,112.744,-89.085,-98.415,16_6_2.csv
2018-07-12T11:00:52.769286,-0.971,-0.239,-0.096,26.28,-74.207,-102.439,16_6_2.csv
2018-07-12T11:00:52.825937,-0.779,-0.287,-0.03,-5.427,-67.5,-90.854,16_6_2.csv
2018-07-12T11:00:52.890108,-0.657,-0.245,0.071,23.476,-37.744,-41.951,16_6_2.csv
2018-07-12T11:00:52.944252,-0.657,-0.245,0.071,20.488,-14.573,-17.683,16_6_2.csv
2018-07-12T11:00:52.992882,-0.689,-0.268,0.227,16.402,18.598,19.756,16_6_2.csv
2018-07-12T11:00:53.038003,-0.689,-0.268,0.227,7.439,53.72,63.72,16_6_2.csv
2018-07-12T11:00:53.188403,-1.535,-0.44,-0.218,-181.646,0.183,114.39,16_6_2.csv
2018-07-12T11:00:53.256083,-1.166,-0.646,-0.074,-222.744,-3.171,82.866,16_6_2.csv
2018-07-12T11:00:53.338302,-0.898,-0.574,-0.064,-61.22,-12.134,6.341,16_6_2.csv
2018-07-12T11:00:53.384927,-0.811,-0.305,-0.108,-43.598,-44.085,4.939,16_6_2.csv
2018-07-12T11:00:53.432554,-0.811,-0.305,-0.108,-96.646,-63.476,-18.72,16_6_2.csv
2018-07-12T11:00:53.481183,-0.679,-0.377,-0.071,-163.232,-64.329,-31.89,16_6_2.csv
2018-07-12T11:00:53.544352,-0.831,-0.534,0.019,-140.915,-9.268,2.805,16_6_2.csv
2018-07-12T11:00:53.605515,-0.831,-0.534,0.019,-93.659,19.878,22.195,16_6_2.csv
2018-07-12T11:00:53.665174,-0.974,-0.453,0.111,-101.281,25.732,-5.671,16_6_2.csv
2018-07-12T11:00:53.712801,-1.112,-0.548,0.166,-43.415,51.585,-21.159,16_6_2.csv
2018-07-12T11:00:53.759425,-1.112,-0.548,0.166,28.598,49.817,-6.951,16_6_2.csv
2018-07-12T11:00:53.823094,-1.385,-0.462,0.052,67.805,5.0,-9.207,16_6_2.csv
2018-07-12T11:00:53.917346,-1.306,-0.386,-0.022,30.366,-69.268,-34.39,16_6_2.csv
2018-07-12T11:00:53.985527,-0.962,-0.3,-0.228,202.683,-53.415,-10.305,16_6_2.csv
2018-07-12T11:00:54.037666,-0.99,-0.01,-0.148,110.854,-76.402,-10.671,16_6_2.csv
2018-07-12T11:00:54.087800,-0.99,-0.01,-0.148,-116.646,-109.085,-97.256,16_6_2.csv
2018-07-12T11:00:54.132920,-0.786,-0.46,-0.091,-73.902,-55.915,-73.049,16_6_2.csv
2018-07-12T11:00:54.178542,-0.724,-0.405,-0.034,17.683,-37.317,-21.22,16_6_2.csv
2018-07-12T11:00:54.245220,-0.724,-0.405,-0.034,50.183,-14.756,7.317,16_6_2.csv
2018-07-12T11:00:54.317412,-0.759,-0.237,0.149,10.122,31.22,27.439,16_6_2.csv
2018-07-12T11:00:54.382586,-0.974,-0.257,0.189,-22.927,42.805,75.915,16_6_2.csv
2018-07-12T11:00:54.473829,-1.227,-0.289,-0.023,-103.963,10.305,85.122,16_6_2.csv
2018-07-12T11:00:54.524968,-1.455,-0.527,-0.21,-153.659,-21.402,75.244,16_6_2.csv
2018-07-12T11:00:54.591147,-0.757,-0.543,0.089,-125.488,11.341,43.293,16_6_2.csv
2018-07-12T11:00:54.645793,-0.757,-0.543,0.089,-35.061,61.646,8.78,16_6_2.csv
2018-07-12T11:00:54.702443,-0.852,-0.277,-0.054,1.707,-20.671,-18.476,16_6_2.csv
2018-07-12T11:00:54.757590,-0.956,-0.133,0.044,-87.805,-51.341,-31.829,16_6_2.csv
2018-07-12T11:00:54.807222,-0.956,-0.133,0.044,-192.805,-72.744,-47.012,16_6_2.csv
2018-07-12T11:00:54.863874,-0.903,-0.309,0.091,-186.281,-71.951,-39.756,16_6_2.csv
2018-07-12T11:00:54.922530,-0.903,-0.403,0.186,-103.963,-39.756,-15.793,16_6_2.csv
2018-07-12T11:00:54.978680,-0.886,-0.272,0.194,-18.841,30.61,16.829,16_6_2.csv
2018-07-12T11:00:55.024301,-0.886,-0.272,0.194,-29.878,34.268,10.061,16_6_2.csv
2018-07-12T11:00:55.074435,-1.011,-0.527,0.146,-50.549,24.817,5.244,16_6_2.csv
2018-07-12T11:00:55.122563,-1.011,-0.527,0.146,-2.561,33.354,28.171,16_6_2.csv
2018-07-12T11:00:55.190244,-1.358,-0.526,0.061,112.317,62.561,63.232,16_6_2.csv
2018-07-12T11:00:55.255417,-1.213,-0.263,-0.006,14.207,-46.829,-11.341,16_6_2.csv
2018-07-12T11:00:55.321092,-1.034,-0.256,-0.108,-10.549,-86.28,-79.268,16_6_2.csv
2018-07-12T11:00:55.369722,-1.034,-0.256,-0.108,-26.402,-118.902,-109.329,16_6_2.csv
2018-07-12T11:00:55.414842,-0.938,-0.398,-0.057,-31.402,-131.89,-99.878,16_6_2.csv
2018-07-12T11:00:55.459461,-0.791,-0.327,0.086,-21.463,-63.354,-77.744,16_6_2.csv
2018-07-12T11:00:55.520123,-0.791,-0.327,0.086,-9.268,-31.463,-64.329,16_6_2.csv
2018-07-12T11:00:55.572262,-0.792,-0.257,0.158,3.049,-10.854,-35.854,16_6_2.csv
2018-07-12T11:00:55.616881,-0.792,-0.257,0.158,-12.073,-21.524,-10.732,16_6_2.csv
2018-07-12T11:00:55.664007,-0.756,-0.266,0.155,-39.756,-14.756,21.22,16_6_2.csv
2018-07-12T11:00:55.712636,-0.871,-0.333,0.072,-38.902,3.049,45.915,16_6_2.csv
2018-07-12T11:00:55.758257,-0.871,-0.333,0.072,-46.28,18.171,72.256,16_6_2.csv
2018-07-12T11:00:55.898637,-1.277,-0.704,-0.016,-41.768,74.878,118.232,16_6_2.csv
2018-07-12T11:00:55.947768,-0.892,-0.477,-0.13,38.598,113.049,63.598,16_6_2.csv
2018-07-12T11:00:56.006427,-0.892,-0.477,-0.13,92.439,62.744,3.415,16_6_2.csv
2018-07-12T11:00:56.057062,-0.947,-0.063,-0.147,70.976,-16.89,-47.866,16_6_2.csv
2018-07-12T11:00:56.108198,-0.753,-0.148,0.109,-231.098,-84.146,-108.171,16_6_2.csv
2018-07-12T11:00:56.167856,-0.753,-0.148,0.109,-353.415,-77.744,-83.232,16_6_2.csv
2018-07-12T11:00:56.241052,-0.733,-0.747,0.052,-46.951,-11.098,49.939,16_6_2.csv
2018-07-12T11:00:56.316252,-0.914,-0.463,0.112,47.256,54.329,91.524,16_6_2.csv
2018-07-12T11:00:56.382429,-1.136,-0.367,0.071,-11.585,30.915,2.134,16_6_2.csv
2018-07-12T11:00:56.430557,-1.259,-0.531,-0.078,31.28,-11.768,8.476,16_6_2.csv
2018-07-12T11:00:56.481693,-1.259,-0.531,-0.078,46.159,-27.561,-3.171,16_6_2.csv
2018-07-12T11:00:56.524307,-1.314,-0.508,-0.052,37.683,-30.061,-22.073,16_6_2.csv
2018-07-12T11:00:56.586473,-0.998,-0.39,-0.147,5.366,-58.537,-65.61,16_6_2.csv
2018-07-12T11:00:56.652649,-0.998,-0.39,-0.147,33.963,-72.927,-112.805,16_6_2.csv
2018-07-12T11:00:56.709801,-1.03,-0.43,-0.159,79.085,-86.402,-99.634,16_6_2.csv
2018-07-12T11:00:56.758933,-0.908,-0.296,-0.049,71.829,-59.939,-88.476,16_6_2.csv
2018-07-12T11:00:56.814581,-0.908,-0.296,-0.049,34.695,-41.707,-83.415,16_6_2.csv
2018-07-12T11:00:56.867221,-0.685,-0.267,0.116,36.707,-15.671,-18.537,16_6_2.csv
2018-07-12T11:00:56.940416,-0.7,-0.259,0.194,40.427,-1.585,25.305,16_6_2.csv
2018-07-12T11:00:57.002081,-0.923,-0.254,0.162,6.463,20.183,45.488,16_6_2.csv
2018-07-12T11:00:57.068758,-1.043,-0.261,-0.003,-59.878,24.573,46.951,16_6_2.csv
2018-07-12T11:00:57.115884,-1.043,-0.261,-0.003,-140.122,17.866,25.671,16_6_2.csv
2018-07-12T11:00:57.550103,-0.817,-0.494,0.112,-90.732,-10.549,-2.866,16_6_2.csv
2018-07-12T11:00:57.607260,-0.817,-0.494,0.112,-67.073,17.744,35.976,16_6_2.csv
2018-07-12T11:00:57.663410,-0.984,-0.516,0.2,-37.988,49.695,58.598,16_6_2.csv
2018-07-12T11:00:57.716556,-1.29,-0.48,0.014,17.378,68.963,51.159,16_6_2.csv
2018-07-12T11:00:57.772706,-1.29,-0.48,0.014,20.244,32.927,24.756,16_6_2.csv
2018-07-12T11:00:57.820333,-1.502,-0.48,-0.106,-2.561,-18.963,-12.744,16_6_2.csv
2018-07-12T11:00:57.868461,-0.994,-0.495,-0.044,-40.183,-75.305,-91.037,16_6_2.csv
2018-07-12T11:00:57.913582,-0.994,-0.495,-0.044,34.573,-59.39,-107.317,16_6_2.csv
2018-07-12T11:00:57.977251,-0.987,-0.19,-0.27,244.634,-45.671,-24.695,16_6_2.csv
2018-07-12T11:00:58.038917,-1.041,0.173,-0.055,43.598,-63.171,12.744,16_6_2.csv
2018-07-12T11:00:58.102084,-1.041,0.173,-0.055,-206.403,-102.439,-103.902,16_6_2.csv
2018-07-12T11:00:58.146201,-0.888,-0.542,-0.103,-193.293,-106.037,-114.146,16_6_2.csv
2018-07-12T11:00:58.196335,-0.738,-0.309,0.056,26.28,-94.329,-36.646,16_6_2.csv
2018-07-12T11:00:58.247973,-0.738,-0.309,0.056,24.817,-63.902,-26.22,16_6_2.csv
2018-07-12T11:00:58.320165,-0.645,-0.132,0.158,-77.256,-14.451,23.049,16_6_2.csv
2018-07-12T11:00:58.376816,-0.821,-0.291,0.024,-88.476,7.561,58.902,16_6_2.csv
2018-07-12T11:00:58.448507,-1.223,-0.684,-0.233,-80.549,-2.317,122.195,16_6_2.csv
2018-07-12T11:00:58.492625,-1.223,-0.684,-0.233,43.354,34.695,167.927,16_6_2.csv
2018-07-12T11:00:58.848043,-0.667,-0.582,0.079,-198.842,-61.646,-22.744,16_6_2.csv
2018-07-12T11:00:58.899179,-0.667,-0.582,0.079,-92.561,3.232,33.049,16_6_2.csv
2018-07-12T11:00:58.958339,-0.943,-0.528,0.238,49.573,93.659,82.195,16_6_2.csv
2018-07-12T11:00:59.015492,-1.192,-0.285,0.128,34.329,85.305,52.927,16_6_2.csv
2018-07-12T11:00:59.074148,-1.192,-0.285,0.128,-1.098,39.634,2.988,16_6_2.csv
2018-07-12T11:00:59.124783,-1.381,-0.441,-0.06,-3.537,-52.561,-45.427,16_6_2.csv
2018-07-12T11:00:59.184943,-1.16,-0.537,0.024,27.256,-68.598,-45.732,16_6_2.csv
2018-07-12T11:00:59.244101,-0.926,-0.229,-0.196,140.244,-33.049,-52.439,16_6_2.csv
2018-07-12T11:00:59.303259,-0.926,-0.229,-0.196,259.817,-24.573,4.756,16_6_2.csv
2018-07-12T11:00:59.355398,-1.175,0.077,-0.164,106.951,-74.451,-13.049,16_6_2.csv
2018-07-12T11:00:59.414555,-0.823,-0.437,-0.069,-212.256,-122.988,-122.683,16_6_2.csv
2018-07-12T11:00:59.479729,-0.65,-0.424,0.034,-35.366,-49.573,-74.329,16_6_2.csv
2018-07-12T11:00:59.536380,-0.65,-0.424,0.034,17.744,-17.988,-36.28,16_6_2.csv
2018-07-12T11:00:59.586514,-0.679,-0.24,0.074,-4.329,1.585,-4.451,16_6_2.csv
2018-07-12T11:00:59.638151,-0.827,-0.343,-0.022,-70.0,16.28,46.829,16_6_2.csv
2018-07-12T11:00:59.686781,-0.827,-0.343,-0.022,-81.098,14.512,77.134,16_6_2.csv
2018-07-12T11:00:59.757469,-1.223,-0.468,-0.176,-109.512,12.073,102.378,16_6_2.csv
2018-07-12T11:00:59.852222,-1.562,-0.787,-0.041,-26.402,60.0,163.842,16_6_2.csv
2018-07-12T11:01:00.153031,-0.631,-0.585,-0.001,-213.232,-65.488,-87.378,16_6_2.csv
2018-07-12T11:01:00.224225,-0.833,-0.439,0.082,39.268,22.378,18.476,16_6_2.csv
2018-07-12T11:01:00.274863,-0.833,-0.439,0.082,60.366,45.427,44.39,16_6_2.csv
2018-07-12T11:01:00.324495,-0.946,-0.318,0.117,8.72,60.793,24.024,16_6_2.csv
2018-07-12T11:01:00.384154,-1.319,-0.478,0.043,16.159,52.805,33.415,16_6_2.csv
2018-07-12T11:01:00.463365,-1.414,-0.457,-0.059,6.341,4.085,41.22,16_6_2.csv
2018-07-12T11:01:00.540571,-0.969,-0.387,-0.1,-50.488,-72.256,-78.598,16_6_2.csv
2018-07-12T11:01:00.593211,-0.969,-0.387,-0.1,-6.463,-74.939,-127.683,16_6_2.csv
2018-07-12T11:01:00.650363,-0.972,-0.287,-0.088,102.073,-72.012,-38.72,16_6_2.csv
2018-07-12T11:01:00.697990,-0.864,-0.237,0.002,-12.134,-66.037,-62.622,16_6_2.csv
2018-07-12T11:01:00.741606,-0.864,-0.237,0.002,-49.817,-54.146,-63.476,16_6_2.csv
2018-07-12T11:01:00.788230,-0.776,-0.351,0.003,-21.524,-42.561,-34.085,16_6_2.csv
2018-07-12T11:01:00.858418,-0.755,-0.27,0.048,-11.341,-28.354,3.963,16_6_2.csv
2018-07-12T11:01:00.928605,-0.842,-0.306,0.021,-51.524,-7.561,29.39,16_6_2.csv
2018-07-12T11:01:00.991272,-0.842,-0.306,0.021,-68.11,-1.341,45.732,16_6_2.csv
2018-07-12T11:01:01.039400,-1.147,-0.375,-0.162,-93.963,2.988,64.39,16_6_2.csv
2018-07-12T11:01:01.088531,-1.334,-0.636,-0.26,-175.793,-26.646,77.683,16_6_2.csv
2018-07-12T11:01:01.131646,-1.334,-0.636,-0.26,-176.524,-40.244,92.134,16_6_2.csv
2018-07-12T11:01:01.198825,-0.934,-0.624,-0.003,-108.049,54.024,67.134,16_6_2.csv
2018-07-12T11:01:01.280544,-1.046,-0.345,-0.072,40.793,37.378,-7.439,16_6_2.csv
2018-07-12T11:01:01.334186,-0.753,-0.156,0.031,-92.378,-48.537,-67.439,16_6_2.csv
2018-07-12T11:01:01.381812,-0.753,-0.156,0.031,-202.683,-62.561,-92.012,16_6_2.csv
2018-07-12T11:01:01.450997,-0.631,-0.577,0.016,-89.329,-20.793,-3.659,16_6_2.csv
2018-07-12T11:01:01.521686,-0.85,-0.62,0.152,10.244,20.305,58.171,16_6_2.csv
2018-07-12T11:01:01.590369,-1.113,-0.418,0.146,78.049,80.549,85.976,16_6_2.csv
2018-07-12T11:01:01.665067,-1.289,-0.35,-0.046,21.707,5.549,16.707,16_6_2.csv
2018-07-12T11:01:01.740770,-1.392,-0.59,-0.117,-41.524,-82.622,-73.659,16_6_2.csv
2018-07-12T11:01:01.787394,-1.392,-0.59,-0.117,-15.061,-103.232,-69.451,16_6_2.csv
2018-07-12T11:01:01.851565,-1.0,-0.482,-0.084,89.939,-46.159,-89.024,16_6_2.csv
2018-07-12T11:01:01.897186,-1.015,-0.353,-0.123,96.646,-59.024,-97.622,16_6_2.csv
2018-07-12T11:01:01.956845,-1.015,-0.353,-0.123,101.22,-63.415,-69.634,16_6_2.csv
2018-07-12T11:01:02.018510,-0.923,-0.237,-0.109,2.012,-53.659,-57.012,16_6_2.csv
2018-07-12T11:01:02.076163,-0.695,-0.302,-0.044,-79.573,-62.561,-74.268,16_6_2.csv
2018-07-12T11:01:02.122788,-0.695,-0.302,-0.044,-121.524,-51.646,-79.878,16_6_2.csv
2018-07-12T11:01:02.178937,-0.638,-0.781,0.238,-56.463,-13.963,-65.183,16_6_2.csv
2018-07-12T11:01:02.255644,-0.746,-1.482,0.565,-51.89,-99.634,-154.756,16_6_2.csv
2018-07-12T11:01:02.318313,-0.628,-2.135,0.542,-64.573,-139.878,-223.476,16_6_2.csv
2018-07-12T11:01:02.384993,-0.477,-2.133,0.117,17.561,-118.781,-389.329,16_6_2.csv
2018-07-12T11:01:02.444148,-0.477,-2.133,0.117,114.573,-112.134,-403.72,16_6_2.csv
2018-07-12T11:01:02.506816,-0.385,-0.596,-0.108,135.549,-42.622,-373.049,16_6_2.csv
2018-07-12T11:01:02.554442,0.16,0.293,-0.192,-70.122,-77.256,-353.476,16_6_2.csv
2018-07-12T11:01:02.645184,0.235,0.365,0.004,63.72,121.281,-112.988,16_6_2.csv
2018-07-12T11:01:02.720886,0.332,0.308,0.496,26.28,-14.451,0.183,16_6_2.csv
2018-07-12T11:01:02.788567,0.758,-0.152,0.429,14.634,-139.451,153.049,16_6_2.csv
2018-07-12T11:01:02.870785,1.218,-0.399,0.26,-38.354,-6.341,68.476,16_6_2.csv
2018-07-12T11:01:02.927938,1.218,-0.399,0.26,-14.817,150.671,-35.183,16_6_2.csv
2018-07-12T11:01:02.976567,0.515,-0.099,0.465,28.293,-24.756,-100.61,16_6_2.csv
2018-07-12T11:01:03.022189,1.614,-0.52,0.158,46.22,-65.793,340.671,16_6_2.csv
2018-07-12T11:01:03.084355,1.614,-0.52,0.158,55.976,71.037,-62.866,16_6_2.csv
2018-07-12T11:01:03.170587,1.034,-0.135,0.161,-16.159,26.585,0.061,16_6_2.csv
2018-07-12T11:01:03.230745,0.624,-0.331,0.134,52.866,-47.683,6.646,16_6_2.csv
2018-07-12T11:01:03.301935,0.843,-0.306,0.244,-2.988,-33.049,28.963,16_6_2.csv
2018-07-12T11:01:03.352069,0.925,-0.286,0.278,4.695,-23.232,33.598,16_6_2.csv
2018-07-12T11:01:03.414234,0.925,-0.286,0.278,-15.854,10.915,46.829,16_6_2.csv
2018-07-12T11:01:03.501467,0.871,-0.389,0.312,11.646,-1.524,20.0,16_6_2.csv
2018-07-12T11:01:03.569147,0.871,-0.389,0.312,25.0,-17.378,1.707,16_6_2.csv
2018-07-12T11:01:03.619280,0.882,-0.373,0.271,70.061,-10.915,1.159,16_6_2.csv
2018-07-12T11:01:03.663899,1.089,-0.521,0.162,47.5,5.854,21.402,16_6_2.csv
2018-07-12T11:01:03.712028,1.089,-0.521,0.162,60.183,-19.512,14.695,16_6_2.csv
2018-07-12T11:01:03.787732,0.96,-0.633,0.204,46.707,7.439,12.805,16_6_2.csv
2018-07-12T11:01:03.849399,0.688,-0.549,0.163,90.854,-38.232,14.085,16_6_2.csv
2018-07-12T11:01:03.913569,0.783,-0.314,0.177,104.146,-61.28,13.78,16_6_2.csv
2018-07-12T11:01:04.002309,0.825,-0.223,0.233,135.366,-46.829,-9.268,16_6_2.csv
2018-07-12T11:01:04.054447,0.825,-0.223,0.233,95.549,-40.915,-5.0,16_6_2.csv
2018-07-12T11:01:04.101578,0.864,-0.198,0.333,102.927,-35.854,-17.134,16_6_2.csv
2018-07-12T11:01:04.161738,0.917,-0.201,0.298,6.159,-3.476,9.451,16_6_2.csv
2018-07-12T11:01:04.227415,0.959,-0.329,0.372,-42.012,30.793,-0.122,16_6_2.csv
2018-07-12T11:01:04.288578,0.959,-0.329,0.372,-30.976,31.463,-5.427,16_6_2.csv
2018-07-12T11:01:04.335203,1.018,-0.355,0.288,-5.854,4.817,-9.207,16_6_2.csv
2018-07-12T11:01:04.385336,0.817,-0.196,0.119,-38.11,-0.549,39.512,16_6_2.csv
2018-07-12T11:01:04.428952,0.817,-0.196,0.119,-71.585,35.122,80.061,16_6_2.csv
2018-07-12T11:01:04.504837,0.41,-0.303,0.077,-34.939,10.915,140.061,16_6_2.csv
2018-07-12T11:01:04.579536,0.348,-0.466,0.188,-64.573,1.159,175.366,16_6_2.csv
2018-07-12T11:01:04.647216,0.21,-0.74,0.247,-57.256,-53.354,233.903,16_6_2.csv
2018-07-12T11:01:04.694843,0.21,-0.74,0.247,47.744,-123.902,253.354,16_6_2.csv
2018-07-12T11:01:04.758011,-0.069,-0.678,0.18,-47.317,-44.146,300.549,16_6_2.csv
2018-07-12T11:01:04.805639,-0.497,-0.984,0.158,-82.744,-58.598,300.671,16_6_2.csv
2018-07-12T11:01:04.865297,-1.11,-0.902,0.172,53.232,-44.939,166.281,16_6_2.csv
2018-07-12T11:01:04.935484,-1.11,-0.902,0.172,70.061,-70.0,54.878,16_6_2.csv
2018-07-12T11:01:05.006674,-1.745,-0.88,0.056,-115.549,-110.061,414.451,16_6_2.csv
2018-07-12T11:01:05.058312,-1.726,-0.784,-0.098,-372.622,-69.512,318.902,16_6_2.csv
2018-07-12T11:01:05.104936,-0.538,-0.925,-0.11,-166.402,-136.646,-39.024,16_6_2.csv
2018-07-12T11:01:05.158579,-0.538,-0.925,-0.11,111.768,79.573,29.512,16_6_2.csv
2018-07-12T11:01:05.240297,-0.75,-0.417,-0.113,105.0,39.329,30.854,16_6_2.csv
2018-07-12T11:01:05.305972,-0.833,-0.26,0.009,-206.707,-16.159,16.159,16_6_2.csv
2018-07-12T11:01:05.412756,-0.71,-0.727,-0.021,-113.232,-2.927,5.488,16_6_2.csv
2018-07-12T11:01:05.495978,-0.903,-0.806,0.189,76.524,64.329,0.915,16_6_2.csv
2018-07-12T11:01:05.545109,-1.06,-0.074,0.754,85.61,38.354,-5.0,16_6_2.csv
2018-07-12T11:01:05.602261,-1.079,-0.538,0.288,-92.439,12.5,-58.171,16_6_2.csv
2018-07-12T11:01:05.659414,-1.079,-0.538,0.288,-61.28,-98.415,-53.598,16_6_2.csv
2018-07-12T11:01:05.726593,-1.117,-0.757,0.08,34.451,26.585,-21.585,16_6_2.csv
2018-07-12T11:01:05.787756,-0.896,-0.556,0.093,-37.134,-83.72,-32.561,16_6_2.csv
2018-07-12T11:01:05.835383,-0.918,-0.594,0.085,13.598,10.549,-82.683,16_6_2.csv
2018-07-12T11:01:05.885015,-0.918,-0.594,0.085,96.951,28.78,-76.037,16_6_2.csv
2018-07-12T11:01:05.929133,-1.162,-0.463,0.068,65.0,-13.72,-87.317,16_6_2.csv
2018-07-12T11:01:05.992301,-0.921,-0.377,0.154,-33.841,-45.915,-113.963,16_6_2.csv
2018-07-12T11:01:06.047448,-0.921,-0.377,0.154,-68.537,-57.744,-128.902,16_6_2.csv
2018-07-12T11:01:06.116632,-0.626,-0.508,0.241,11.707,-12.439,-70.183,16_6_2.csv
2018-07-12T11:01:06.162254,-0.529,-0.375,0.283,34.146,-11.037,-26.463,16_6_2.csv
2018-07-12T11:01:06.211385,-0.529,-0.375,0.283,7.256,-16.524,19.024,16_6_2.csv
2018-07-12T11:01:06.259513,-0.696,-0.387,0.242,-31.28,-11.646,72.561,16_6_2.csv
2018-07-12T11:01:06.317167,-1.5,-0.578,-0.1,-89.39,3.659,185.976,16_6_2.csv
2018-07-12T11:01:06.385349,-1.5,-0.578,-0.1,-153.171,4.695,219.939,16_6_2.csv
2018-07-12T11:01:06.444005,-1.288,-0.824,-0.052,-181.159,-228.232,55.305,16_6_2.csv
2018-07-12T11:01:06.491131,-0.855,-0.547,0.032,-5.793,26.585,50.427,16_6_2.csv
2018-07-12T11:01:06.540762,-0.855,-0.547,0.032,23.11,42.805,34.024,16_6_2.csv
2018-07-12T11:01:06.586385,-0.867,-0.316,-0.085,-79.695,-69.573,-28.841,16_6_2.csv
2018-07-12T11:01:06.648550,-0.575,-0.521,-0.056,-197.744,-101.037,-5.61,16_6_2.csv
2018-07-12T11:01:06.761852,-0.662,-0.682,0.01,-92.988,-31.707,67.378,16_6_2.csv
2018-07-12T11:01:06.820508,-0.854,-0.709,0.126,-79.268,-33.11,70.122,16_6_2.csv
2018-07-12T11:01:06.867634,-0.854,-0.709,0.126,-65.183,-30.976,47.927,16_6_2.csv
2018-07-12T11:01:06.914759,-0.921,-0.738,0.334,0.671,34.329,9.085,16_6_2.csv
2018-07-12T11:01:06.965395,-1.238,-0.715,0.36,-47.195,13.598,-14.268,16_6_2.csv
2018-07-12T11:01:07.038590,-1.005,-0.719,0.296,-60.854,-43.902,-52.927,16_6_2.csv
2018-07-12T11:01:07.087219,-1.005,-0.719,0.296,-45.061,-61.402,-109.146,16_6_2.csv
2018-07-12T11:01:07.146377,-0.934,-0.577,0.153,70.061,49.573,-117.378,16_6_2.csv
2018-07-12T11:01:07.195006,-1.032,-0.202,0.106,200.793,64.268,-82.988,16_6_2.csv
2018-07-12T11:01:07.257676,-1.032,-0.202,0.106,-32.988,-27.134,-36.585,16_6_2.csv
2018-07-12T11:01:07.308308,-0.78,-0.499,0.048,-109.573,-63.476,-101.22,16_6_2.csv
2018-07-12T11:01:07.364458,-0.729,-0.458,0.157,50.366,2.073,-27.256,16_6_2.csv
2018-07-12T11:01:07.437152,-0.835,-0.38,0.223,16.768,-30.183,-20.793,16_6_2.csv
2018-07-12T11:01:07.540427,-0.835,-0.38,0.223,-34.207,-17.195,44.085,16_6_2.csv
2018-07-12T11:01:07.585046,-0.835,-0.38,0.223,-77.317,-42.439,61.707,16_6_2.csv
2018-07-12T11:01:07.650219,-1.014,-0.501,0.1,-114.146,-29.268,119.939,16_6_2.csv
2018-07-12T11:01:07.700855,-1.391,-0.709,-0.05,-138.476,-25.854,135.549,16_6_2.csv
2018-07-12T11:01:07.775052,-0.812,-0.774,0.135,-131.463,-154.695,94.39,16_6_2.csv
2018-07-12T11:01:07.849751,-0.893,-0.458,0.06,66.585,70.122,41.524,16_6_2.csv
2018-07-12T11:01:07.915427,-0.893,-0.458,0.06,27.683,6.098,-10.305,16_6_2.csv
2018-07-12T11:01:07.965059,-0.775,-0.273,0.114,-144.39,-36.707,-44.329,16_6_2.csv
2018-07-12T11:01:08.022712,-0.657,-0.575,0.162,-178.415,-48.902,-38.537,16_6_2.csv
2018-07-12T11:01:08.178129,-0.923,-0.636,0.331,-36.646,-13.171,44.268,16_6_2.csv
2018-07-12T11:01:08.241298,-1.139,-0.687,0.222,24.39,29.939,8.841,16_6_2.csv
2018-07-12T11:01:08.307479,-1.139,-0.687,0.222,38.232,25.427,-1.28,16_6_2.csv
2018-07-12T11:01:08.366639,-1.256,-0.615,0.187,-39.817,-52.622,-42.927,16_6_2.csv
2018-07-12T11:01:08.412260,-0.8,-0.551,0.165,-50.0,-77.134,-70.854,16_6_2.csv
2018-07-12T11:01:08.461892,-0.8,-0.551,0.165,53.72,-1.524,-93.476,16_6_2.csv
2018-07-12T11:01:08.507013,-1.033,-0.219,0.104,223.842,67.5,-37.805,16_6_2.csv
2018-07-12T11:01:08.567674,-0.92,-0.298,0.063,-122.256,-53.11,-70.305,16_6_2.csv
2018-07-12T11:01:08.631847,-0.92,-0.298,0.063,-177.134,-96.463,-105.549,16_6_2.csv
2018-07-12T11:01:08.714566,-0.653,-0.646,0.153,62.927,16.524,-24.695,16_6_2.csv
2018-07-12T11:01:08.773222,-0.68,-0.361,0.234,26.037,-10.427,1.768,16_6_2.csv
2018-07-12T11:01:08.823857,-0.752,-0.398,0.229,-5.122,0.183,31.159,16_6_2.csv
2018-07-12T11:01:08.872487,-0.752,-0.398,0.229,-27.744,-7.195,58.049,16_6_2.csv
2018-07-12T11:01:08.947186,-1.024,-0.523,0.161,-56.524,5.488,110.488,16_6_2.csv
2018-07-12T11:01:09.005843,-1.485,-0.623,-0.024,-133.72,19.878,94.207,16_6_2.csv
2018-07-12T11:01:09.069011,-0.774,-0.673,0.152,-126.951,-134.512,37.683,16_6_2.csv
2018-07-12T11:01:09.115640,-0.774,-0.673,0.152,-67.012,-109.756,-53.171,16_6_2.csv
2018-07-12T11:01:09.162766,-0.799,-0.461,0.144,46.28,124.939,-14.695,16_6_2.csv
2018-07-12T11:01:09.216912,-0.908,-0.221,0.162,-109.878,-39.024,28.537,16_6_2.csv
2018-07-12T11:01:09.291612,-0.627,-0.657,0.018,-232.5,-86.463,-98.78,16_6_2.csv
2018-07-12T11:01:09.354278,-0.627,-0.657,0.018,-85.0,-51.22,-20.61,16_6_2.csv
2018-07-12T11:01:09.398897,-0.804,-0.532,0.138,-3.598,35.549,24.634,16_6_2.csv
2018-07-12T11:01:09.558493,-0.958,-0.662,0.076,39.939,30.976,51.951,16_6_2.csv
2018-07-12T11:01:09.607624,-1.288,-0.497,0.069,95.244,45.793,52.744,16_6_2.csv
2018-07-12T11:01:09.682325,-1.288,-0.497,0.069,-3.72,44.451,14.695,16_6_2.csv
2018-07-12T11:01:09.731455,-1.065,-0.584,0.035,-47.195,-88.232,-73.11,16_6_2.csv
2018-07-12T11:01:09.788107,-0.965,-0.563,0.002,25.854,35.061,-82.134,16_6_2.csv
2018-07-12T11:01:09.839744,-0.965,-0.563,0.002,67.988,11.951,-95.671,16_6_2.csv
2018-07-12T11:01:09.888374,-1.044,-0.401,-0.009,58.841,-22.927,-105.915,16_6_2.csv
2018-07-12T11:01:09.951041,-0.853,-0.357,0.067,-5.061,-41.585,-109.939,16_6_2.csv
2018-07-12T11:01:10.017218,-0.643,-0.401,0.163,-8.537,-45.854,-70.244,16_6_2.csv
2018-07-12T11:01:10.081890,-0.643,-0.401,0.163,10.183,-28.354,-32.988,16_6_2.csv
2018-07-12T11:01:10.133028,-0.636,-0.355,0.202,-19.329,-22.744,46.341,16_6_2.csv
2018-07-12T11:01:10.185165,-0.837,-0.407,0.102,-45.61,-15.122,86.159,16_6_2.csv
2018-07-12T11:01:10.258862,-1.251,-0.507,-0.257,-101.585,4.939,139.268,16_6_2.csv
2018-07-12T11:01:10.305987,-1.251,-0.507,-0.257,-121.037,43.598,140.427,16_6_2.csv
2018-07-12T11:01:10.370158,-1.428,-0.571,-0.27,-118.354,-85.0,84.268,16_6_2.csv
2018-07-12T11:01:10.426309,-0.897,-0.474,-0.072,-67.012,-10.061,28.171,16_6_2.csv
2018-07-12T11:01:10.506020,-0.76,-0.31,-0.05,-71.646,-41.341,-11.707,16_6_2.csv
2018-07-12T11:01:10.557658,-0.76,-0.31,-0.05,-103.476,-20.793,-15.488,16_6_2.csv
2018-07-12T11:01:10.601776,-0.704,-0.428,-0.037,-140.061,-23.78,-13.049,16_6_2.csv
2018-07-12T11:01:10.666448,-0.885,-0.549,-0.027,-144.695,-15.915,13.293,16_6_2.csv
2018-07-12T11:01:10.748166,-0.948,-0.7,0.169,-108.049,-7.317,16.463,16_6_2.csv
2018-07-12T11:01:10.822864,-1.121,-0.608,0.19,23.659,36.951,3.415,16_6_2.csv
2018-07-12T11:01:10.888540,-1.121,-0.608,0.19,68.171,49.756,-6.768,16_6_2.csv
2018-07-12T11:01:10.943185,-1.445,-0.381,-0.018,-4.329,-17.134,-68.78,16_6_2.csv
2018-07-12T11:01:10.991313,-1.152,-0.476,-0.05,-43.598,-60.427,-100.854,16_6_2.csv
2018-07-12T11:01:11.038439,-1.152,-0.476,-0.05,-28.171,-83.72,-121.037,16_6_2.csv
2018-07-12T11:01:11.102109,-0.925,-0.289,-0.141,185.183,8.963,-42.439,16_6_2.csv
2018-07-12T11:01:11.168787,-0.993,-0.235,-0.094,8.902,-20.793,-72.256,16_6_2.csv
2018-07-12T11:01:11.225438,-0.807,-0.414,-0.067,21.341,-25.732,-52.195,16_6_2.csv
2018-07-12T11:01:11.272563,-0.807,-0.414,-0.067,59.512,-21.524,-13.963,16_6_2.csv
2018-07-12T11:01:11.357289,-0.736,-0.231,0.036,9.878,-20.183,3.537,16_6_2.csv
2018-07-12T11:01:11.413439,-0.767,-0.238,0.032,-44.146,-23.963,7.805,16_6_2.csv
2018-07-12T11:01:11.479114,-0.869,-0.351,-0.033,-89.512,-14.512,45.183,16_6_2.csv
2018-07-12T11:01:11.535264,-0.869,-0.351,-0.033,-98.902,-5.61,72.988,16_6_2.csv
2018-07-12T11:01:11.598933,-1.139,-0.404,-0.22,-138.781,11.402,120.305,16_6_2.csv
2018-07-12T11:01:11.647061,-1.63,-0.629,-0.346,-129.451,23.902,145.366,16_6_2.csv
2018-07-12T11:01:11.695691,-1.63,-0.629,-0.346,-118.293,-29.329,136.342,16_6_2.csv
2018-07-12T11:01:11.757857,-0.788,-0.561,0.011,13.354,49.695,39.207,16_6_2.csv
2018-07-12T11:01:11.820022,-0.967,-0.253,-0.121,-23.354,-1.768,-43.659,16_6_2.csv
2018-07-12T11:01:11.878679,-0.771,-0.257,-0.048,-106.342,-26.159,-66.341,16_6_2.csv
2018-07-12T11:01:11.948866,-0.689,-0.56,-0.011,-174.512,-14.329,-66.28,16_6_2.csv
2018-07-12T11:01:11.992482,-0.689,-0.56,-0.011,-91.89,13.537,-23.902,16_6_2.csv
2018-07-12T11:01:12.041612,-1.046,-0.388,0.179,12.012,42.927,32.805,16_6_2.csv
2018-07-12T11:01:12.089741,-1.046,-0.388,0.179,64.024,38.049,51.22,16_6_2.csv
2018-07-12T11:01:12.231118,-1.171,-0.3,-0.012,27.012,-24.939,-40.0,16_6_2.csv
2018-07-12T11:01:12.288270,-1.389,-0.435,-0.067,0.366,-35.366,-31.951,16_6_2.csv
2018-07-12T11:01:12.351438,-1.006,-0.213,-0.117,-33.72,-100.305,14.573,16_6_2.csv
2018-07-12T11:01:12.396559,-1.006,-0.213,-0.117,21.646,-78.354,-3.659,16_6_2.csv
2018-07-12T11:01:12.462234,-1.007,-0.073,-0.135,3.415,-50.976,-43.659,16_6_2.csv
2018-07-12T11:01:12.505850,-0.964,-0.169,-0.142,-56.646,-67.805,-49.268,16_6_2.csv
2018-07-12T11:01:12.573030,-0.964,-0.169,-0.142,-183.598,-84.634,-86.89,16_6_2.csv
2018-07-12T11:01:12.633691,-0.754,-0.529,-0.074,-63.659,-42.317,-52.622,16_6_2.csv
2018-07-12T11:01:12.710395,-0.824,-0.364,0.149,26.951,-20.488,10.61,16_6_2.csv
2018-07-12T11:01:12.756017,-0.842,-0.158,0.107,-54.634,-35.976,17.073,16_6_2.csv
2018-07-12T11:01:12.807153,-0.842,-0.158,0.107,-136.524,-42.988,22.134,16_6_2.csv
2018-07-12T11:01:12.854780,-0.971,-0.442,-0.053,-152.378,-40.0,39.939,16_6_2.csv
2018-07-12T11:01:12.929981,-1.345,-0.606,-0.222,-117.317,-17.317,67.561,16_6_2.csv
2018-07-12T11:01:12.989139,-1.069,-0.596,-0.012,9.695,2.256,88.72,16_6_2.csv
2018-07-12T11:01:13.054814,-1.069,-0.596,-0.012,63.232,-17.378,63.598,16_6_2.csv
2018-07-12T11:01:13.099432,-0.716,-0.193,0.021,77.134,49.146,21.707,16_6_2.csv
2018-07-12T11:01:13.148062,-1.043,-0.103,-0.113,-37.378,-21.585,-35.061,16_6_2.csv
2018-07-12T11:01:13.196190,-1.043,-0.103,-0.113,-145.854,-51.098,-50.732,16_6_2.csv
2018-07-12T11:01:13.254345,-0.72,-0.425,-0.065,-275.305,-83.415,-85.122,16_6_2.csv
2018-07-12T11:01:13.344084,-0.693,-0.66,0.034,-148.537,-22.805,-17.012,16_6_2.csv
2018-07-12T11:01:13.414271,-0.905,-0.541,0.16,15.366,20.732,66.463,16_6_2.csv
2018-07-12T11:01:13.468416,-0.87,-0.442,-0.098,72.317,42.988,59.146,16_6_2.csv
2018-07-12T11:01:13.761207,-0.87,-0.442,-0.098,59.939,-16.829,-89.817,16_6_2.csv
2018-07-12T11:01:13.815352,-0.997,-0.39,-0.099,80.976,-20.793,-59.939,16_6_2.csv
2018-07-12T11:01:13.888550,-0.817,-0.305,0.022,32.988,-25.183,-47.134,16_6_2.csv
2018-07-12T11:01:13.943195,-0.817,-0.305,0.022,17.378,-18.598,-48.049,16_6_2.csv
2018-07-12T11:01:13.991323,-0.791,-0.333,0.075,24.329,-19.817,-14.878,16_6_2.csv
2018-07-12T11:01:14.040955,-0.816,-0.298,0.11,10.061,-18.171,1.22,16_6_2.csv
2018-07-12T11:01:14.115654,-0.951,-0.32,0.005,-43.78,-12.256,28.902,16_6_2.csv
2018-07-12T11:01:14.172305,-0.951,-0.32,0.005,-70.0,-11.646,45.305,16_6_2.csv
2018-07-12T11:01:14.225447,-1.318,-0.386,-0.263,-106.159,-1.585,59.817,16_6_2.csv
2018-07-12T11:01:14.272071,-1.063,-0.599,-0.09,-156.402,-29.878,79.756,16_6_2.csv
2018-07-12T11:01:14.320702,-1.063,-0.599,-0.09,-100.732,-19.451,80.854,16_6_2.csv
2018-07-12T11:01:14.412445,-0.847,-0.433,-0.022,-0.244,19.085,31.585,16_6_2.csv
2018-07-12T11:01:14.475614,-0.932,-0.25,-0.082,-81.341,-12.134,-22.683,16_6_2.csv
2018-07-12T11:01:14.533268,-0.792,-0.412,-0.01,-133.171,-22.012,-37.927,16_6_2.csv
2018-07-12T11:01:14.588415,-0.792,-0.412,-0.01,-129.451,-10.305,-22.439,16_6_2.csv
2018-07-12T11:01:14.634537,-0.846,-0.531,0.038,-49.512,13.78,27.012,16_6_2.csv
2018-07-12T11:01:14.680660,-0.968,-0.479,0.153,-25.427,17.012,30.793,16_6_2.csv
2018-07-12T11:01:14.727284,-0.968,-0.479,0.153,-13.659,17.317,19.39,16_6_2.csv
2018-07-12T11:01:14.785440,-1.073,-0.437,0.109,-7.378,16.951,4.207,16_6_2.csv
2018-07-12T11:01:14.839584,-1.333,-0.507,-0.064,-12.744,-9.817,-25.488,16_6_2.csv
2018-07-12T11:01:15.088754,-1.076,-0.317,-0.178,105.183,-23.659,-91.037,16_6_2.csv
2018-07-12T11:01:15.135884,-1.076,-0.317,-0.178,59.024,-35.732,-103.049,16_6_2.csv
2018-07-12T11:01:15.184012,-0.859,-0.33,-0.02,10.305,-35.854,-105.732,16_6_2.csv
2018-07-12T11:01:15.229636,-0.859,-0.33,-0.02,21.89,-20.061,-84.939,16_6_2.csv
2018-07-12T11:01:15.310853,-0.775,-0.307,0.1,62.439,-10.0,-19.878,16_6_2.csv
2018-07-12T11:01:15.369509,-0.733,-0.135,0.153,-25.976,-16.463,29.573,16_6_2.csv
2018-07-12T11:01:15.417136,-0.806,-0.253,0.005,-91.037,-17.744,56.951,16_6_2.csv
2018-07-12T11:01:15.466267,-0.806,-0.253,0.005,-126.037,-13.598,91.037,16_6_2.csv
2018-07-12T11:01:15.507377,-1.172,-0.454,-0.241,-143.293,-6.037,125.244,16_6_2.csv
2018-07-12T11:01:15.557009,-1.571,-0.592,-0.411,-155.122,2.378,185.183,16_6_2.csv
2018-07-12T11:01:15.615164,-1.571,-0.592,-0.411,-192.073,-65.671,142.683,16_6_2.csv
2018-07-12T11:01:15.678834,-1.052,-0.503,-0.197,-150.549,3.049,16.159,16_6_2.csv
2018-07-12T11:01:15.762056,-0.896,-0.423,-0.213,-108.171,-24.939,-56.28,16_6_2.csv
2018-07-12T11:01:15.806675,-0.666,-0.353,-0.064,-131.646,-32.805,-67.378,16_6_2.csv
2018-07-12T11:01:15.858813,-0.666,-0.353,-0.064,-158.354,-32.134,-61.159,16_6_2.csv
2018-07-12T11:01:15.912958,-0.67,-0.42,0.002,-166.768,-28.963,-36.707,16_6_2.csv
2018-07-12T11:01:15.984148,-0.898,-0.543,-0.029,-155.183,-22.866,24.146,16_6_2.csv
2018-07-12T11:01:16.042302,-1.106,-0.779,0.148,-78.049,19.207,35.488,16_6_2.csv
2018-07-12T11:01:16.099956,-1.106,-0.779,0.148,37.012,47.439,33.659,16_6_2.csv
2018-07-12T11:01:16.147082,-1.364,-0.439,0.061,88.963,43.293,11.646,16_6_2.csv
2018-07-12T11:01:16.197716,-1.364,-0.439,0.061,58.476,28.476,-19.512,16_6_2.csv
2018-07-12T11:01:16.321616,-1.066,-0.414,-0.126,41.707,-32.317,-163.354,16_6_2.csv
2018-07-12T11:01:16.388801,-0.982,-0.414,-0.148,63.963,-31.037,-142.988,16_6_2.csv
2018-07-12T11:01:16.456483,-0.798,-0.283,-0.067,92.927,-7.622,-81.341,16_6_2.csv
2018-07-12T11:01:16.507619,-0.798,-0.283,-0.067,70.305,-4.573,-57.5,16_6_2.csv
