time,accel_x_list,accel_y_list,accel_z_list,gyro_x_list,gyro_y_list,gyro_z_list,filename
2018-07-12T10:59:14.310921,-0.965,-0.362,0.038,18.78,19.878,-1.768,16_6_1.csv
2018-07-12T10:59:14.365066,-0.965,-0.362,0.038,14.268,4.268,-4.634,16_6_1.csv
2018-07-12T10:59:14.429238,-0.933,-0.432,0.062,44.329,15.976,-1.159,16_6_1.csv
2018-07-12T10:59:14.476865,-0.949,-0.391,-0.016,55.488,12.073,0.61,16_6_1.csv
2018-07-12T10:59:14.523489,-0.949,-0.391,-0.016,43.963,5.549,-4.451,16_6_1.csv
2018-07-12T10:59:14.580644,-0.96,-0.382,0.032,36.707,6.951,-3.049,16_6_1.csv
2018-07-12T10:59:14.645314,-0.983,-0.371,0.014,30.061,14.573,3.415,16_6_1.csv
2018-07-12T10:59:14.708985,-0.983,-0.371,0.014,12.073,9.085,-2.012,16_6_1.csv
2018-07-12T10:59:14.754606,-0.949,-0.402,-0.008,0.61,0.305,-6.159,16_6_1.csv
2018-07-12T10:59:14.871920,-0.937,-0.452,0.01,3.841,4.329,-0.366,16_6_1.csv
2018-07-12T10:59:14.929073,-0.937,-0.452,0.01,11.402,7.683,2.622,16_6_1.csv
2018-07-12T10:59:14.987730,-0.912,-0.44,-0.01,11.951,7.256,2.561,16_6_1.csv
2018-07-12T10:59:15.049896,-0.893,-0.443,-0.03,13.232,8.659,5.976,16_6_1.csv
2018-07-12T10:59:15.108051,-0.893,-0.443,-0.03,11.341,12.927,8.476,16_6_1.csv
2018-07-12T10:59:15.161694,-0.895,-0.467,-0.021,24.085,23.841,20.549,16_6_1.csv
2018-07-12T10:59:15.210826,-0.944,-0.478,-0.021,30.732,24.634,25.183,16_6_1.csv
2018-07-12T10:59:15.261962,-0.944,-0.478,-0.021,35.061,22.744,27.073,16_6_1.csv
2018-07-12T10:59:15.329643,-0.971,-0.455,-0.063,10.976,-0.305,5.244,16_6_1.csv
2018-07-12T10:59:15.397324,-0.959,-0.477,-0.092,-12.378,-10.488,-16.463,16_6_1.csv
2018-07-12T10:59:15.459991,-0.919,-0.485,-0.083,-6.159,-7.744,-15.183,16_6_1.csv
2018-07-12T10:59:15.507619,-0.919,-0.485,-0.083,1.524,-3.78,-11.768,16_6_1.csv
2018-07-12T10:59:15.554744,-0.912,-0.453,-0.071,3.72,-0.976,-8.598,16_6_1.csv
2018-07-12T10:59:15.599865,-0.899,-0.451,-0.055,-2.073,-1.585,0.183,16_6_1.csv
2018-07-12T10:59:15.663535,-0.899,-0.451,-0.055,-3.78,-0.854,4.634,16_6_1.csv
2018-07-12T10:59:15.727205,-0.874,-0.473,-0.032,1.402,1.646,14.939,16_6_1.csv
2018-07-12T10:59:15.788368,-0.892,-0.481,-0.062,-0.671,-2.256,19.329,16_6_1.csv
2018-07-12T10:59:15.832988,-0.892,-0.481,-0.062,-13.659,-8.841,14.512,16_6_1.csv
2018-07-12T10:59:15.883122,-0.923,-0.516,-0.11,-16.951,8.354,5.427,16_6_1.csv
2018-07-12T10:59:15.927239,-0.998,-0.519,-0.028,-22.561,12.5,-0.976,16_6_1.csv
2018-07-12T10:59:15.989907,-0.998,-0.519,-0.028,-24.329,16.951,-10.427,16_6_1.csv
2018-07-12T10:59:16.051572,-1.041,-0.461,0.157,34.939,-13.11,-17.012,16_6_1.csv
2018-07-12T10:59:16.113237,-0.983,-0.304,0.202,31.707,-36.159,-22.988,16_6_1.csv
2018-07-12T10:59:16.244588,-0.875,-0.39,-0.064,36.646,22.927,-13.293,16_6_1.csv
2018-07-12T10:59:16.295223,-0.875,-0.39,-0.064,58.171,31.28,7.317,16_6_1.csv
2018-07-12T10:59:16.348866,-0.867,-0.285,-0.038,48.232,40.366,17.988,16_6_1.csv
2018-07-12T10:59:16.412035,-0.915,-0.316,-0.041,24.146,37.134,33.963,16_6_1.csv
2018-07-12T10:59:16.475203,-0.915,-0.316,-0.041,8.415,35.732,34.146,16_6_1.csv
2018-07-12T10:59:16.537370,-0.921,-0.374,-0.012,-2.622,37.622,40.183,16_6_1.csv
2018-07-12T10:59:16.599035,-0.996,-0.443,0.007,-5.183,32.378,41.341,16_6_1.csv
2018-07-12T10:59:16.662704,-1.072,-0.454,-0.03,-7.561,28.476,41.402,16_6_1.csv
2018-07-12T10:59:16.721361,-1.142,-0.522,0.0,-38.415,5.427,21.22,16_6_1.csv
2018-07-12T10:59:16.771996,-1.142,-0.522,0.0,-37.256,0.732,13.232,16_6_1.csv
2018-07-12T10:59:16.817117,-1.141,-0.573,-0.056,-15.488,-7.988,8.354,16_6_1.csv
2018-07-12T10:59:16.865747,-1.141,-0.573,-0.056,3.049,-35.793,-11.829,16_6_1.csv
2018-07-12T10:59:16.930420,-0.888,-0.509,-0.094,39.939,-41.89,-70.732,16_6_1.csv
2018-07-12T10:59:16.992085,-0.924,-0.427,-0.22,162.012,-11.463,-23.902,16_6_1.csv
2018-07-12T10:59:17.052746,-1.058,-0.122,-0.107,96.098,-34.146,5.549,16_6_1.csv
2018-07-12T10:59:17.100374,-1.058,-0.122,-0.107,-78.72,-71.463,-86.037,16_6_1.csv
2018-07-12T10:59:17.151510,-0.835,-0.453,-0.102,-65.854,-65.854,-93.72,16_6_1.csv
2018-07-12T10:59:17.209666,-0.712,-0.377,0.025,24.451,-39.085,-71.28,16_6_1.csv
2018-07-12T10:59:17.261304,-0.712,-0.377,0.025,35.122,-9.207,-41.098,16_6_1.csv
2018-07-12T10:59:17.339512,-0.767,-0.294,0.053,8.78,18.293,24.573,16_6_1.csv
2018-07-12T10:59:17.403684,-0.981,-0.355,-0.026,-46.402,34.024,71.646,16_6_1.csv
2018-07-12T10:59:17.460837,-1.337,-0.478,-0.164,-73.232,42.5,86.585,16_6_1.csv
2018-07-12T10:59:17.564614,-1.138,-0.532,-0.068,-49.573,46.402,63.537,16_6_1.csv
2018-07-12T10:59:17.616252,-0.921,-0.328,-0.054,5.671,59.085,33.476,16_6_1.csv
2018-07-12T10:59:17.690951,-0.891,-0.19,-0.114,-40.549,-15.122,-43.171,16_6_1.csv
2018-07-12T10:59:17.779688,-0.74,-0.345,-0.074,-117.744,-44.207,-70.366,16_6_1.csv
2018-07-12T10:59:17.853887,-0.791,-0.345,-0.029,-60.244,5.183,-21.951,16_6_1.csv
2018-07-12T10:59:17.927082,-0.906,-0.398,0.017,-46.463,4.756,7.439,16_6_1.csv
2018-07-12T10:59:17.989750,-0.906,-0.398,0.017,-17.5,16.341,24.756,16_6_1.csv
2018-07-12T10:59:18.038380,-1.029,-0.454,0.056,10.427,31.22,38.415,16_6_1.csv
2018-07-12T10:59:18.084503,-1.029,-0.454,0.056,19.146,34.146,48.232,16_6_1.csv
2018-07-12T10:59:18.151181,-1.278,-0.434,-0.021,-20.732,3.78,21.951,16_6_1.csv
2018-07-12T10:59:18.217859,-1.413,-0.597,-0.063,7.5,-48.11,-9.573,16_6_1.csv
2018-07-12T10:59:18.269999,-1.106,-0.484,-0.113,41.037,-58.659,-45.366,16_6_1.csv
2018-07-12T10:59:18.319130,-1.106,-0.484,-0.113,68.049,-69.268,-86.524,16_6_1.csv
2018-07-12T10:59:18.366757,-1.006,-0.319,-0.149,111.768,-79.39,-84.146,16_6_1.csv
2018-07-12T10:59:18.412379,-0.905,-0.288,-0.107,14.268,-100.366,-116.951,16_6_1.csv
2018-07-12T10:59:18.476550,-0.905,-0.288,-0.107,2.134,-88.476,-112.561,16_6_1.csv
2018-07-12T10:59:18.541223,-0.811,-0.31,-0.069,9.512,-65.061,-67.5,16_6_1.csv
2018-07-12T10:59:18.599379,-0.644,-0.22,-0.013,-19.268,-61.646,-57.744,16_6_1.csv
2018-07-12T10:59:18.650014,-0.645,-0.264,0.02,-35.061,-9.817,4.512,16_6_1.csv
2018-07-12T10:59:18.694131,-0.645,-0.264,0.02,-49.085,17.805,52.683,16_6_1.csv
2018-07-12T10:59:18.741258,-1.083,-0.333,-0.162,-84.268,34.024,96.89,16_6_1.csv
2018-07-12T10:59:18.801418,-1.083,-0.333,-0.162,-128.476,46.341,139.268,16_6_1.csv
2018-07-12T10:59:18.921238,-1.203,-0.746,-0.12,-109.268,58.354,160.427,16_6_1.csv
2018-07-12T10:59:18.974882,-0.989,-0.253,-0.165,63.293,83.72,34.085,16_6_1.csv
2018-07-12T10:59:19.020504,-0.989,-0.253,-0.165,-19.207,16.768,-27.134,16_6_1.csv
2018-07-12T10:59:19.070136,-0.752,-0.253,-0.037,-117.073,-32.317,-71.402,16_6_1.csv
2018-07-12T10:59:19.114755,-0.752,-0.253,-0.037,-165.488,-38.72,-77.744,16_6_1.csv
2018-07-12T10:59:19.179929,-0.693,-0.429,0.014,-143.902,-24.39,-38.537,16_6_1.csv
2018-07-12T10:59:19.250618,-0.872,-0.473,0.075,-114.085,-14.085,-15.427,16_6_1.csv
2018-07-12T10:59:19.304262,-1.034,-0.534,0.145,-47.317,6.707,-0.366,16_6_1.csv
2018-07-12T10:59:19.349883,-1.034,-0.534,0.145,5.549,25.366,-1.402,16_6_1.csv
2018-07-12T10:59:19.397009,-1.232,-0.423,0.08,49.878,27.439,0.122,16_6_1.csv
2018-07-12T10:59:19.444135,-1.232,-0.423,0.08,48.78,-0.915,-9.39,16_6_1.csv
2018-07-12T10:59:19.526856,-1.48,-0.453,-0.088,20.976,-66.463,-50.976,16_6_1.csv
2018-07-12T10:59:19.587017,-1.276,-0.489,-0.164,46.098,-100.915,-85.305,16_6_1.csv
2018-07-12T10:59:19.649183,-1.075,-0.293,-0.21,88.963,-93.78,-98.415,16_6_1.csv
2018-07-12T10:59:19.694304,-1.075,-0.293,-0.21,41.463,-116.707,-125.244,16_6_1.csv
2018-07-12T10:59:19.742934,-0.968,-0.375,-0.119,30.305,-78.232,-85.671,16_6_1.csv
2018-07-12T10:59:19.790060,-0.785,-0.279,-0.071,20.854,-64.573,-73.78,16_6_1.csv
2018-07-12T10:59:19.863255,-0.586,-0.248,0.133,12.5,-47.439,-40.366,16_6_1.csv
2018-07-12T10:59:19.915896,-0.586,-0.248,0.133,20.427,-13.963,2.805,16_6_1.csv
2018-07-12T10:59:19.991097,-0.618,-0.213,0.183,-26.037,12.744,72.805,16_6_1.csv
2018-07-12T10:59:20.041231,-0.889,-0.28,0.018,-72.5,19.939,90.305,16_6_1.csv
2018-07-12T10:59:20.099887,-1.307,-0.461,-0.208,-151.829,20.244,123.963,16_6_1.csv
2018-07-12T10:59:20.146011,-1.307,-0.461,-0.208,-180.366,23.354,139.329,16_6_1.csv
2018-07-12T10:59:20.208678,-1.634,-0.714,-0.219,-181.768,25.122,153.049,16_6_1.csv
2018-07-12T10:59:20.340530,-0.902,-0.373,-0.145,-13.476,21.402,15.122,16_6_1.csv
2018-07-12T10:59:20.397182,-0.902,-0.373,-0.145,-24.817,-15.366,-17.988,16_6_1.csv
2018-07-12T10:59:20.462356,-0.851,-0.319,-0.139,-164.451,-58.171,-78.72,16_6_1.csv
2018-07-12T10:59:20.510986,-0.697,-0.498,-0.078,-176.524,-33.841,-76.22,16_6_1.csv
2018-07-12T10:59:20.553599,-0.697,-0.498,-0.078,-118.171,0.793,-54.512,16_6_1.csv
2018-07-12T10:59:20.618774,-0.857,-0.463,0.012,-45.366,31.829,-26.402,16_6_1.csv
2018-07-12T10:59:20.674422,-1.12,-0.102,0.224,-4.024,59.573,-3.902,16_6_1.csv
2018-07-12T10:59:20.727063,-1.12,-0.102,0.224,-72.561,36.463,-30.488,16_6_1.csv
2018-07-12T10:59:20.795246,-1.126,-0.422,0.118,29.207,-5.61,27.561,16_6_1.csv
2018-07-12T10:59:20.850392,-1.031,-0.303,-0.047,63.659,-7.134,26.098,16_6_1.csv
2018-07-12T10:59:20.895513,-1.031,-0.303,-0.047,-5.671,-26.768,-5.122,16_6_1.csv
2018-07-12T10:59:20.957679,-1.224,-0.515,0.009,-53.293,-26.585,-11.463,16_6_1.csv
2018-07-12T10:59:21.018341,-1.109,-0.571,-0.004,42.317,-24.756,12.622,16_6_1.csv
2018-07-12T10:59:21.083014,-1.075,-0.273,-0.178,79.268,-53.415,-60.427,16_6_1.csv
2018-07-12T10:59:21.131142,-1.075,-0.273,-0.178,105.915,-67.439,-68.963,16_6_1.csv
2018-07-12T10:59:21.178268,-1.169,-0.337,-0.128,13.72,-118.476,-95.366,16_6_1.csv
2018-07-12T10:59:21.224893,-0.848,-0.415,-0.054,-56.402,-78.659,-114.695,16_6_1.csv
2018-07-12T10:59:21.289065,-0.848,-0.415,-0.054,-33.293,-63.902,-113.781,16_6_1.csv
2018-07-12T10:59:21.355743,-0.682,-0.344,0.087,28.476,-34.268,-48.476,16_6_1.csv
2018-07-12T10:59:21.411892,-0.634,-0.23,0.203,16.341,-24.329,-15.305,16_6_1.csv
2018-07-12T10:59:21.458518,-0.634,-0.23,0.203,-16.524,-15.244,16.951,16_6_1.csv
2018-07-12T10:59:21.508150,-0.739,-0.307,0.178,-53.659,10.976,78.049,16_6_1.csv
2018-07-12T10:59:21.554774,-1.034,-0.391,0.017,-67.317,24.512,106.707,16_6_1.csv
2018-07-12T10:59:21.882663,-0.853,-0.231,-0.149,-34.39,-40.122,-39.085,16_6_1.csv
2018-07-12T10:59:21.955864,-0.698,-0.405,-0.168,-199.146,-63.232,-81.829,16_6_1.csv
2018-07-12T10:59:22.021038,-0.698,-0.405,-0.168,-201.646,-50.488,-63.171,16_6_1.csv
2018-07-12T10:59:22.068667,-0.757,-0.57,-0.094,-47.622,18.171,12.317,16_6_1.csv
2018-07-12T10:59:22.116295,-0.92,-0.482,0.057,-2.683,45.0,24.451,16_6_1.csv
2018-07-12T10:59:22.161917,-0.92,-0.482,0.057,19.756,63.902,20.854,16_6_1.csv
2018-07-12T10:59:22.227592,-1.059,-0.331,0.113,18.72,60.366,7.927,16_6_1.csv
2018-07-12T10:59:22.352926,-1.288,-0.546,0.033,-9.329,-15.854,-7.561,16_6_1.csv
2018-07-12T10:59:22.427626,-1.288,-0.546,0.033,20.549,-16.646,7.683,16_6_1.csv
2018-07-12T10:59:22.478763,-1.143,-0.501,-0.063,69.207,-62.988,-1.159,16_6_1.csv
2018-07-12T10:59:22.528395,-1.009,-0.354,-0.156,71.28,-64.268,-44.634,16_6_1.csv
2018-07-12T10:59:22.586051,-1.009,-0.354,-0.156,101.524,-65.671,-43.963,16_6_1.csv
2018-07-12T10:59:22.646712,-1.012,-0.337,-0.166,-5.061,-97.744,-58.72,16_6_1.csv
2018-07-12T10:59:22.700856,-0.812,-0.38,-0.172,-17.073,-80.061,-66.89,16_6_1.csv
2018-07-12T10:59:22.758009,-0.712,-0.392,-0.116,-13.78,-47.256,-66.402,16_6_1.csv
2018-07-12T10:59:22.808143,-0.712,-0.392,-0.116,8.963,-18.171,-55.366,16_6_1.csv
2018-07-12T10:59:22.851759,-0.699,-0.331,-0.006,14.756,-1.524,-44.817,16_6_1.csv
2018-07-12T10:59:22.913424,-0.807,-0.279,0.104,31.463,54.268,2.561,16_6_1.csv
2018-07-12T10:59:23.014695,-1.028,-0.312,0.015,-49.878,60.305,62.927,16_6_1.csv
2018-07-12T10:59:23.068338,-1.028,-0.312,0.015,-93.659,62.256,86.402,16_6_1.csv
2018-07-12T10:59:23.134013,-1.554,-0.584,-0.156,-110.976,66.829,132.561,16_6_1.csv
2018-07-12T10:59:23.195678,-1.209,-0.618,0.016,3.72,77.866,82.073,16_6_1.csv
2018-07-12T10:59:23.241801,-0.941,-0.216,-0.116,-11.707,40.488,5.0,16_6_1.csv
2018-07-12T10:59:23.297450,-0.941,-0.216,-0.116,-87.012,-55.427,-77.866,16_6_1.csv
2018-07-12T10:59:23.356608,-0.827,-0.375,-0.159,-102.5,-73.293,-73.537,16_6_1.csv
2018-07-12T10:59:23.401731,-0.736,-0.289,-0.108,-179.024,-65.61,-78.11,16_6_1.csv
2018-07-12T10:59:23.461890,-0.736,-0.289,-0.108,-206.585,-54.695,-75.976,16_6_1.csv
2018-07-12T10:59:23.514530,-0.811,-0.467,0.0,-189.512,-48.232,-59.451,16_6_1.csv
2018-07-12T10:59:23.585219,-0.892,-0.497,0.042,-6.646,2.378,17.622,16_6_1.csv
2018-07-12T10:59:23.645379,-0.953,-0.5,-0.023,38.476,23.78,19.268,16_6_1.csv
2018-07-12T10:59:23.710554,-0.953,-0.5,-0.023,84.024,34.207,32.256,16_6_1.csv
2018-07-12T10:59:23.758181,-0.996,-0.397,-0.076,50.488,19.573,28.963,16_6_1.csv
2018-07-12T10:59:23.803803,-1.256,-0.459,-0.06,-15.732,9.268,-2.256,16_6_1.csv
2018-07-12T10:59:23.849926,-1.256,-0.459,-0.06,-31.22,-4.024,-16.646,16_6_1.csv
2018-07-12T10:59:23.912594,-1.108,-0.508,-0.045,6.037,-27.805,-13.171,16_6_1.csv
2018-07-12T10:59:23.978770,-1.001,-0.354,-0.133,38.293,-56.22,-66.768,16_6_1.csv
2018-07-12T10:59:24.037929,-1.02,-0.406,-0.125,29.085,-88.963,-63.232,16_6_1.csv
2018-07-12T10:59:24.084553,-1.02,-0.406,-0.125,12.012,-81.524,-50.488,16_6_1.csv
2018-07-12T10:59:24.132180,-0.835,-0.355,-0.134,-25.0,-70.427,-59.146,16_6_1.csv
2018-07-12T10:59:24.176800,-0.835,-0.355,-0.134,-47.195,-66.646,-72.5,16_6_1.csv
2018-07-12T10:59:24.242977,-0.696,-0.429,-0.004,-31.037,-38.476,-40.488,16_6_1.csv
2018-07-12T10:59:24.307148,-0.754,-0.388,0.124,0.427,-4.573,-31.402,16_6_1.csv
2018-07-12T10:59:24.444014,-1.058,-0.317,0.021,-25.915,32.683,71.402,16_6_1.csv
2018-07-12T10:59:24.490143,-1.058,-0.317,0.021,-66.646,31.037,87.012,16_6_1.csv
2018-07-12T10:59:24.539273,-1.42,-0.521,-0.228,-102.378,29.39,103.537,16_6_1.csv
2018-07-12T10:59:24.584896,-1.42,-0.521,-0.228,-127.5,16.768,114.878,16_6_1.csv
2018-07-12T10:59:24.651575,-1.05,-0.621,-0.15,-35.122,43.415,82.561,16_6_1.csv
2018-07-12T10:59:24.707223,-0.924,-0.375,-0.183,4.329,47.927,53.659,16_6_1.csv
2018-07-12T10:59:24.777411,-0.882,-0.283,-0.152,-129.573,-26.585,-25.915,16_6_1.csv
2018-07-12T10:59:24.821027,-0.882,-0.283,-0.152,-214.207,-49.573,-56.829,16_6_1.csv
2018-07-12T10:59:24.871663,-0.748,-0.448,-0.121,-236.098,-57.317,-70.732,16_6_1.csv
2018-07-12T10:59:24.920293,-0.748,-0.448,-0.121,-203.232,-51.89,-71.098,16_6_1.csv
2018-07-12T10:59:24.988976,-0.833,-0.461,-0.001,-129.634,-29.024,-37.622,16_6_1.csv
2018-07-12T10:59:25.052647,-0.911,-0.451,0.101,-53.476,2.561,-8.354,16_6_1.csv
2018-07-12T10:59:25.116818,-1.026,-0.444,0.098,-38.72,5.305,-1.159,16_6_1.csv
2018-07-12T10:59:25.162941,-1.179,-0.456,-0.015,-23.963,-1.951,1.524,16_6_1.csv
2018-07-12T10:59:25.211070,-1.179,-0.456,-0.015,-31.89,-7.317,-11.22,16_6_1.csv
2018-07-12T10:59:25.255689,-1.276,-0.503,-0.093,-26.524,-19.695,-22.195,16_6_1.csv
2018-07-12T10:59:25.317855,-1.276,-0.503,-0.093,-3.963,-35.915,-25.976,16_6_1.csv
2018-07-12T10:59:25.379520,-0.961,-0.356,-0.123,-0.488,-53.476,-89.756,16_6_1.csv
2018-07-12T10:59:25.442688,-0.96,-0.411,-0.152,28.354,-52.805,-89.451,16_6_1.csv
2018-07-12T10:59:25.489814,-0.873,-0.369,-0.106,66.524,-40.427,-44.146,16_6_1.csv
2018-07-12T10:59:25.539447,-0.873,-0.369,-0.106,50.549,-26.951,-32.317,16_6_1.csv
2018-07-12T10:59:25.583565,-0.831,-0.338,-0.047,33.232,-23.902,-25.305,16_6_1.csv
2018-07-12T10:59:25.647235,-0.831,-0.342,0.036,1.098,-23.11,-14.207,16_6_1.csv
2018-07-12T10:59:25.736474,-0.829,-0.369,0.109,-15.793,-5.793,5.976,16_6_1.csv
2018-07-12T10:59:25.792122,-0.829,-0.369,0.109,-11.524,2.866,25.305,16_6_1.csv
2018-07-12T10:59:25.837243,-0.939,-0.336,0.06,-24.268,6.646,42.988,16_6_1.csv
2018-07-12T10:59:25.884368,-0.939,-0.336,0.06,-57.317,-0.976,55.671,16_6_1.csv
2018-07-12T10:59:25.944529,-1.189,-0.389,-0.13,-140.061,-8.902,69.329,16_6_1.csv
2018-07-12T10:59:26.024744,-1.167,-0.491,-0.261,-202.256,-50.793,34.207,16_6_1.csv
2018-07-12T10:59:26.080392,-0.942,-0.517,-0.14,-148.598,-4.878,23.049,16_6_1.csv
2018-07-12T10:59:26.186676,-0.91,-0.326,-0.154,-88.598,-24.024,-10.427,16_6_1.csv
2018-07-12T10:59:26.256362,-0.777,-0.367,-0.098,-110.915,-16.585,-17.012,16_6_1.csv
2018-07-12T10:59:26.309504,-0.792,-0.42,-0.016,-74.817,-1.402,-0.915,16_6_1.csv
2018-07-12T10:59:26.366657,-0.792,-0.42,-0.016,-58.537,11.585,11.098,16_6_1.csv
2018-07-12T10:59:26.425815,-0.958,-0.403,0.06,-53.476,19.329,14.878,16_6_1.csv
2018-07-12T10:59:26.499512,-1.027,-0.424,0.091,-67.439,6.402,-11.768,16_6_1.csv
2018-07-12T10:59:26.560676,-1.105,-0.492,0.064,-43.963,4.024,-14.451,16_6_1.csv
2018-07-12T10:59:26.616324,-1.207,-0.49,0.003,-12.317,-12.5,-25.183,16_6_1.csv
2018-07-12T10:59:26.663951,-1.207,-0.49,0.003,-7.378,-14.268,-29.756,16_6_1.csv
2018-07-12T10:59:26.712080,-1.118,-0.54,-0.051,27.927,-26.89,-20.244,16_6_1.csv
2018-07-12T10:59:26.770737,-1.118,-0.54,-0.051,62.012,-33.171,-32.073,16_6_1.csv
2018-07-12T10:59:26.836412,-0.949,-0.472,-0.142,167.317,-16.159,-40.366,16_6_1.csv
2018-07-12T10:59:26.896573,-1.018,-0.095,-0.163,74.756,-46.463,-1.585,16_6_1.csv
2018-07-12T10:59:26.949213,-0.897,-0.335,-0.068,-99.939,-81.707,-69.268,16_6_1.csv
2018-07-12T10:59:27.021908,-0.778,-0.52,-0.026,-23.963,-57.988,-40.793,16_6_1.csv
2018-07-12T10:59:27.175823,-0.825,-0.317,0.112,16.037,12.988,-3.841,16_6_1.csv
2018-07-12T10:59:27.242504,-0.825,-0.317,0.112,11.951,20.915,14.573,16_6_1.csv
2018-07-12T10:59:27.294143,-1.023,-0.309,0.023,-65.61,14.268,42.073,16_6_1.csv
2018-07-12T10:59:27.355808,-1.35,-0.461,-0.188,-118.476,3.415,49.268,16_6_1.csv
2018-07-12T10:59:27.422988,-0.915,-0.588,0.011,-135.488,-5.671,65.488,16_6_1.csv
2018-07-12T10:59:27.503204,-0.924,-0.435,-0.037,18.537,58.537,42.195,16_6_1.csv
2018-07-12T10:59:27.584419,-0.935,-0.225,-0.089,-4.573,-7.012,13.72,16_6_1.csv
2018-07-12T10:59:27.646083,-0.935,-0.225,-0.089,-99.634,-29.512,-26.707,16_6_1.csv
2018-07-12T10:59:27.709253,-0.769,-0.411,-0.086,-115.244,-18.841,-28.841,16_6_1.csv
2018-07-12T10:59:27.763397,-0.825,-0.511,-0.018,-47.622,5.671,4.512,16_6_1.csv
2018-07-12T10:59:27.823558,-0.956,-0.382,0.024,19.878,38.659,31.768,16_6_1.csv
2018-07-12T10:59:27.881713,-0.956,-0.382,0.024,3.232,31.585,16.463,16_6_1.csv
2018-07-12T10:59:27.947389,-1.047,-0.391,0.032,-34.39,3.78,-8.476,16_6_1.csv
2018-07-12T10:59:28.006045,-1.078,-0.449,0.021,-35.793,-7.378,-14.329,16_6_1.csv
2018-07-12T10:59:28.062196,-1.352,-0.703,-0.001,-84.817,-11.159,-55.671,16_6_1.csv
2018-07-12T10:59:28.116841,-1.352,-0.703,-0.001,-53.354,-24.634,-54.634,16_6_1.csv
2018-07-12T10:59:28.162965,-1.101,-0.575,-0.163,22.378,-49.207,-53.476,16_6_1.csv
2018-07-12T10:59:28.242176,-0.917,-0.212,-0.327,236.707,-37.622,-28.354,16_6_1.csv
2018-07-12T10:59:28.300332,-1.005,0.254,-0.093,60.671,-69.939,36.098,16_6_1.csv
2018-07-12T10:59:28.370018,-1.005,0.254,-0.093,-248.659,-108.963,-125.183,16_6_1.csv
2018-07-12T10:59:28.474297,-0.645,-0.366,0.03,39.939,-59.512,-13.963,16_6_1.csv
2018-07-12T10:59:28.538468,-0.645,-0.366,0.03,52.256,-30.427,-1.951,16_6_1.csv
2018-07-12T10:59:28.584090,-0.729,-0.195,0.235,-11.402,34.817,48.841,16_6_1.csv
2018-07-12T10:59:28.649264,-0.989,-0.27,0.086,-72.439,19.695,74.39,16_6_1.csv
2018-07-12T10:59:28.702907,-1.25,-0.405,-0.25,-168.903,-10.793,93.963,16_6_1.csv
2018-07-12T10:59:28.756049,-1.25,-0.405,-0.25,-224.207,-28.598,73.354,16_6_1.csv
2018-07-12T10:59:28.810194,-1.365,-0.684,-0.319,-235.671,-35.122,41.28,16_6_1.csv
2018-07-12T10:59:28.851304,-1.365,-0.684,-0.319,-155.366,-13.659,45.793,16_6_1.csv
2018-07-12T10:59:28.900435,-0.988,-0.583,-0.149,-14.146,70.549,82.683,16_6_1.csv
2018-07-12T10:59:28.974633,-0.931,-0.159,-0.259,75.183,45.671,28.11,16_6_1.csv
2018-07-12T10:59:29.038805,-0.762,-0.291,-0.2,-87.744,-10.427,-66.951,16_6_1.csv
2018-07-12T10:59:29.099968,-0.762,-0.291,-0.2,-99.756,8.841,-72.744,16_6_1.csv
2018-07-12T10:59:29.145590,-0.722,-0.413,-0.069,-55.183,42.744,-10.183,16_6_1.csv
2018-07-12T10:59:29.194721,-0.911,-0.38,0.01,-38.78,45.976,14.512,16_6_1.csv
2018-07-12T10:59:29.241346,-0.911,-0.38,0.01,-41.098,42.683,29.634,16_6_1.csv
2018-07-12T10:59:29.303512,-1.145,-0.293,-0.069,-58.171,31.22,31.341,16_6_1.csv
2018-07-12T10:59:29.355651,-0.964,-0.146,-0.042,-174.573,-34.39,-53.11,16_6_1.csv
2018-07-12T10:59:29.411801,-0.964,-0.146,-0.042,-188.11,-11.951,-74.695,16_6_1.csv
2018-07-12T10:59:29.462436,-1.163,-0.482,-0.073,-125.61,-17.805,-22.561,16_6_1.csv
2018-07-12T10:59:29.521595,-1.351,-0.396,-0.118,52.439,-22.988,27.683,16_6_1.csv
2018-07-12T10:59:29.574235,-1.351,-0.396,-0.118,42.195,-60.976,2.683,16_6_1.csv
2018-07-12T10:59:29.620358,-0.997,-0.331,-0.087,13.537,-81.585,-40.732,16_6_1.csv
2018-07-12T10:59:29.694557,-1.208,-0.505,-0.249,59.085,-93.902,-96.098,16_6_1.csv
2018-07-12T10:59:29.745694,-1.208,-0.505,-0.249,108.049,-107.439,-73.049,16_6_1.csv
2018-07-12T10:59:29.821897,-1.194,-0.312,-0.248,25.549,-100.793,-101.463,16_6_1.csv
2018-07-12T10:59:29.885567,-0.927,-0.291,-0.133,-10.427,-74.634,-132.622,16_6_1.csv
2018-07-12T10:59:29.927178,-0.709,-0.294,0.1,24.329,-53.293,-112.378,16_6_1.csv
2018-07-12T10:59:29.989344,-0.638,-0.108,0.221,71.646,-7.134,-25.0,16_6_1.csv
2018-07-12T10:59:30.055521,-0.638,-0.108,0.221,31.22,-4.878,15.732,16_6_1.csv
2018-07-12T10:59:30.107660,-0.777,-0.125,0.159,-35.732,3.354,50.854,16_6_1.csv
2018-07-12T10:59:30.165816,-1.299,-0.313,-0.316,-145.671,18.598,117.012,16_6_1.csv
2018-07-12T10:59:30.223971,-1.299,-0.313,-0.316,-217.622,6.524,143.659,16_6_1.csv
2018-07-12T10:59:30.292153,-1.456,-0.724,-0.325,-180.793,-2.5,151.098,16_6_1.csv
2018-07-12T10:59:30.339279,-1.0,-0.644,-0.103,-16.28,118.598,155.488,16_6_1.csv
2018-07-12T10:59:30.402448,-1.034,-0.113,-0.107,56.28,54.512,67.927,16_6_1.csv
2018-07-12T10:59:30.486673,-0.925,-0.3,-0.066,-277.805,-50.732,-76.28,16_6_1.csv
2018-07-12T10:59:30.546332,-0.925,-0.3,-0.066,-404.268,-86.646,-139.207,16_6_1.csv
2018-07-12T10:59:30.599976,-0.851,-1.057,-0.22,-209.146,-57.988,-215.366,16_6_1.csv
2018-07-12T10:59:30.645096,-0.829,-1.246,-0.177,-178.903,-62.256,-268.476,16_6_1.csv
2018-07-12T10:59:30.694728,-0.829,-1.246,-0.177,-125.122,-37.622,-268.781,16_6_1.csv
2018-07-12T10:59:30.741353,-0.679,-1.089,-0.054,27.012,26.646,-220.366,16_6_1.csv
2018-07-12T10:59:30.804522,-0.565,-0.821,0.154,105.854,9.817,-206.951,16_6_1.csv
2018-07-12T10:59:30.857664,-0.565,-0.821,0.154,83.476,35.244,-179.329,16_6_1.csv
2018-07-12T10:59:30.911307,-0.416,-0.543,0.01,6.341,19.695,-152.134,16_6_1.csv
2018-07-12T10:59:30.960941,-0.22,-1.225,-0.242,-138.476,-11.463,-98.415,16_6_1.csv
2018-07-12T10:59:31.011575,-0.22,-1.225,-0.242,255.0,-0.061,9.573,16_6_1.csv
2018-07-12T10:59:31.054189,-0.33,-0.114,-0.153,279.878,57.012,52.927,16_6_1.csv
2018-07-12T10:59:31.244198,-0.051,-0.737,-0.362,-44.634,-38.354,0.61,16_6_1.csv
2018-07-12T10:59:31.307371,0.082,-1.149,-0.131,-156.89,-144.207,-46.951,16_6_1.csv
2018-07-12T10:59:31.367033,0.02,-0.387,0.034,497.805,29.085,45.305,16_6_1.csv
2018-07-12T10:59:31.412154,0.02,-0.387,0.034,-295.549,-54.268,18.659,16_6_1.csv
2018-07-12T10:59:31.460783,0.166,-1.521,-0.226,-678.842,-142.5,0.854,16_6_1.csv
2018-07-12T10:59:31.509414,0.166,-1.521,-0.226,216.463,-0.671,48.11,16_6_1.csv
2018-07-12T10:59:31.569073,0.024,-0.469,-0.055,-126.646,22.378,84.695,16_6_1.csv
2018-07-12T10:59:31.640764,-0.331,-0.751,0.119,62.805,7.866,138.11,16_6_1.csv
2018-07-12T10:59:31.694909,-0.927,-0.544,-0.172,187.988,62.561,238.049,16_6_1.csv
2018-07-12T10:59:31.748051,-0.927,-0.544,-0.172,123.842,119.329,330.244,16_6_1.csv
2018-07-12T10:59:31.796681,-1.655,-0.455,-0.25,-156.89,-47.866,242.073,16_6_1.csv
2018-07-12T10:59:31.866367,-1.32,-0.917,-0.132,-48.293,7.439,197.805,16_6_1.csv
2018-07-12T10:59:31.944576,-0.951,-0.321,-0.169,135.061,54.39,60.305,16_6_1.csv
2018-07-12T10:59:32.021281,-0.815,-0.24,-0.062,-47.805,-42.5,-93.232,16_6_1.csv
2018-07-12T10:59:32.083447,-0.779,-0.486,0.061,-98.537,-41.098,-79.39,16_6_1.csv
2018-07-12T10:59:32.134583,-0.779,-0.486,0.061,-74.573,-18.049,-37.744,16_6_1.csv
2018-07-12T10:59:32.195246,-0.837,-0.362,0.07,-51.098,-7.988,-9.573,16_6_1.csv
2018-07-12T10:59:32.257913,-1.061,-0.417,0.125,-20.061,16.524,19.39,16_6_1.csv
2018-07-12T10:59:32.335119,-1.246,-0.544,-0.083,2.317,27.195,30.183,16_6_1.csv
2018-07-12T10:59:32.428368,-1.136,-0.429,-0.105,8.72,-16.89,3.78,16_6_1.csv
2018-07-12T10:59:32.479004,-0.932,-0.312,-0.128,-9.695,-34.085,-54.146,16_6_1.csv
2018-07-12T10:59:32.616873,-0.932,-0.312,-0.128,-21.951,-47.073,-61.098,16_6_1.csv
2018-07-12T10:59:32.689566,-0.785,-0.379,-0.063,3.659,-17.317,-50.549,16_6_1.csv
2018-07-12T10:59:32.751231,-0.799,-0.333,-0.035,23.537,-8.841,-27.012,16_6_1.csv
2018-07-12T10:59:32.818410,-0.82,-0.325,0.003,-14.085,-13.598,5.305,16_6_1.csv
2018-07-12T10:59:32.875563,-0.82,-0.325,0.003,-33.841,-9.207,18.049,16_6_1.csv
2018-07-12T10:59:32.928204,-0.945,-0.394,-0.028,-62.866,-4.329,48.902,16_6_1.csv
2018-07-12T10:59:32.977335,-1.046,-0.482,-0.023,-73.598,4.634,64.817,16_6_1.csv
2018-07-12T10:59:33.044514,-1.275,-0.566,-0.022,-61.28,27.5,75.0,16_6_1.csv
2018-07-12T10:59:33.121721,-1.275,-0.566,-0.022,-44.878,33.963,79.939,16_6_1.csv
2018-07-12T10:59:33.177369,-1.058,-0.371,-0.063,-76.951,-20.122,10.915,16_6_1.csv
2018-07-12T10:59:33.245050,-0.896,-0.311,-0.131,-83.841,-43.902,-70.427,16_6_1.csv
2018-07-12T10:59:33.312230,-0.862,-0.319,-0.131,-63.293,-49.939,-77.012,16_6_1.csv
2018-07-12T10:59:33.367377,-0.788,-0.356,-0.054,-50.427,-18.476,-60.671,16_6_1.csv
2018-07-12T10:59:33.443581,-0.788,-0.356,-0.054,-22.256,5.061,-33.72,16_6_1.csv
2018-07-12T10:59:33.519283,-0.866,-0.341,0.034,12.134,24.451,7.5,16_6_1.csv
2018-07-12T10:59:33.587966,-0.936,-0.213,0.154,-70.427,-16.463,17.012,16_6_1.csv
2018-07-12T10:59:33.638100,-0.962,-0.577,0.099,-70.427,-11.89,20.0,16_6_1.csv
2018-07-12T10:59:33.696256,-1.22,-0.508,-0.005,47.439,49.024,72.439,16_6_1.csv
2018-07-12T10:59:33.761931,-1.22,-0.508,-0.005,20.61,36.098,57.256,16_6_1.csv
2018-07-12T10:59:33.826604,-1.353,-0.429,-0.158,-71.951,-77.866,-30.549,16_6_1.csv
2018-07-12T10:59:33.943917,-0.986,-0.458,-0.136,6.768,-55.793,-129.268,16_6_1.csv
2018-07-12T10:59:34.008089,-0.939,-0.32,-0.02,46.646,-46.463,-78.171,16_6_1.csv
2018-07-12T10:59:34.054714,-0.939,-0.32,-0.02,16.524,-25.244,-60.427,16_6_1.csv
2018-07-12T10:59:34.104847,-0.806,-0.32,0.032,1.89,-16.341,-41.951,16_6_1.csv
2018-07-12T10:59:34.153979,-0.806,-0.32,0.032,10.793,-9.39,-20.976,16_6_1.csv
2018-07-12T10:59:34.231185,-0.782,-0.417,0.087,-51.951,-4.512,-5.244,16_6_1.csv
2018-07-12T10:59:34.284327,-0.692,-0.493,0.074,-85.915,5.427,-18.354,16_6_1.csv
2018-07-12T10:59:34.350002,-0.74,-0.412,-0.023,-81.341,-2.073,14.878,16_6_1.csv
2018-07-12T10:59:34.414675,-1.271,-0.604,-0.226,-125.732,-32.744,84.939,16_6_1.csv
2018-07-12T10:59:34.463806,-1.271,-0.604,-0.226,-93.415,-46.463,130.427,16_6_1.csv
2018-07-12T10:59:34.509930,-1.335,-0.687,-0.077,-36.159,-25.427,139.878,16_6_1.csv
2018-07-12T10:59:34.574602,-1.062,-0.289,-0.148,41.829,27.683,30.671,16_6_1.csv
2018-07-12T10:59:34.640278,-1.062,-0.289,-0.148,-19.146,-65.61,-43.72,16_6_1.csv
2018-07-12T10:59:34.693421,-0.764,-0.335,-0.051,-112.5,-74.451,-59.878,16_6_1.csv
2018-07-12T10:59:34.744055,-0.639,-0.372,-0.113,-115.732,-59.878,-45.122,16_6_1.csv
2018-07-12T10:59:34.793186,-0.639,-0.372,-0.113,-85.61,-49.512,-34.756,16_6_1.csv
2018-07-12T10:59:34.856857,-0.822,-0.313,-0.063,-59.329,-19.207,7.134,16_6_1.csv
2018-07-12T10:59:34.926041,-0.912,-0.425,0.062,-63.72,-10.0,21.402,16_6_1.csv
2018-07-12T10:59:34.988709,-0.951,-0.51,0.114,-8.902,30.488,32.134,16_6_1.csv
2018-07-12T10:59:35.045861,-0.951,-0.51,0.114,22.683,43.232,44.817,16_6_1.csv
2018-07-12T10:59:35.099505,-1.116,-0.411,0.054,-27.5,22.927,31.463,16_6_1.csv
2018-07-12T10:59:35.195261,-1.272,-0.53,0.002,-42.378,-32.439,-8.171,16_6_1.csv
2018-07-12T10:59:35.307561,-1.11,-0.402,-0.123,13.293,-77.378,-96.951,16_6_1.csv
2018-07-12T10:59:35.371231,-1.11,-0.402,-0.123,18.598,-97.134,-91.037,16_6_1.csv
2018-07-12T10:59:35.437910,-0.963,-0.349,-0.051,-3.11,-60.671,-67.5,16_6_1.csv
2018-07-12T10:59:35.523638,-0.815,-0.298,-0.041,-8.354,-51.037,-50.915,16_6_1.csv
2018-07-12T10:59:35.572268,-0.76,-0.259,0.01,-22.805,-46.768,-37.988,16_6_1.csv
2018-07-12T10:59:35.616386,-0.688,-0.248,0.094,-60.427,-25.61,-5.0,16_6_1.csv
2018-07-12T10:59:35.674541,-0.688,-0.248,0.094,-76.768,-9.268,23.476,16_6_1.csv
2018-07-12T10:59:35.740718,-0.878,-0.385,0.063,-100.366,18.11,104.451,16_6_1.csv
2018-07-12T10:59:35.787343,-1.355,-0.544,-0.208,-113.415,15.183,138.476,16_6_1.csv
2018-07-12T10:59:35.850010,-1.355,-0.544,-0.208,-144.39,7.134,149.207,16_6_1.csv
2018-07-12T10:59:35.906661,-1.395,-0.729,-0.299,-144.451,-31.341,72.927,16_6_1.csv
2018-07-12T10:59:35.964315,-0.839,-0.541,-0.167,-49.451,23.11,17.439,16_6_1.csv
2018-07-12T10:59:36.039015,-0.855,-0.263,-0.183,2.012,-10.976,-36.829,16_6_1.csv
2018-07-12T10:59:36.094663,-0.855,-0.263,-0.183,-60.854,-35.854,-46.707,16_6_1.csv
2018-07-12T10:59:36.157331,-0.697,-0.279,-0.106,-180.671,-34.939,-45.732,16_6_1.csv
2018-07-12T10:59:36.210473,-0.818,-0.383,-0.005,-132.317,-16.768,-10.122,16_6_1.csv
2018-07-12T10:59:36.268127,-1.012,-0.387,-0.031,-152.073,-17.622,8.537,16_6_1.csv
2018-07-12T10:59:36.321770,-1.012,-0.387,-0.031,-177.012,-48.659,-20.549,16_6_1.csv
2018-07-12T10:59:36.380928,-1.009,-0.585,0.052,16.159,16.463,-0.549,16_6_1.csv
2018-07-12T10:59:36.443596,-1.022,-0.436,-0.001,24.939,-2.134,12.195,16_6_1.csv
2018-07-12T10:59:36.495735,-1.022,-0.436,-0.001,6.341,-15.915,7.927,16_6_1.csv
2018-07-12T10:59:36.552888,-1.038,-0.542,-0.013,-0.854,-10.122,-16.28,16_6_1.csv
2018-07-12T10:59:36.683236,-1.061,-0.409,-0.153,120.976,-28.11,-36.098,16_6_1.csv
2018-07-12T10:59:36.759440,-1.073,-0.379,-0.203,81.768,-57.012,-89.695,16_6_1.csv
2018-07-12T10:59:36.825616,-0.928,-0.387,-0.139,49.512,-48.72,-73.415,16_6_1.csv
2018-07-12T10:59:36.865724,-0.928,-0.387,-0.139,35.244,-27.622,-65.244,16_6_1.csv
2018-07-12T10:59:36.912348,-0.769,-0.336,-0.029,33.232,-10.305,-58.659,16_6_1.csv
2018-07-12T10:59:36.985042,-0.697,-0.277,0.086,29.268,9.634,-35.549,16_6_1.csv
2018-07-12T10:59:37.055230,-0.697,-0.277,0.086,15.305,10.183,-16.159,16_6_1.csv
2018-07-12T10:59:37.116894,-0.774,-0.302,0.172,-1.159,33.72,46.524,16_6_1.csv
2018-07-12T10:59:37.162516,-1.028,-0.384,0.092,-21.829,34.634,76.463,16_6_1.csv
2018-07-12T10:59:37.210645,-1.028,-0.384,0.092,-37.866,40.305,101.281,16_6_1.csv
2018-07-12T10:59:37.256267,-1.454,-0.514,-0.111,-40.671,51.829,119.207,16_6_1.csv
2018-07-12T10:59:37.323948,-1.015,-0.379,-0.017,-63.11,16.28,80.671,16_6_1.csv
2018-07-12T10:59:37.388620,-0.862,-0.366,-0.112,-98.476,21.829,-18.841,16_6_1.csv
2018-07-12T10:59:37.443768,-0.862,-0.366,-0.112,-73.476,-20.854,-20.915,16_6_1.csv
2018-07-12T10:59:37.492398,-0.942,-0.349,-0.128,-64.939,-35.61,-6.829,16_6_1.csv
2018-07-12T10:59:37.538521,-0.942,-0.349,-0.128,-120.244,-39.451,-12.317,16_6_1.csv
2018-07-12T10:59:37.607204,-0.784,-0.406,-0.095,-135.854,-15.061,-17.195,16_6_1.csv
2018-07-12T10:59:37.700454,-0.843,-0.501,0.0,3.354,30.793,28.963,16_6_1.csv
2018-07-12T10:59:37.782172,-0.938,-0.382,0.061,-20.671,28.049,12.195,16_6_1.csv
2018-07-12T10:59:37.836316,-1.041,-0.429,0.078,-18.537,14.024,-0.305,16_6_1.csv
2018-07-12T10:59:37.881938,-1.201,-0.396,0.006,-20.0,-2.622,-4.329,16_6_1.csv
2018-07-12T10:59:37.944606,-1.201,-0.396,0.006,-41.22,-17.622,-23.293,16_6_1.csv
2018-07-12T10:59:38.030338,-0.948,-0.442,-0.07,-55.915,-55.366,-58.78,16_6_1.csv
2018-07-12T10:59:38.115066,-1.129,-0.465,-0.204,109.146,-31.707,-54.451,16_6_1.csv
2018-07-12T10:59:38.171717,-1.129,-0.465,-0.204,134.207,-39.878,-57.5,16_6_1.csv
2018-07-12T10:59:38.239899,-1.069,-0.245,-0.15,10.976,-56.707,-100.0,16_6_1.csv
2018-07-12T10:59:38.287528,-0.827,-0.283,-0.03,-33.11,-56.037,-109.695,16_6_1.csv
2018-07-12T10:59:38.337159,-0.827,-0.283,-0.03,-37.988,-48.537,-99.695,16_6_1.csv
2018-07-12T10:59:38.462494,-0.729,-0.283,0.2,5.793,-0.671,13.902,16_6_1.csv
2018-07-12T10:59:38.599863,-1.375,-0.437,-0.278,-129.817,-10.183,115.427,16_6_1.csv
2018-07-12T10:59:38.655008,-1.375,-0.437,-0.278,-175.915,-18.11,124.573,16_6_1.csv
2018-07-12T10:59:38.726700,-1.2,-0.678,-0.192,-123.354,-1.951,102.744,16_6_1.csv
2018-07-12T10:59:38.777335,-0.916,-0.466,-0.158,-35.915,54.39,62.5,16_6_1.csv
2018-07-12T10:59:38.824461,-0.916,-0.466,-0.158,2.927,27.683,20.366,16_6_1.csv
2018-07-12T10:59:38.880110,-0.895,-0.236,-0.149,-93.171,-19.085,-24.268,16_6_1.csv
2018-07-12T10:59:38.959322,-0.777,-0.347,-0.11,-164.817,-22.378,-37.988,16_6_1.csv
2018-07-12T10:59:39.019984,-0.823,-0.536,-0.054,-103.781,-8.415,-13.293,16_6_1.csv
2018-07-12T10:59:39.088667,-0.985,-0.391,0.081,3.476,38.293,7.439,16_6_1.csv
2018-07-12T10:59:39.137798,-0.985,-0.391,0.081,5.366,46.646,-0.732,16_6_1.csv
2018-07-12T10:59:39.181415,-1.122,-0.309,0.096,-41.768,25.671,-18.902,16_6_1.csv
2018-07-12T10:59:39.224530,-1.122,-0.309,0.096,-69.512,0.488,-26.524,16_6_1.csv
2018-07-12T10:59:39.291710,-1.226,-0.456,0.052,-18.171,-19.634,-24.39,16_6_1.csv
2018-07-12T10:59:39.420554,-0.972,-0.295,-0.087,47.256,-57.134,-31.707,16_6_1.csv
2018-07-12T10:59:39.489739,-0.977,-0.225,-0.188,117.439,-38.354,-18.354,16_6_1.csv
2018-07-12T10:59:39.536864,-0.977,-0.225,-0.188,146.89,-29.085,20.61,16_6_1.csv
2018-07-12T10:59:39.584993,-1.041,-0.264,-0.148,-36.951,-90.366,-41.037,16_6_1.csv
2018-07-12T10:59:39.656183,-0.809,-0.43,-0.011,-52.683,-82.378,-59.817,16_6_1.csv
2018-07-12T10:59:39.743416,-0.807,-0.311,0.134,28.841,-21.524,-35.793,16_6_1.csv
2018-07-12T10:59:39.805583,-0.79,-0.245,0.111,-6.829,-31.585,1.463,16_6_1.csv
2018-07-12T10:59:39.865743,-0.79,-0.245,0.111,-32.683,-18.72,13.963,16_6_1.csv
2018-07-12T10:59:39.912869,-0.916,-0.338,0.054,-36.646,1.28,36.037,16_6_1.csv
2018-07-12T10:59:39.960998,-1.24,-0.316,-0.143,-89.756,8.171,46.89,16_6_1.csv
2018-07-12T10:59:40.006118,-1.24,-0.316,-0.143,-146.829,-6.463,42.622,16_6_1.csv
2018-07-12T10:59:40.072295,-1.217,-0.446,-0.142,-195.305,-38.232,43.659,16_6_1.csv
2018-07-12T10:59:40.128946,-0.924,-0.402,-0.078,-190.427,4.39,23.902,16_6_1.csv
2018-07-12T10:59:40.194622,-0.924,-0.402,-0.078,-177.195,-25.0,2.012,16_6_1.csv
2018-07-12T10:59:40.272330,-0.934,-0.465,-0.138,-106.707,-44.085,24.573,16_6_1.csv
2018-07-12T10:59:40.324970,-0.812,-0.451,-0.062,-91.341,-0.854,30.305,16_6_1.csv
2018-07-12T10:59:40.373098,-0.875,-0.439,0.0,-56.89,13.78,39.756,16_6_1.csv
2018-07-12T10:59:40.455820,-0.929,-0.416,0.057,-75.122,12.561,30.732,16_6_1.csv
2018-07-12T10:59:40.528012,-0.94,-0.49,0.099,-89.451,6.22,-8.354,16_6_1.csv
2018-07-12T10:59:40.589176,-0.94,-0.49,0.099,-64.329,6.22,-14.817,16_6_1.csv
2018-07-12T10:59:40.635299,-1.058,-0.468,0.08,-45.854,-0.976,-16.037,16_6_1.csv
2018-07-12T10:59:40.678916,-1.058,-0.468,0.08,-49.573,-9.207,-27.012,16_6_1.csv
2018-07-12T10:59:40.780688,-1.138,-0.624,-0.01,-97.134,-57.561,-72.195,16_6_1.csv
2018-07-12T10:59:40.864411,-0.834,-0.485,-0.085,80.671,-2.866,-85.366,16_6_1.csv
2018-07-12T10:59:40.929084,-1.012,-0.365,-0.162,214.939,1.951,-58.598,16_6_1.csv
2018-07-12T10:59:40.990248,-1.012,-0.365,-0.162,219.207,17.561,-26.098,16_6_1.csv
2018-07-12T10:59:41.037374,-1.031,-0.235,-0.196,146.463,15.488,-12.134,16_6_1.csv
2018-07-12T10:59:41.085000,-0.748,-0.236,-0.044,-7.317,-30.122,-49.512,16_6_1.csv
2018-07-12T10:59:41.139647,-0.748,-0.236,-0.044,-47.073,-29.878,-68.293,16_6_1.csv
2018-07-12T10:59:41.214848,-0.686,-0.358,0.212,7.561,38.11,-6.341,16_6_1.csv
2018-07-12T10:59:41.263979,-0.859,-0.31,0.226,13.841,42.622,43.537,16_6_1.csv
2018-07-12T10:59:41.319126,-0.859,-0.31,0.226,-4.085,42.256,75.61,16_6_1.csv
2018-07-12T10:59:41.365249,-1.163,-0.249,0.041,-119.39,5.793,82.561,16_6_1.csv
2018-07-12T10:59:41.416386,-1.378,-0.448,-0.285,-198.171,-36.22,61.829,16_6_1.csv
2018-07-12T10:59:41.485069,-1.087,-0.674,-0.202,-213.963,-70.732,40.854,16_6_1.csv
2018-07-12T10:59:41.554254,-1.087,-0.674,-0.202,-145.915,-48.78,29.024,16_6_1.csv
2018-07-12T10:59:41.620431,-0.8,-0.5,-0.119,-9.817,4.695,-0.976,16_6_1.csv
2018-07-12T10:59:41.680592,-0.872,-0.322,-0.111,5.854,-10.61,5.366,16_6_1.csv
2018-07-12T10:59:41.745766,-0.8,-0.347,-0.027,-91.829,-10.976,-21.28,16_6_1.csv
2018-07-12T10:59:41.806929,-0.843,-0.517,0.016,-61.951,-9.268,2.988,16_6_1.csv
2018-07-12T10:59:41.854557,-0.843,-0.517,0.016,-10.671,12.378,24.268,16_6_1.csv
2018-07-12T10:59:41.901181,-0.963,-0.469,0.072,22.378,31.159,28.841,16_6_1.csv
2018-07-12T10:59:41.954824,-0.963,-0.469,0.072,35.183,33.78,20.244,16_6_1.csv
2018-07-12T10:59:42.025012,-1.012,-0.383,0.05,17.622,8.232,-6.768,16_6_1.csv
2018-07-12T10:59:42.241089,-1.07,-0.527,-0.118,60.671,-35.305,-1.341,16_6_1.csv
2018-07-12T10:59:42.291223,-1.059,-0.402,-0.226,102.378,-37.317,-97.256,16_6_1.csv
2018-07-12T10:59:42.349880,-1.059,-0.402,-0.226,123.476,-50.427,-99.39,16_6_1.csv
2018-07-12T10:59:42.396504,-0.937,-0.3,-0.134,134.024,-48.293,-91.28,16_6_1.csv
2018-07-12T10:59:42.462180,-0.711,-0.331,0.015,31.707,-8.841,-71.037,16_6_1.csv
2018-07-12T10:59:42.525348,-0.711,-0.331,0.015,58.659,15.61,-50.122,16_6_1.csv
2018-07-12T10:59:42.584507,-0.751,-0.296,0.086,100.244,37.256,18.293,16_6_1.csv
2018-07-12T10:59:42.631132,-0.809,-0.182,0.132,39.756,27.927,24.329,16_6_1.csv
2018-07-12T10:59:42.679761,-0.809,-0.182,0.132,-59.817,28.354,12.744,16_6_1.csv
2018-07-12T10:59:42.724380,-0.893,-0.469,0.063,-98.354,31.037,13.293,16_6_1.csv
2018-07-12T10:59:42.791058,-1.274,-0.426,-0.091,-14.878,46.341,76.524,16_6_1.csv
2018-07-12T10:59:42.849214,-1.274,-0.426,-0.091,-58.171,34.268,93.354,16_6_1.csv
2018-07-12T10:59:42.899348,-1.253,-0.438,-0.173,-219.024,-27.988,67.927,16_6_1.csv
2018-07-12T10:59:42.942964,-0.85,-0.602,-0.022,-171.829,3.598,32.927,16_6_1.csv
2018-07-12T10:59:42.993098,-0.85,-0.602,-0.022,-64.329,32.012,14.695,16_6_1.csv
2018-07-12T10:59:43.045238,-0.958,-0.314,-0.07,-9.024,11.22,1.89,16_6_1.csv
2018-07-12T10:59:43.114924,-0.845,-0.296,-0.07,-88.354,-42.683,-42.561,16_6_1.csv
2018-07-12T10:59:43.179095,-0.825,-0.316,-0.011,-128.11,-18.963,-37.378,16_6_1.csv
2018-07-12T10:59:43.240760,-0.825,-0.316,-0.011,-126.646,-14.085,-21.585,16_6_1.csv
2018-07-12T10:59:43.287886,-0.923,-0.443,0.04,-100.244,-10.183,4.085,16_6_1.csv
2018-07-12T10:59:43.337518,-0.978,-0.364,0.076,-6.89,27.439,43.293,16_6_1.csv
2018-07-12T10:59:43.381135,-0.978,-0.364,0.076,-16.463,35.915,47.988,16_6_1.csv
2018-07-12T10:59:43.443301,-1.182,-0.46,0.025,-21.28,28.72,51.646,16_6_1.csv
2018-07-12T10:59:43.530534,-1.384,-0.419,-0.06,10.366,9.268,15.854,16_6_1.csv
2018-07-12T10:59:43.586684,-1.022,-0.407,-0.053,-43.293,-65.671,-75.061,16_6_1.csv
2018-07-12T10:59:43.648851,-1.022,-0.407,-0.053,-16.829,-60.305,-109.451,16_6_1.csv
2018-07-12T10:59:43.710515,-1.061,-0.427,-0.143,92.683,-74.146,-94.878,16_6_1.csv
2018-07-12T10:59:43.775689,-1.041,-0.299,-0.148,67.561,-82.073,-91.098,16_6_1.csv
2018-07-12T10:59:43.844874,-0.871,-0.307,-0.094,-8.049,-59.878,-83.049,16_6_1.csv
2018-07-12T10:59:43.908544,-0.75,-0.305,0.04,-1.646,-43.415,-58.537,16_6_1.csv
2018-07-12T10:59:43.959681,-0.75,-0.305,0.04,8.537,-24.451,-35.61,16_6_1.csv
2018-07-12T10:59:44.012823,-0.71,-0.209,0.183,22.927,2.073,0.183,16_6_1.csv
2018-07-12T10:59:44.077495,-0.912,-0.238,0.131,-42.744,11.707,69.39,16_6_1.csv
2018-07-12T10:59:44.154200,-1.237,-0.395,-0.168,-93.11,19.39,118.963,16_6_1.csv
2018-07-12T10:59:44.223887,-1.422,-0.598,-0.538,-168.415,-15.427,113.049,16_6_1.csv
2018-07-12T10:59:44.272517,-1.422,-0.598,-0.538,-133.781,-33.841,93.293,16_6_1.csv
2018-07-12T10:59:44.334181,-0.861,-0.539,-0.157,-25.183,32.439,70.061,16_6_1.csv
2018-07-12T10:59:44.408379,-0.948,-0.33,-0.071,-1.341,112.195,33.476,16_6_1.csv
2018-07-12T10:59:44.478567,-0.929,-0.268,-0.07,-126.037,11.037,17.927,16_6_1.csv
2018-07-12T10:59:44.529704,-0.929,-0.268,-0.07,-211.89,-27.5,-20.488,16_6_1.csv
2018-07-12T10:59:44.588362,-0.822,-0.599,-0.105,-189.573,-24.817,-64.268,16_6_1.csv
2018-07-12T10:59:44.654036,-0.981,-0.691,-0.128,-45.793,13.598,-46.037,16_6_1.csv
2018-07-12T10:59:44.732245,-1.036,0.137,0.07,90.183,48.293,-85.061,16_6_1.csv
2018-07-12T10:59:44.787392,-1.151,-0.046,0.049,-100.244,4.817,-82.561,16_6_1.csv
2018-07-12T10:59:44.897189,-1.311,-0.369,-0.099,-0.549,-17.256,77.012,16_6_1.csv
2018-07-12T10:59:44.952334,-1.137,-0.366,-0.081,13.78,-53.415,11.341,16_6_1.csv
2018-07-12T10:59:45.021521,-1.137,-0.366,-0.081,-14.085,-70.61,5.915,16_6_1.csv
2018-07-12T10:59:45.080178,-0.929,-0.378,-0.103,-49.817,-95.976,-65.61,16_6_1.csv
2018-07-12T10:59:45.138834,-1.162,-0.501,-0.25,-2.805,-98.537,-56.28,16_6_1.csv
2018-07-12T10:59:45.194984,-1.063,-0.346,-0.229,-17.683,-95.427,-91.28,16_6_1.csv
2018-07-12T10:59:45.250132,-1.063,-0.346,-0.229,-43.78,-77.988,-128.415,16_6_1.csv
2018-07-12T10:59:45.302271,-0.871,-0.348,-0.075,-26.22,-52.012,-142.134,16_6_1.csv
2018-07-12T10:59:45.349397,-0.745,-0.197,0.287,48.537,-11.829,-105.732,16_6_1.csv
2018-07-12T10:59:45.398027,-0.745,-0.197,0.287,73.598,14.451,-54.085,16_6_1.csv
2018-07-12T10:59:45.452673,-0.762,0.138,0.305,24.146,8.171,6.646,16_6_1.csv
2018-07-12T10:59:45.527875,-1.0,-0.232,-0.105,-208.842,-86.89,79.268,16_6_1.csv
2018-07-12T10:59:45.596056,-1.413,-0.748,-0.265,-261.402,-125.488,136.646,16_6_1.csv
2018-07-12T10:59:45.709860,-1.317,-0.956,-0.222,91.037,59.756,212.866,16_6_1.csv
2018-07-12T10:59:45.759994,-0.837,-0.368,-0.186,192.744,101.646,149.756,16_6_1.csv
2018-07-12T10:59:45.805114,-0.837,-0.368,-0.186,138.293,80.183,62.073,16_6_1.csv
2018-07-12T10:59:45.874801,-1.006,-0.078,-0.179,-140.793,-56.402,-92.927,16_6_1.csv
2018-07-12T10:59:45.943985,-0.734,-0.354,-0.075,-232.012,-66.646,-121.463,16_6_1.csv
2018-07-12T10:59:45.995122,-0.751,-0.524,-0.011,-197.439,-19.634,-66.89,16_6_1.csv
2018-07-12T10:59:46.042248,-0.751,-0.524,-0.011,-91.707,-1.098,-17.561,16_6_1.csv
2018-07-12T10:59:46.092382,-1.027,-0.468,0.139,-3.537,27.195,25.854,16_6_1.csv
2018-07-12T10:59:46.159562,-1.085,-0.252,0.161,16.707,58.171,21.098,16_6_1.csv
2018-07-12T10:59:46.266347,-1.107,-0.433,0.032,-28.415,1.341,-10.61,16_6_1.csv
2018-07-12T10:59:46.334027,-1.278,-0.503,-0.025,46.829,-8.659,9.939,16_6_1.csv
2018-07-12T10:59:46.380151,-1.278,-0.503,-0.025,46.89,-9.329,6.037,16_6_1.csv
2018-07-12T10:59:46.428279,-1.132,-0.414,-0.085,43.72,-27.073,-4.451,16_6_1.csv
2018-07-12T10:59:46.475906,-0.985,-0.298,-0.176,88.293,-50.793,-50.244,16_6_1.csv
2018-07-12T10:59:46.549102,-0.985,-0.298,-0.176,157.927,-40.122,-18.902,16_6_1.csv
2018-07-12T10:59:46.618287,-0.943,-0.246,-0.09,-20.793,-64.024,-73.049,16_6_1.csv
2018-07-12T10:59:46.678447,-0.808,-0.376,-0.087,18.659,-40.61,-50.183,16_6_1.csv
2018-07-12T10:59:46.727077,-0.675,-0.35,0.02,-32.744,-35.427,-61.402,16_6_1.csv
2018-07-12T10:59:46.776209,-0.675,-0.35,0.02,-133.902,-18.11,-81.585,16_6_1.csv
2018-07-12T10:59:46.822833,-0.72,-0.684,0.005,-107.5,12.805,-69.573,16_6_1.csv
2018-07-12T10:59:46.884498,-0.843,-0.521,0.036,87.866,2.439,3.78,16_6_1.csv
2018-07-12T10:59:46.940147,-0.843,-0.521,0.036,117.988,15.061,29.085,16_6_1.csv
2018-07-12T10:59:46.990782,-0.981,-0.218,0.08,78.78,27.988,33.72,16_6_1.csv
2018-07-12T10:59:47.038411,-1.3,-0.35,-0.112,-90.366,20.183,35.183,16_6_1.csv
2018-07-12T10:59:47.085537,-1.3,-0.35,-0.112,-135.549,-10.427,56.402,16_6_1.csv
2018-07-12T10:59:47.132160,-0.981,-0.558,0.022,-113.659,4.146,80.244,16_6_1.csv
2018-07-12T10:59:47.215382,-1.02,-0.374,-0.067,0.854,30.793,59.39,16_6_1.csv
2018-07-12T10:59:47.285569,-0.939,-0.297,-0.014,-101.402,-69.085,-16.037,16_6_1.csv
2018-07-12T10:59:47.353752,-0.685,-0.6,-0.065,-219.695,-105.427,-77.256,16_6_1.csv
2018-07-12T10:59:47.402382,-0.685,-0.6,-0.065,-45.732,-1.585,25.061,16_6_1.csv
2018-07-12T10:59:47.444494,-0.835,-0.437,-0.026,12.012,21.89,45.488,16_6_1.csv
2018-07-12T10:59:47.498639,-0.835,-0.437,-0.026,6.098,31.707,58.049,16_6_1.csv
2018-07-12T10:59:47.621969,-1.085,-0.5,0.007,-74.756,8.598,2.256,16_6_1.csv
2018-07-12T10:59:47.676113,-1.227,-0.55,-0.011,-37.195,-4.756,-10.305,16_6_1.csv
2018-07-12T10:59:47.728252,-1.227,-0.55,-0.011,-29.085,-1.037,-22.439,16_6_1.csv
2018-07-12T10:59:47.771368,-1.039,-0.515,0.005,-5.732,-11.707,-22.317,16_6_1.csv
2018-07-12T10:59:47.823006,-1.039,-0.515,0.005,22.256,-23.476,-31.524,16_6_1.csv
2018-07-12T10:59:47.865118,-0.954,-0.411,-0.068,47.561,-15.793,-58.963,16_6_1.csv
2018-07-12T10:59:47.929791,-1.158,-0.312,-0.126,118.659,-30.305,-34.573,16_6_1.csv
2018-07-12T10:59:48.001482,-0.914,-0.28,-0.125,11.829,-50.366,-57.439,16_6_1.csv
2018-07-12T10:59:48.055627,-0.914,-0.28,-0.125,-28.049,-55.0,-72.805,16_6_1.csv
2018-07-12T10:59:48.107265,-0.757,-0.331,-0.035,-29.085,-46.89,-75.549,16_6_1.csv
2018-07-12T10:59:48.163415,-0.738,-0.301,0.146,10.244,-13.232,-35.427,16_6_1.csv
2018-07-12T10:59:48.209037,-0.738,-0.301,0.146,20.061,1.28,-3.049,16_6_1.csv
2018-07-12T10:59:48.275213,-0.83,-0.166,0.227,25.244,30.366,36.22,16_6_1.csv
2018-07-12T10:59:48.344398,-1.116,-0.239,-0.04,-112.927,-21.829,77.927,16_6_1.csv
2018-07-12T10:59:48.415087,-1.488,-0.578,-0.492,-230.732,-70.061,88.293,16_6_1.csv
2018-07-12T10:59:48.462214,-1.488,-0.578,-0.492,-238.659,-96.037,67.866,16_6_1.csv
2018-07-12T10:59:48.507334,-0.979,-0.648,-0.172,-167.866,-71.463,42.073,16_6_1.csv
2018-07-12T10:59:48.621138,-0.944,-0.407,-0.189,89.329,55.366,47.561,16_6_1.csv
2018-07-12T10:59:48.700350,-0.897,-0.08,-0.174,-127.5,-30.854,-41.402,16_6_1.csv
2018-07-12T10:59:48.761011,-0.681,-0.424,-0.105,-166.89,-16.829,-32.073,16_6_1.csv
2018-07-12T10:59:48.840724,-0.797,-0.631,0.032,-62.378,9.268,11.098,16_6_1.csv
2018-07-12T10:59:48.882837,-1.228,-0.101,0.143,78.232,82.927,62.378,16_6_1.csv
2018-07-12T10:59:48.987116,-1.228,-0.101,0.143,1.28,41.829,2.073,16_6_1.csv
2018-07-12T10:59:49.056802,-1.087,-0.251,-0.068,-200.854,-93.78,-80.854,16_6_1.csv
2018-07-12T10:59:49.119971,-1.087,-0.251,-0.068,-221.281,-129.756,-113.598,16_6_1.csv
2018-07-12T10:59:49.177123,-1.155,-0.792,-0.078,31.524,-49.939,-46.89,16_6_1.csv
2018-07-12T10:59:49.225753,-0.993,-0.562,-0.065,114.207,-20.488,-7.195,16_6_1.csv
2018-07-12T10:59:49.276388,-0.993,-0.562,-0.065,141.342,13.72,-14.39,16_6_1.csv
2018-07-12T10:59:49.340560,-1.11,-0.358,-0.183,137.5,-38.598,-40.366,16_6_1.csv
2018-07-12T10:59:49.411750,-1.073,-0.273,-0.122,44.695,-55.793,-62.866,16_6_1.csv
2018-07-12T10:59:49.473916,-0.868,-0.272,-0.036,-20.122,-61.28,-99.451,16_6_1.csv
2018-07-12T10:59:49.541096,-0.755,-0.291,0.132,12.744,-35.793,-85.305,16_6_1.csv
2018-07-12T10:59:49.585213,-0.755,-0.291,0.132,35.671,-17.256,-47.927,16_6_1.csv
2018-07-12T10:59:49.636350,-0.695,-0.157,0.256,26.037,-8.049,-7.927,16_6_1.csv
2018-07-12T10:59:49.701023,-0.897,-0.185,0.189,-39.939,4.695,65.183,16_6_1.csv
2018-07-12T10:59:49.769706,-1.313,-0.324,-0.148,-144.451,-9.329,118.293,16_6_1.csv
2018-07-12T10:59:49.836385,-1.313,-0.324,-0.148,-211.707,-30.549,125.976,16_6_1.csv
2018-07-12T10:59:49.885516,-1.399,-0.633,-0.283,-261.22,-67.5,115.244,16_6_1.csv
2018-07-12T10:59:49.933143,-0.89,-0.668,-0.07,-131.768,19.756,77.012,16_6_1.csv
2018-07-12T10:59:49.978765,-0.89,-0.668,-0.07,-8.78,52.195,61.524,16_6_1.csv
2018-07-12T10:59:50.033411,-0.957,-0.341,-0.172,45.915,18.049,44.329,16_6_1.csv
2018-07-12T10:59:50.100590,-0.792,-0.239,-0.092,-87.439,-23.78,-22.256,16_6_1.csv
2018-07-12T10:59:50.168271,-0.792,-0.239,-0.092,-171.524,-21.524,-43.415,16_6_1.csv
2018-07-12T10:59:50.224421,-0.782,-0.483,-0.049,-117.378,8.415,-7.5,16_6_1.csv
2018-07-12T10:59:50.272550,-0.953,-0.481,0.078,-81.707,17.561,11.768,16_6_1.csv
2018-07-12T10:59:50.352263,-1.021,-0.421,0.206,-59.39,38.598,1.768,16_6_1.csv
2018-07-12T10:59:50.422450,-1.183,-0.388,0.145,-31.037,32.866,-17.195,16_6_1.csv
2018-07-12T10:59:50.490131,-1.287,-0.428,-0.006,-17.134,-33.232,-34.329,16_6_1.csv
2018-07-12T10:59:50.551796,-1.287,-0.428,-0.006,-20.244,-41.951,-37.744,16_6_1.csv
2018-07-12T10:59:50.598420,-1.125,-0.48,-0.097,0.183,-62.5,-25.061,16_6_1.csv
2018-07-12T10:59:50.648053,-1.125,-0.48,-0.097,26.098,-76.098,-33.293,16_6_1.csv
2018-07-12T10:59:50.691670,-0.884,-0.26,-0.097,30.854,-45.183,-93.415,16_6_1.csv
2018-07-12T10:59:50.752332,-1.008,-0.434,-0.126,32.805,-50.793,-74.756,16_6_1.csv
2018-07-12T10:59:50.815500,-0.825,-0.296,-0.103,38.72,-22.439,-22.5,16_6_1.csv
2018-07-12T10:59:50.881176,-0.825,-0.296,-0.103,-17.378,-23.78,-45.61,16_6_1.csv
2018-07-12T10:59:50.928803,-0.739,-0.377,-0.005,-24.451,-15.671,-52.561,16_6_1.csv
2018-07-12T10:59:50.975929,-0.789,-0.374,0.14,13.78,14.329,-15.488,16_6_1.csv
2018-07-12T10:59:51.022554,-0.789,-0.374,0.14,8.537,20.976,6.707,16_6_1.csv
2018-07-12T10:59:51.080709,-0.882,-0.366,0.131,-7.317,17.073,32.012,16_6_1.csv
2018-07-12T10:59:51.137862,-1.078,-0.398,0.058,-22.012,6.768,60.366,16_6_1.csv
2018-07-12T10:59:51.194012,-1.078,-0.398,0.058,-34.207,13.537,64.39,16_6_1.csv
2018-07-12T10:59:51.241137,-1.377,-0.415,-0.034,-48.232,28.11,71.585,16_6_1.csv
2018-07-12T10:59:51.288765,-1.377,-0.415,-0.034,-74.695,17.256,68.72,16_6_1.csv
2018-07-12T10:59:51.335891,-0.993,-0.482,-0.092,-36.341,-20.0,25.915,16_6_1.csv
2018-07-12T10:59:51.403571,-0.853,-0.294,-0.062,87.744,13.841,55.183,16_6_1.csv
2018-07-12T10:59:51.468746,-0.896,-0.124,-0.112,-112.256,-3.293,0.366,16_6_1.csv
2018-07-12T10:59:51.537931,-0.757,-0.534,-0.181,-271.585,-22.683,-57.988,16_6_1.csv
2018-07-12T10:59:51.585056,-0.757,-0.534,-0.181,-174.634,-16.585,-30.854,16_6_1.csv
2018-07-12T10:59:51.632684,-0.839,-0.605,0.07,10.793,10.671,29.207,16_6_1.csv
2018-07-12T10:59:51.758019,-1.081,-0.122,0.125,-72.683,38.902,-3.476,16_6_1.csv
2018-07-12T10:59:51.824196,-1.176,-0.341,0.069,-82.073,-14.451,-33.171,16_6_1.csv
2018-07-12T10:59:51.898895,-1.293,-0.51,-0.001,16.341,-32.256,-5.244,16_6_1.csv
2018-07-12T10:59:51.959557,-1.284,-0.404,-0.083,3.171,-45.244,-24.512,16_6_1.csv
2018-07-12T10:59:52.008187,-1.284,-0.404,-0.083,-11.951,-66.829,-47.073,16_6_1.csv
2018-07-12T10:59:52.054811,-0.915,-0.377,-0.124,3.232,-73.902,-66.768,16_6_1.csv
2018-07-12T10:59:52.102940,-0.925,-0.37,-0.106,77.317,-66.159,-67.805,16_6_1.csv
2018-07-12T10:59:52.157586,-0.925,-0.37,-0.106,71.768,-58.72,-44.573,16_6_1.csv
2018-07-12T10:59:52.256852,-0.878,-0.328,-0.055,32.744,-27.073,-22.195,16_6_1.csv
2018-07-12T10:59:52.322025,-0.835,-0.315,-0.007,8.049,-33.171,-42.256,16_6_1.csv
2018-07-12T10:59:52.364138,-0.806,-0.307,0.101,14.634,-26.646,-37.317,16_6_1.csv
2018-07-12T10:59:52.421792,-0.835,-0.251,0.145,8.049,-4.878,-6.707,16_6_1.csv
2018-07-12T10:59:52.474934,-0.835,-0.251,0.145,-15.305,0.61,16.28,16_6_1.csv
2018-07-12T10:59:52.538604,-1.039,-0.281,0.057,-50.61,-3.78,39.268,16_6_1.csv
2018-07-12T10:59:52.602776,-1.296,-0.384,-0.228,-140.183,-12.256,60.488,16_6_1.csv
2018-07-12T10:59:52.645891,-1.296,-0.384,-0.228,-188.171,-42.256,61.159,16_6_1.csv
2018-07-12T10:59:52.709561,-0.958,-0.579,-0.039,-102.988,41.341,68.963,16_6_1.csv
2018-07-12T10:59:52.757188,-0.975,-0.443,-0.082,-40.549,48.598,42.683,16_6_1.csv
2018-07-12T10:59:52.804816,-0.975,-0.443,-0.082,-13.78,24.512,28.78,16_6_1.csv
2018-07-12T10:59:52.864475,-0.857,-0.299,-0.031,-80.549,5.854,-2.134,16_6_1.csv
2018-07-12T10:59:52.923131,-0.79,-0.402,0.036,-99.146,16.585,-0.854,16_6_1.csv
2018-07-12T10:59:52.976775,-0.79,-0.402,0.036,-76.341,22.439,13.659,16_6_1.csv
2018-07-12T10:59:53.096595,-1.039,-0.459,0.125,-44.634,28.902,21.341,16_6_1.csv
2018-07-12T10:59:53.172799,-1.131,-0.429,0.09,-24.451,5.732,-19.268,16_6_1.csv
2018-07-12T10:59:53.224436,-1.315,-0.531,-0.014,-51.524,-29.573,-46.22,16_6_1.csv
2018-07-12T10:59:53.271562,-1.315,-0.531,-0.014,-39.146,-43.963,-45.183,16_6_1.csv
2018-07-12T10:59:53.321195,-1.05,-0.502,-0.073,-5.854,-58.415,-47.195,16_6_1.csv
2018-07-12T10:59:53.366817,-1.05,-0.502,-0.073,24.939,-48.476,-80.305,16_6_1.csv
2018-07-12T10:59:53.428482,-1.086,-0.389,-0.16,124.39,-50.366,-71.829,16_6_1.csv
2018-07-12T10:59:53.485133,-0.967,-0.277,-0.13,102.439,-49.878,-65.915,16_6_1.csv
2018-07-12T10:59:53.542787,-0.967,-0.277,-0.13,87.317,-37.256,-69.817,16_6_1.csv
2018-07-12T10:59:53.588409,-0.819,-0.251,-0.061,-14.024,-33.537,-63.11,16_6_1.csv
2018-07-12T10:59:53.641551,-0.78,-0.239,-0.059,-6.768,-34.756,-51.89,16_6_1.csv
2018-07-12T10:59:53.696196,-0.78,-0.239,-0.059,-40.122,-35.183,-40.366,16_6_1.csv
2018-07-12T10:59:53.753351,-0.688,-0.303,0.09,-66.402,11.951,26.707,16_6_1.csv
2018-07-12T10:59:53.824539,-0.951,-0.381,0.096,-35.793,31.585,76.159,16_6_1.csv
2018-07-12T10:59:53.880690,-1.386,-0.377,-0.279,-67.5,32.927,131.037,16_6_1.csv
2018-07-12T10:59:53.930322,-1.386,-0.377,-0.279,-124.756,5.671,121.585,16_6_1.csv
2018-07-12T10:59:53.977448,-1.224,-0.62,-0.241,-137.378,-34.451,95.793,16_6_1.csv
2018-07-12T10:59:54.022067,-1.224,-0.62,-0.241,-70.122,26.829,83.354,16_6_1.csv
2018-07-12T10:59:54.083732,-0.979,-0.419,-0.197,-55.793,21.402,21.707,16_6_1.csv
2018-07-12T10:59:54.156426,-0.857,-0.305,-0.122,-150.244,-22.134,-23.72,16_6_1.csv
2018-07-12T10:59:54.209568,-0.705,-0.439,-0.059,-172.927,-25.488,-32.622,16_6_1.csv
2018-07-12T10:59:54.256694,-0.705,-0.439,-0.059,-146.524,-23.11,-27.134,16_6_1.csv
2018-07-12T10:59:54.308332,-0.851,-0.543,0.032,-53.902,11.585,8.293,16_6_1.csv
2018-07-12T10:59:54.350946,-1.073,-0.298,0.1,-55.854,17.683,-7.134,16_6_1.csv
2018-07-12T10:59:54.446705,-1.073,-0.298,0.1,-106.463,1.159,-82.805,16_6_1.csv
2018-07-12T10:59:54.505863,-1.073,-0.298,0.1,-87.927,-14.146,-88.659,16_6_1.csv
2018-07-12T10:59:54.575050,-1.197,-0.291,0.034,6.28,-34.939,-19.695,16_6_1.csv
2018-07-12T10:59:54.621674,-1.271,-0.468,-0.043,-16.037,-27.317,-18.841,16_6_1.csv
2018-07-12T10:59:54.664789,-1.271,-0.468,-0.043,28.537,-20.305,-6.89,16_6_1.csv
2018-07-12T10:59:54.709408,-1.007,-0.406,-0.106,88.049,-20.915,10.488,16_6_1.csv
2018-07-12T10:59:54.779596,-1.082,-0.326,-0.164,58.354,-56.463,-58.232,16_6_1.csv
2018-07-12T10:59:54.855299,-1.0,-0.316,-0.19,13.659,-82.805,-64.329,16_6_1.csv
2018-07-12T10:59:54.912451,-0.875,-0.378,-0.097,-52.073,-65.732,-97.195,16_6_1.csv
2018-07-12T10:59:54.961081,-0.875,-0.378,-0.097,-16.098,-42.317,-84.878,16_6_1.csv
2018-07-12T10:59:55.006202,-0.806,-0.27,0.071,40.61,-11.89,-62.805,16_6_1.csv
2018-07-12T10:59:55.054331,-0.806,-0.27,0.071,57.378,4.695,-38.78,16_6_1.csv
2018-07-12T10:59:55.118502,-0.693,-0.094,0.178,-34.085,-1.707,33.11,16_6_1.csv
2018-07-12T10:59:55.176657,-0.844,-0.256,0.12,-69.024,1.037,82.317,16_6_1.csv
2018-07-12T10:59:55.240829,-1.597,-0.406,-0.23,-98.293,24.756,182.378,16_6_1.csv
2018-07-12T10:59:55.286952,-1.597,-0.406,-0.23,-177.866,9.817,200.244,16_6_1.csv
2018-07-12T10:59:55.335581,-1.327,-0.534,-0.311,-261.463,-41.28,165.244,16_6_1.csv
2018-07-12T10:59:55.384713,-1.327,-0.534,-0.311,-275.915,-39.207,79.451,16_6_1.csv
2018-07-12T10:59:55.442869,-0.813,-0.497,-0.152,-125.854,24.207,-35.793,16_6_1.csv
2018-07-12T10:59:55.500021,-0.852,-0.391,-0.163,-80.671,-14.573,-22.683,16_6_1.csv
2018-07-12T10:59:55.558176,-0.746,-0.34,0.035,-119.939,-18.232,-50.427,16_6_1.csv
2018-07-12T10:59:55.606806,-0.746,-0.34,0.035,-138.537,0.976,-41.646,16_6_1.csv
2018-07-12T10:59:55.665463,-0.9,-0.524,0.273,-89.268,39.878,-6.646,16_6_1.csv
2018-07-12T10:59:55.710082,-0.9,-0.524,0.273,-26.89,64.024,46.402,16_6_1.csv
2018-07-12T10:59:55.781272,-1.048,-0.427,0.196,29.695,25.976,40.61,16_6_1.csv
2018-07-12T10:59:55.884167,-1.358,-0.444,-0.108,-17.195,-38.963,-67.195,16_6_1.csv
2018-07-12T10:59:55.931295,-1.358,-0.444,-0.108,-17.439,-38.476,-72.012,16_6_1.csv
2018-07-12T10:59:55.990455,-1.188,-0.533,-0.053,-0.061,-35.305,-62.866,16_6_1.csv
2018-07-12T10:59:56.059141,-0.907,-0.273,-0.1,135.671,2.744,-43.841,16_6_1.csv
2018-07-12T10:59:56.142864,-0.956,-0.244,-0.059,93.415,-20.61,-51.646,16_6_1.csv
2018-07-12T10:59:56.199515,-0.817,-0.305,-0.031,64.085,-24.512,-23.415,16_6_1.csv
2018-07-12T10:59:56.242128,-0.817,-0.305,-0.031,39.512,-35.0,-23.415,16_6_1.csv
2018-07-12T10:59:56.288753,-0.786,-0.356,0.092,24.146,-21.524,-32.378,16_6_1.csv
2018-07-12T10:59:56.339387,-0.786,-0.356,0.092,20.488,-4.451,-28.963,16_6_1.csv
2018-07-12T10:59:56.410076,-0.81,-0.374,0.095,-14.39,-16.768,-0.183,16_6_1.csv
2018-07-12T10:59:56.471740,-0.864,-0.37,0.042,-23.171,-5.366,15.61,16_6_1.csv
2018-07-12T10:59:56.524882,-1.129,-0.347,-0.104,-62.134,4.695,39.268,16_6_1.csv
2018-07-12T10:59:56.572509,-1.129,-0.347,-0.104,-101.402,6.89,44.268,16_6_1.csv
2018-07-12T10:59:56.622141,-1.207,-0.497,-0.132,-145.915,-13.354,51.768,16_6_1.csv
2018-07-12T10:59:56.682803,-0.974,-0.304,-0.06,-74.39,46.951,79.878,16_6_1.csv
2018-07-12T10:59:56.766024,-0.974,-0.304,-0.06,-5.732,20.976,26.707,16_6_1.csv
2018-07-12T10:59:56.842228,-0.764,-0.353,0.006,-79.695,-21.646,-34.634,16_6_1.csv
2018-07-12T10:59:56.901385,-0.764,-0.353,0.006,-64.756,-13.598,-32.927,16_6_1.csv
2018-07-12T10:59:56.968063,-0.801,-0.439,0.057,2.561,24.39,10.854,16_6_1.csv
2018-07-12T10:59:57.042762,-0.975,-0.362,0.049,-20.183,14.39,16.402,16_6_1.csv
2018-07-12T10:59:57.101920,-1.024,-0.31,0.044,-29.39,-1.463,2.805,16_6_1.csv
2018-07-12T10:59:57.190155,-1.244,-0.455,-0.058,-60.793,-11.89,-30.427,16_6_1.csv
2018-07-12T10:59:57.257334,-1.263,-0.541,-0.015,-54.146,-24.085,-16.829,16_6_1.csv
2018-07-12T10:59:57.306465,-1.263,-0.541,-0.015,-35.976,-27.439,-18.963,16_6_1.csv
2018-07-12T10:59:57.370135,-0.985,-0.394,-0.035,69.939,-42.256,-50.366,16_6_1.csv
2018-07-12T10:59:57.427788,-0.967,-0.26,-0.132,42.012,-75.305,-70.793,16_6_1.csv
2018-07-12T10:59:57.490096,-0.855,-0.312,-0.073,-11.524,-74.634,-87.134,16_6_1.csv
2018-07-12T10:59:57.552262,-0.855,-0.312,-0.073,-23.598,-57.439,-72.805,16_6_1.csv
2018-07-12T10:59:57.617435,-0.7,-0.307,-0.04,-14.939,-33.476,-21.89,16_6_1.csv
2018-07-12T10:59:57.664060,-0.646,-0.392,0.224,-16.402,-4.329,12.012,16_6_1.csv
2018-07-12T10:59:57.723218,-0.646,-0.392,0.224,9.451,54.329,59.573,16_6_1.csv
2018-07-12T10:59:57.776860,-0.961,-0.334,0.106,-25.366,17.5,87.317,16_6_1.csv
2018-07-12T10:59:57.845042,-1.21,-0.365,-0.051,-58.72,-1.22,73.415,16_6_1.csv
2018-07-12T10:59:57.898183,-1.445,-0.463,-0.241,-129.451,-12.5,28.598,16_6_1.csv
2018-07-12T10:59:57.959848,-1.445,-0.463,-0.241,-154.268,-43.476,6.768,16_6_1.csv
2018-07-12T10:59:58.024019,-0.935,-0.495,-0.079,-69.451,8.11,-2.805,16_6_1.csv
2018-07-12T10:59:58.083678,-0.863,-0.298,-0.103,-20.061,-13.11,0.976,16_6_1.csv
2018-07-12T10:59:58.149353,-0.772,-0.222,-0.086,-106.829,-36.341,-33.11,16_6_1.csv
2018-07-12T10:59:58.219540,-0.757,-0.5,-0.095,-128.781,-37.256,-14.573,16_6_1.csv
2018-07-12T10:59:58.287221,-0.757,-0.5,-0.095,-54.817,-7.988,33.841,16_6_1.csv
2018-07-12T10:59:58.336351,-0.879,-0.47,0.033,-25.854,39.817,61.768,16_6_1.csv
2018-07-12T10:59:58.382474,-0.995,-0.417,0.107,-17.683,46.89,56.951,16_6_1.csv
2018-07-12T10:59:58.428597,-0.995,-0.417,0.107,-16.89,45.305,38.963,16_6_1.csv
2018-07-12T10:59:58.517835,-1.131,-0.375,0.073,-61.89,-0.915,-11.524,16_6_1.csv
2018-07-12T10:59:58.659713,-1.176,-0.502,-0.11,-25.0,-63.72,-66.524,16_6_1.csv
2018-07-12T10:59:58.708343,-0.97,-0.374,-0.149,-6.646,-50.122,-93.659,16_6_1.csv
2018-07-12T10:59:58.756471,-0.97,-0.374,-0.149,24.634,-46.89,-113.415,16_6_1.csv
2018-07-12T10:59:58.805101,-0.972,-0.35,-0.144,55.244,-54.756,-97.5,16_6_1.csv
2018-07-12T10:59:58.850722,-0.972,-0.35,-0.144,63.78,-45.915,-73.171,16_6_1.csv
2018-07-12T10:59:58.911384,-0.801,-0.271,-0.029,-1.646,-10.122,-54.634,16_6_1.csv
2018-07-12T10:59:58.989091,-0.767,-0.371,0.078,-25.671,-1.28,-19.085,16_6_1.csv
2018-07-12T10:59:59.052761,-0.841,-0.468,0.156,-34.878,11.098,-6.585,16_6_1.csv
2018-07-12T10:59:59.105902,-0.868,-0.443,0.066,-40.061,-18.049,22.683,16_6_1.csv
2018-07-12T10:59:59.147012,-0.868,-0.443,0.066,-53.11,-39.878,28.78,16_6_1.csv
2018-07-12T10:59:59.194137,-0.915,-0.421,-0.028,-71.28,-54.268,36.037,16_6_1.csv
2018-07-12T10:59:59.258308,-1.29,-0.447,-0.32,-115.427,-66.341,62.805,16_6_1.csv
2018-07-12T10:59:59.313957,-1.29,-0.447,-0.32,-160.366,-87.256,73.476,16_6_1.csv
2018-07-12T10:59:59.366096,-1.07,-0.629,-0.204,-185.549,-109.573,71.159,16_6_1.csv
2018-07-12T10:59:59.412219,-1.07,-0.629,-0.204,-145.122,-47.378,68.963,16_6_1.csv
2018-07-12T10:59:59.460347,-0.857,-0.534,-0.105,21.037,35.671,32.073,16_6_1.csv
2018-07-12T10:59:59.506971,-0.892,-0.251,-0.129,26.646,8.049,22.744,16_6_1.csv
2018-07-12T10:59:59.568134,-0.892,-0.251,-0.129,-39.207,-15.854,-3.232,16_6_1.csv
2018-07-12T10:59:59.636316,-0.75,-0.353,-0.03,-113.11,-10.488,-13.72,16_6_1.csv
2018-07-12T10:59:59.709010,-0.881,-0.522,0.051,0.671,34.146,33.598,16_6_1.csv
2018-07-12T10:59:59.760146,-1.018,-0.334,0.111,-0.305,33.171,33.902,16_6_1.csv
2018-07-12T10:59:59.826322,-0.995,-0.359,0.133,-66.22,7.805,-19.207,16_6_1.csv
2018-07-12T10:59:59.923581,-1.109,-0.465,0.028,-25.976,-10.244,-13.354,16_6_1.csv
2018-07-12T10:59:59.988755,-1.25,-0.535,-0.022,-31.037,-17.5,-13.476,16_6_1.csv
2018-07-12T11:00:00.072479,-1.027,-0.411,-0.082,6.28,-33.049,-38.72,16_6_1.csv
2018-07-12T11:00:00.115092,-1.027,-0.411,-0.082,38.049,-40.427,-80.244,16_6_1.csv
2018-07-12T11:00:00.176319,-1.105,-0.357,-0.135,56.098,-62.073,-90.427,16_6_1.csv
2018-07-12T11:00:00.228959,-0.912,-0.292,-0.093,26.463,-59.573,-77.317,16_6_1.csv
2018-07-12T11:00:00.297643,-0.912,-0.292,-0.093,-2.744,-49.878,-78.232,16_6_1.csv
2018-07-12T11:00:00.349782,-0.744,-0.315,0.005,23.902,-20.061,-40.488,16_6_1.csv
2018-07-12T11:00:00.459574,-0.847,-0.229,0.104,18.598,5.854,11.463,16_6_1.csv
2018-07-12T11:00:00.537783,-0.847,-0.229,0.104,-44.268,6.098,57.439,16_6_1.csv
2018-07-12T11:00:00.584908,-1.081,-0.315,-0.008,-122.195,6.829,100.976,16_6_1.csv
2018-07-12T11:00:00.641561,-1.499,-0.517,-0.378,-167.012,-4.939,114.573,16_6_1.csv
2018-07-12T11:00:00.695202,-1.499,-0.517,-0.378,-206.037,-50.427,109.939,16_6_1.csv
2018-07-12T11:00:00.740824,-0.882,-0.676,-0.129,-172.256,-44.817,86.524,16_6_1.csv
2018-07-12T11:00:00.789955,-0.978,-0.393,-0.126,23.78,80.61,16.159,16_6_1.csv
2018-07-12T11:00:00.838083,-0.978,-0.393,-0.126,-3.232,22.256,4.207,16_6_1.csv
2018-07-12T11:00:00.900750,-0.883,-0.269,-0.027,-66.829,-9.634,-7.134,16_6_1.csv
2018-07-12T11:00:00.973443,-0.782,-0.434,0.065,-112.073,-8.72,-31.646,16_6_1.csv
2018-07-12T11:00:01.090255,-0.948,-0.43,0.088,6.098,11.524,7.317,16_6_1.csv
2018-07-12T11:00:01.147407,-1.016,-0.348,0.074,-3.841,-0.915,-15.976,16_6_1.csv
2018-07-12T11:00:01.195536,-1.07,-0.371,0.041,6.341,-1.829,-20.061,16_6_1.csv
2018-07-12T11:00:01.268978,-1.269,-0.406,-0.074,13.72,-15.976,-14.878,16_6_1.csv
2018-07-12T11:00:01.396321,-1.139,-0.513,-0.106,47.683,-35.427,-5.244,16_6_1.csv
2018-07-12T11:00:01.483055,-0.923,-0.414,-0.13,86.22,-33.232,-57.012,16_6_1.csv
2018-07-12T11:00:01.539205,-0.956,-0.361,-0.163,107.134,-36.768,-33.902,16_6_1.csv
2018-07-12T11:00:01.588336,-0.842,-0.283,-0.128,33.171,-38.171,-56.768,16_6_1.csv
2018-07-12T11:00:01.656517,-0.842,-0.283,-0.128,3.354,-38.171,-69.512,16_6_1.csv
2018-07-12T11:00:01.710161,-0.803,-0.356,0.017,26.829,-8.049,-35.915,16_6_1.csv
2018-07-12T11:00:01.775836,-0.839,-0.288,0.104,22.317,-10.0,-25.915,16_6_1.csv
2018-07-12T11:00:01.832988,-0.909,-0.252,0.114,-5.366,7.866,-2.805,16_6_1.csv
2018-07-12T11:00:01.897159,-0.909,-0.252,0.114,-29.634,6.89,12.439,16_6_1.csv
2018-07-12T11:00:01.944285,-1.091,-0.278,-0.033,-64.085,7.622,25.427,16_6_1.csv
2018-07-12T11:00:01.992914,-1.389,-0.483,-0.325,-133.415,5.244,72.561,16_6_1.csv
2018-07-12T11:00:02.039037,-1.389,-0.483,-0.325,-147.5,-20.915,82.317,16_6_1.csv
2018-07-12T11:00:02.099197,-0.927,-0.457,-0.12,-82.439,20.61,68.78,16_6_1.csv
2018-07-12T11:00:02.168381,-0.994,-0.309,0.153,-152.439,-52.378,-18.902,16_6_1.csv
2018-07-12T11:00:02.225032,-0.994,-0.309,0.153,-325.0,-130.488,-88.415,16_6_1.csv
2018-07-12T11:00:02.271155,-0.627,-0.612,-0.186,-5.427,25.854,91.037,16_6_1.csv
2018-07-12T11:00:02.320286,-0.806,-0.405,-0.141,-13.11,7.073,68.171,16_6_1.csv
2018-07-12T11:00:02.368916,-0.806,-0.405,-0.141,-18.72,23.659,50.305,16_6_1.csv
2018-07-12T11:00:02.425065,-1.026,-0.469,0.146,2.988,50.976,47.5,16_6_1.csv
2018-07-12T11:00:02.485728,-1.06,-0.105,0.001,-77.134,37.439,-10.915,16_6_1.csv
2018-07-12T11:00:02.553909,-1.02,-0.627,-0.04,-244.268,-62.5,-120.305,16_6_1.csv
2018-07-12T11:00:02.647659,-1.269,-0.723,0.008,8.963,-15.61,-41.951,16_6_1.csv
2018-07-12T11:00:02.714838,-1.164,-0.44,-0.104,105.061,-12.012,-6.037,16_6_1.csv
2018-07-12T11:00:02.790039,-1.164,-0.44,-0.104,113.049,-24.451,-34.756,16_6_1.csv
2018-07-12T11:00:02.859724,-1.104,-0.294,-0.192,110.427,-65.854,-103.11,16_6_1.csv
2018-07-12T11:00:02.917879,-1.088,-0.293,-0.124,53.11,-69.024,-75.915,16_6_1.csv
2018-07-12T11:00:02.957485,-0.782,-0.238,-0.012,-0.488,-59.756,-75.366,16_6_1.csv
2018-07-12T11:00:03.007619,-0.782,-0.238,-0.012,-25.366,-52.5,-70.61,16_6_1.csv
2018-07-12T11:00:03.057755,-0.646,-0.291,0.153,-18.78,-37.5,-47.988,16_6_1.csv
2018-07-12T11:00:03.105883,-0.646,-0.291,0.153,0.244,-12.927,-8.598,16_6_1.csv
2018-07-12T11:00:03.160808,-0.727,-0.259,0.157,-27.805,-11.037,62.683,16_6_1.csv
2018-07-12T11:00:03.232001,-0.889,-0.305,0.041,-58.415,-9.756,83.293,16_6_1.csv
2018-07-12T11:00:03.289654,-1.161,-0.435,-0.104,-105.244,1.951,119.756,16_6_1.csv
2018-07-12T11:00:03.342295,-1.161,-0.435,-0.104,-115.061,13.78,131.098,16_6_1.csv
2018-07-12T11:00:03.386913,-1.533,-0.479,-0.25,-137.866,19.146,125.488,16_6_1.csv
2018-07-12T11:00:03.434541,-1.057,-0.528,-0.064,-213.049,-8.963,57.927,16_6_1.csv
2018-07-12T11:00:03.507234,-1.057,-0.528,-0.064,-190.366,11.037,26.89,16_6_1.csv
2018-07-12T11:00:03.567896,-0.87,-0.477,-0.144,-36.829,-26.524,-20.732,16_6_1.csv
2018-07-12T11:00:03.617027,-0.81,-0.201,-0.139,-45.061,-45.305,-43.415,16_6_1.csv
2018-07-12T11:00:03.670670,-0.81,-0.201,-0.139,-96.037,-41.646,-58.537,16_6_1.csv
2018-07-12T11:00:03.726318,-0.734,-0.283,-0.047,-88.232,19.39,8.963,16_6_1.csv
2018-07-12T11:00:03.772942,-0.934,-0.344,0.003,-31.341,34.817,46.402,16_6_1.csv
2018-07-12T11:00:03.840121,-1.018,-0.317,0.121,-33.598,44.573,39.756,16_6_1.csv
2018-07-12T11:00:03.904293,-1.018,-0.317,0.121,-52.073,50.183,5.488,16_6_1.csv
2018-07-12T11:00:04.012581,-1.283,-0.431,-0.013,-25.366,0.305,-14.756,16_6_1.csv
2018-07-12T11:00:04.053189,-1.283,-0.431,-0.013,-28.171,-9.39,-35.549,16_6_1.csv
2018-07-12T11:00:04.101819,-1.285,-0.513,-0.079,-0.793,-23.537,-39.39,16_6_1.csv
2018-07-12T11:00:04.149446,-1.285,-0.513,-0.079,29.207,-49.756,-47.805,16_6_1.csv
2018-07-12T11:00:04.223644,-1.019,-0.372,-0.124,43.232,-69.756,-133.171,16_6_1.csv
2018-07-12T11:00:04.280796,-1.112,-0.404,-0.175,94.085,-72.5,-102.622,16_6_1.csv
2018-07-12T11:00:04.336444,-0.997,-0.274,-0.139,67.378,-57.439,-95.061,16_6_1.csv
2018-07-12T11:00:04.399111,-0.997,-0.274,-0.139,27.439,-49.085,-93.659,16_6_1.csv
2018-07-12T11:00:04.463283,-0.746,-0.299,0.012,25.488,-38.963,-50.793,16_6_1.csv
2018-07-12T11:00:04.508904,-0.635,-0.381,0.299,88.476,11.829,2.866,16_6_1.csv
2018-07-12T11:00:04.577587,-0.83,-0.088,0.266,136.585,76.341,96.159,16_6_1.csv
2018-07-12T11:00:04.643763,-1.055,-0.152,0.074,-64.451,19.878,68.415,16_6_1.csv
2018-07-12T11:00:04.709438,-1.055,-0.152,0.074,-125.793,-5.122,43.72,16_6_1.csv
2018-07-12T11:00:04.756564,-1.44,-0.406,-0.268,-157.5,-18.171,27.134,16_6_1.csv
2018-07-12T11:00:04.805695,-1.149,-0.55,-0.106,-200.305,-52.378,22.622,16_6_1.csv
2018-07-12T11:00:04.852319,-1.149,-0.55,-0.106,-161.768,7.622,45.0,16_6_1.csv
2018-07-12T11:00:04.933536,-0.942,-0.458,-0.152,-28.232,-8.598,56.098,16_6_1.csv
2018-07-12T11:00:04.983669,-0.849,-0.221,-0.175,-53.78,-23.232,45.122,16_6_1.csv
2018-07-12T11:00:05.036811,-0.849,-0.221,-0.175,-146.402,-31.463,12.012,16_6_1.csv
2018-07-12T11:00:05.084939,-0.776,-0.389,-0.254,-213.598,-45.549,6.341,16_6_1.csv
2018-07-12T11:00:05.134572,-0.818,-0.601,-0.147,-155.793,-24.39,35.366,16_6_1.csv
2018-07-12T11:00:05.196236,-0.818,-0.601,-0.147,-84.146,16.037,67.195,16_6_1.csv
2018-07-12T11:00:05.257900,-0.938,-0.525,0.022,-19.512,78.171,73.841,16_6_1.csv
2018-07-12T11:00:05.377719,-1.201,-0.501,0.084,-55.61,20.976,-23.415,16_6_1.csv
2018-07-12T11:00:05.433367,-1.201,-0.501,0.084,-36.098,7.561,-42.622,16_6_1.csv
2018-07-12T11:00:05.476984,-1.451,-0.487,0.02,-22.866,-4.024,-61.402,16_6_1.csv
2018-07-12T11:00:05.527117,-1.105,-0.438,-0.079,-8.659,-75.61,-103.659,16_6_1.csv
2018-07-12T11:00:05.569230,-1.105,-0.438,-0.079,44.695,-67.256,-130.122,16_6_1.csv
2018-07-12T11:00:05.631395,-0.97,-0.391,-0.154,99.634,-71.768,-134.512,16_6_1.csv
2018-07-12T11:00:05.704591,-0.942,-0.362,-0.075,155.793,-44.512,-65.183,16_6_1.csv
2018-07-12T11:00:05.761743,-0.942,-0.362,-0.075,133.293,-2.866,-27.012,16_6_1.csv
2018-07-12T11:00:05.805860,-0.868,-0.265,0.034,98.049,-4.634,-17.805,16_6_1.csv
2018-07-12T11:00:05.855994,-0.79,-0.224,0.056,20.854,-36.524,-16.646,16_6_1.csv
2018-07-12T11:00:05.898608,-0.79,-0.224,0.056,-20.61,-59.329,-26.28,16_6_1.csv
2018-07-12T11:00:05.973808,-0.751,-0.372,0.146,41.585,9.878,17.378,16_6_1.csv
2018-07-12T11:00:06.030459,-0.892,-0.262,0.061,43.354,31.463,38.78,16_6_1.csv
2018-07-12T11:00:06.089115,-1.24,-0.234,-0.151,-58.963,35.366,40.244,16_6_1.csv
2018-07-12T11:00:06.135740,-1.24,-0.234,-0.151,-131.89,25.793,44.268,16_6_1.csv
2018-07-12T11:00:06.210439,-1.248,-0.435,-0.101,-211.768,17.805,77.195,16_6_1.csv
2018-07-12T11:00:06.258567,-0.977,-0.521,0.031,-180.183,44.329,69.939,16_6_1.csv
2018-07-12T11:00:06.320733,-0.977,-0.521,0.031,-108.049,38.171,57.378,16_6_1.csv
2018-07-12T11:00:06.382397,-0.979,-0.4,-0.056,-43.11,-1.159,29.817,16_6_1.csv
2018-07-12T11:00:06.431027,-0.87,-0.38,-0.033,-74.39,-11.707,11.28,16_6_1.csv
2018-07-12T11:00:06.477150,-0.87,-0.38,-0.033,-90.549,1.22,9.024,16_6_1.csv
2018-07-12T11:00:06.523273,-0.856,-0.457,0.003,-84.451,13.476,5.122,16_6_1.csv
2018-07-12T11:00:06.573406,-0.934,-0.413,0.062,-44.329,16.402,7.5,16_6_1.csv
2018-07-12T11:00:06.635071,-0.934,-0.413,0.062,-55.549,12.317,-7.378,16_6_1.csv
2018-07-12T11:00:06.745866,-1.15,-0.466,0.025,-29.756,-6.22,-37.866,16_6_1.csv
2018-07-12T11:00:06.820064,-1.364,-0.522,-0.175,2.927,-6.524,-50.183,16_6_1.csv
2018-07-12T11:00:06.864682,-1.364,-0.522,-0.175,45.183,-32.805,-44.573,16_6_1.csv
2018-07-12T11:00:06.914315,-0.939,-0.311,-0.224,104.756,-24.695,-47.012,16_6_1.csv
2018-07-12T11:00:06.959435,-0.939,-0.311,-0.224,254.634,-3.232,-15.793,16_6_1.csv
2018-07-12T11:00:07.023105,-0.916,0.12,-0.261,270.671,62.073,78.049,16_6_1.csv
2018-07-12T11:00:07.100311,-1.126,0.147,-0.108,-226.524,-86.159,-65.854,16_6_1.csv
2018-07-12T11:00:07.164481,-0.87,-0.553,-0.129,-275.732,-121.585,-96.585,16_6_1.csv
2018-07-12T11:00:07.209100,-0.87,-0.553,-0.129,-175.732,-119.085,-86.463,16_6_1.csv
2018-07-12T11:00:07.257730,-0.793,-0.469,0.045,20.122,-33.598,-27.5,16_6_1.csv
2018-07-12T11:00:07.308866,-0.798,-0.187,0.114,6.951,-14.756,-5.854,16_6_1.csv
2018-07-12T11:00:07.389581,-0.921,-0.291,0.088,-58.78,13.049,37.988,16_6_1.csv
2018-07-12T11:00:07.475310,-1.333,-0.374,-0.277,-102.378,19.39,72.927,16_6_1.csv
2018-07-12T11:00:07.521433,-1.333,-0.374,-0.277,-163.72,-16.707,59.573,16_6_1.csv
2018-07-12T11:00:07.573070,-1.167,-0.681,-0.097,-155.183,-60.366,46.159,16_6_1.csv
2018-07-12T11:00:07.633732,-0.961,-0.339,-0.034,34.634,102.805,42.561,16_6_1.csv
2018-07-12T11:00:07.694394,-0.961,-0.339,-0.034,-5.671,34.756,5.976,16_6_1.csv
2018-07-12T11:00:07.757061,-0.869,-0.195,-0.081,-131.951,-50.854,-29.146,16_6_1.csv
2018-07-12T11:00:07.825744,-0.729,-0.383,-0.065,-174.085,-45.0,-35.549,16_6_1.csv
2018-07-12T11:00:07.883398,-0.826,-0.49,-0.009,-130.976,-30.549,-24.634,16_6_1.csv
2018-07-12T11:00:07.932027,-0.826,-0.49,-0.009,-80.305,-1.341,-8.537,16_6_1.csv
2018-07-12T11:00:08.007729,-1.028,-0.323,0.117,-73.72,14.329,-4.268,16_6_1.csv
2018-07-12T11:00:08.110002,-1.127,-0.595,0.011,-109.268,-22.561,-31.768,16_6_1.csv
2018-07-12T11:00:08.162642,-1.127,-0.595,0.011,-46.159,-24.695,-13.293,16_6_1.csv
2018-07-12T11:00:08.210770,-1.149,-0.662,-0.036,25.793,-2.744,2.012,16_6_1.csv
2018-07-12T11:00:08.259399,-1.149,-0.662,-0.036,98.476,-2.073,26.402,16_6_1.csv
2018-07-12T11:00:08.323571,-0.966,-0.447,-0.114,225.976,12.805,11.28,16_6_1.csv
2018-07-12T11:00:08.372200,-1.127,-0.106,-0.154,194.512,-24.207,2.134,16_6_1.csv
2018-07-12T11:00:08.427849,-0.976,-0.323,-0.1,-36.524,-83.476,-77.134,16_6_1.csv
2018-07-12T11:00:08.476980,-0.976,-0.323,-0.1,-46.22,-78.78,-78.78,16_6_1.csv
2018-07-12T11:00:08.522601,-0.804,-0.338,-0.051,-33.049,-71.768,-80.427,16_6_1.csv
2018-07-12T11:00:08.573738,-0.804,-0.338,-0.051,-16.098,-58.354,-79.573,16_6_1.csv
2018-07-12T11:00:08.638410,-0.764,-0.244,0.113,-4.268,-17.378,-32.5,16_6_1.csv
2018-07-12T11:00:08.717120,-0.804,-0.183,0.15,-39.451,-5.488,37.378,16_6_1.csv
2018-07-12T11:00:08.774272,-1.008,-0.257,0.014,-78.902,-2.073,63.293,16_6_1.csv
2018-07-12T11:00:08.826912,-1.562,-0.552,-0.236,-152.378,-1.646,109.512,16_6_1.csv
2018-07-12T11:00:08.884065,-1.562,-0.552,-0.236,-167.927,-18.78,131.037,16_6_1.csv
2018-07-12T11:00:08.937708,-1.042,-0.586,0.019,-123.781,18.232,127.5,16_6_1.csv
2018-07-12T11:00:08.990348,-0.883,-0.326,-0.125,-16.951,29.756,16.585,16_6_1.csv
2018-07-12T11:00:09.040983,-0.883,-0.326,-0.125,-34.573,-32.5,-13.963,16_6_1.csv
2018-07-12T11:00:09.087607,-0.906,-0.273,-0.144,-88.841,-69.146,-34.024,16_6_1.csv
2018-07-12T11:00:09.130722,-0.906,-0.273,-0.144,-166.89,-84.756,-48.11,16_6_1.csv
2018-07-12T11:00:09.196397,-0.724,-0.431,-0.039,-192.561,-30.427,-32.561,16_6_1.csv
2018-07-12T11:00:09.258562,-0.838,-0.447,0.109,-128.293,-5.488,-13.537,16_6_1.csv
2018-07-12T11:00:09.318723,-0.991,-0.395,0.267,-70.366,9.268,14.39,16_6_1.csv
2018-07-12T11:00:09.369358,-0.991,-0.395,0.267,-27.256,23.598,22.439,16_6_1.csv
2018-07-12T11:00:09.469625,-1.199,-0.378,0.025,-11.768,-3.415,10.976,16_6_1.csv
2018-07-12T11:00:09.523268,-1.199,-0.378,0.025,-39.268,-17.073,-12.805,16_6_1.csv
2018-07-12T11:00:09.596965,-1.212,-0.531,0.031,-26.768,-37.012,-20.976,16_6_1.csv
2018-07-12T11:00:09.676176,-0.883,-0.447,-0.031,52.866,-30.427,-73.537,16_6_1.csv
2018-07-12T11:00:09.771931,-1.047,-0.4,-0.104,96.585,-49.634,-49.268,16_6_1.csv
2018-07-12T11:00:09.818054,-0.972,-0.271,-0.06,71.951,-35.976,-35.915,16_6_1.csv
2018-07-12T11:00:09.867186,-0.831,-0.303,0.008,9.573,-36.707,-46.159,16_6_1.csv
2018-07-12T11:00:09.930353,-0.831,-0.303,0.008,-27.988,-44.512,-63.049,16_6_1.csv
2018-07-12T11:00:10.007559,-0.762,-0.303,0.185,-11.829,-9.695,-21.646,16_6_1.csv
2018-07-12T11:00:10.054183,-0.809,-0.26,0.272,-6.22,10.305,9.268,16_6_1.csv
2018-07-12T11:00:10.101309,-0.809,-0.26,0.272,-10.0,18.476,40.671,16_6_1.csv
2018-07-12T11:00:10.149938,-1.058,-0.211,0.12,-112.134,-18.049,76.22,16_6_1.csv
2018-07-12T11:00:10.224637,-1.439,-0.458,-0.271,-169.817,-35.0,79.329,16_6_1.csv
2018-07-12T11:00:10.292318,-1.091,-0.772,-0.14,-198.354,-80.732,85.305,16_6_1.csv
2018-07-12T11:00:10.353482,-0.803,-0.604,-0.082,54.634,80.183,67.5,16_6_1.csv
2018-07-12T11:00:10.400105,-0.803,-0.604,-0.082,145.793,70.366,49.756,16_6_1.csv
2018-07-12T11:00:10.463775,-0.883,-0.122,-0.145,111.402,15.793,18.963,16_6_1.csv
2018-07-12T11:00:10.510399,-0.883,-0.122,-0.145,-13.72,-19.39,-34.451,16_6_1.csv
2018-07-12T11:00:10.580085,-0.766,-0.291,-0.008,-175.427,-24.268,-53.841,16_6_1.csv
2018-07-12T11:00:10.638741,-0.87,-0.478,0.221,0.427,55.427,19.878,16_6_1.csv
2018-07-12T11:00:10.693387,-1.034,-0.253,0.154,-12.683,22.256,22.805,16_6_1.csv
2018-07-12T11:00:10.742016,-1.034,-0.253,0.154,-34.939,-5.671,9.512,16_6_1.csv
2018-07-12T11:00:10.824236,-0.99,-0.384,0.059,-38.11,-23.841,3.049,16_6_1.csv
2018-07-12T11:00:10.873868,-1.122,-0.481,-0.038,-37.378,-7.744,3.171,16_6_1.csv
2018-07-12T11:00:10.945057,-1.222,-0.583,-0.069,-75.488,-25.305,-21.707,16_6_1.csv
2018-07-12T11:00:11.003714,-0.977,-0.524,-0.012,11.585,-2.988,-52.012,16_6_1.csv
2018-07-12T11:00:11.058861,-0.977,-0.524,-0.012,76.159,-10.061,-80.671,16_6_1.csv
2018-07-12T11:00:11.098466,-1.063,-0.309,-0.067,98.78,-31.402,-87.378,16_6_1.csv
2018-07-12T11:00:11.168152,-0.99,-0.246,0.001,41.707,-56.28,-95.244,16_6_1.csv
2018-07-12T11:00:11.210766,-0.99,-0.246,0.001,5.488,-55.671,-83.902,16_6_1.csv
2018-07-12T11:00:11.270926,-0.785,-0.289,0.141,7.256,-42.683,-58.72,16_6_1.csv
2018-07-12T11:00:11.331086,-0.756,-0.185,0.191,35.976,-4.756,2.012,16_6_1.csv
2018-07-12T11:00:11.397263,-0.909,-0.242,0.101,-46.585,1.768,50.61,16_6_1.csv
2018-07-12T11:00:11.443887,-0.909,-0.242,0.101,-101.342,-0.183,67.439,16_6_1.csv
2018-07-12T11:00:11.494021,-1.172,-0.459,-0.156,-132.012,-3.72,82.622,16_6_1.csv
2018-07-12T11:00:11.543654,-1.172,-0.459,-0.156,-140.366,-10.0,94.756,16_6_1.csv
2018-07-12T11:00:11.617349,-1.353,-0.655,-0.269,-131.768,-40.915,104.512,16_6_1.csv
2018-07-12T11:00:11.685030,-0.848,-0.54,0.031,-26.585,77.5,26.402,16_6_1.csv
2018-07-12T11:00:11.740678,-0.934,-0.372,-0.105,8.171,33.902,-2.134,16_6_1.csv
2018-07-12T11:00:11.788305,-0.934,-0.372,-0.105,11.341,-4.878,-10.305,16_6_1.csv
2018-07-12T11:00:11.836935,-0.814,-0.262,-0.026,-25.61,-17.073,-29.878,16_6_1.csv
2018-07-12T11:00:11.881554,-0.768,-0.425,0.045,-83.293,5.244,-28.415,16_6_1.csv
2018-07-12T11:00:11.945724,-0.768,-0.425,0.045,-37.195,28.293,0.122,16_6_1.csv
2018-07-12T11:00:11.999869,-0.947,-0.391,0.144,5.915,50.366,18.293,16_6_1.csv
2018-07-12T11:00:12.059027,-1.074,-0.242,0.152,-25.915,32.622,2.256,16_6_1.csv
2018-07-12T11:00:12.116179,-1.074,-0.242,0.152,-66.768,5.976,-19.146,16_6_1.csv
2018-07-12T11:00:12.215443,-1.313,-0.491,-0.096,-55.793,-33.78,-19.329,16_6_1.csv
2018-07-12T11:00:12.257054,-1.313,-0.491,-0.096,-59.268,-45.366,-28.415,16_6_1.csv
2018-07-12T11:00:12.347295,-0.971,-0.502,-0.06,28.841,-36.524,-62.317,16_6_1.csv
2018-07-12T11:00:12.407455,-1.015,-0.401,-0.099,95.793,-55.549,-76.524,16_6_1.csv
2018-07-12T11:00:12.476640,-1.09,-0.271,-0.121,91.463,-71.098,-59.512,16_6_1.csv
2018-07-12T11:00:12.527274,-0.877,-0.261,0.019,-18.841,-73.476,-62.012,16_6_1.csv
2018-07-12T11:00:12.576907,-0.877,-0.261,0.019,-36.159,-66.037,-50.488,16_6_1.csv
2018-07-12T11:00:12.616512,-0.743,-0.271,0.117,-19.634,-50.427,-28.963,16_6_1.csv
2018-07-12T11:00:12.680182,-0.743,-0.271,0.117,-12.683,-38.963,-8.537,16_6_1.csv
2018-07-12T11:00:12.735830,-0.744,-0.209,0.074,-70.793,-27.378,30.732,16_6_1.csv
2018-07-12T11:00:12.789975,-0.932,-0.304,-0.071,-112.561,-14.329,49.634,16_6_1.csv
2018-07-12T11:00:12.837601,-0.932,-0.304,-0.071,-152.073,-15.488,65.793,16_6_1.csv
2018-07-12T11:00:12.887234,-1.23,-0.469,-0.33,-157.073,-29.817,87.5,16_6_1.csv
2018-07-12T11:00:12.963437,-1.352,-0.641,-0.317,-124.878,-27.134,133.72,16_6_1.csv
2018-07-12T11:00:13.022093,-0.952,-0.517,-0.112,-99.695,40.0,94.817,16_6_1.csv
2018-07-12T11:00:13.092781,-0.821,-0.401,-0.13,-41.22,26.341,21.829,16_6_1.csv
2018-07-12T11:00:13.147427,-0.821,-0.401,-0.13,-49.451,5.793,6.037,16_6_1.csv
2018-07-12T11:00:13.194051,-0.749,-0.36,-0.018,-94.634,-1.768,-9.634,16_6_1.csv
2018-07-12T11:00:13.241678,-0.749,-0.36,-0.018,-128.902,1.768,-8.598,16_6_1.csv
2018-07-12T11:00:13.288804,-0.933,-0.425,-0.01,-138.049,-0.122,-10.61,16_6_1.csv
2018-07-12T11:00:13.352474,-1.008,-0.455,0.037,-184.024,-17.317,-32.866,16_6_1.csv
2018-07-12T11:00:13.407119,-0.998,-0.553,0.167,-112.134,13.476,-57.195,16_6_1.csv
2018-07-12T11:00:13.475301,-0.998,-0.553,0.167,-29.451,26.646,-37.073,16_6_1.csv
2018-07-12T11:00:13.633723,-1.352,-0.651,-0.034,170.793,6.463,12.073,16_6_1.csv
2018-07-12T11:00:13.683355,-1.145,-0.309,-0.146,210.183,2.622,3.841,16_6_1.csv
2018-07-12T11:00:13.741511,-1.16,-0.215,-0.166,104.939,-104.146,-93.841,16_6_1.csv
2018-07-12T11:00:13.809692,-1.017,-0.291,-0.164,21.22,-126.159,-76.341,16_6_1.csv
2018-07-12T11:00:13.866343,-1.017,-0.291,-0.164,-38.11,-116.463,-77.927,16_6_1.csv
2018-07-12T11:00:13.934023,-0.684,-0.309,-0.067,-73.293,-71.037,-87.073,16_6_1.csv
2018-07-12T11:00:13.976637,-0.597,-0.304,0.094,-22.256,-22.134,-54.878,16_6_1.csv
2018-07-12T11:00:14.023762,-0.597,-0.304,0.094,7.256,-0.915,-8.902,16_6_1.csv
2018-07-12T11:00:14.092446,-0.69,-0.224,0.127,-18.415,28.171,77.683,16_6_1.csv
2018-07-12T11:00:14.148094,-1.08,-0.296,-0.056,-50.366,43.598,117.805,16_6_1.csv
2018-07-12T11:00:14.199231,-1.08,-0.296,-0.056,-101.646,43.232,148.232,16_6_1.csv
2018-07-12T11:00:14.247860,-1.639,-0.606,-0.234,-137.927,40.427,174.207,16_6_1.csv
