time,accel_x_list,accel_y_list,accel_z_list,gyro_x_list,gyro_y_list,gyro_z_list,filename
2018-07-12T12:13:47.799321,-0.919,-0.492,0.02,-1.951,2.5,4.024,17_10_2.csv
2018-07-12T12:13:47.843439,-0.915,-0.487,0.01,-1.22,2.805,3.415,17_10_2.csv
2018-07-12T12:13:47.890063,-0.915,-0.487,0.01,-1.463,3.354,3.232,17_10_2.csv
2018-07-12T12:13:47.950725,-0.914,-0.492,0.011,-2.073,3.78,4.085,17_10_2.csv
2018-07-12T12:13:48.003366,-0.908,-0.504,0.012,0.671,5.671,5.0,17_10_2.csv
2018-07-12T12:13:48.067536,-0.908,-0.504,0.012,5.793,7.988,6.585,17_10_2.csv
2018-07-12T12:13:48.114662,-0.92,-0.488,0.014,10.976,10.793,8.598,17_10_2.csv
2018-07-12T12:13:48.156775,-0.92,-0.488,0.014,13.476,12.134,10.549,17_10_2.csv
2018-07-12T12:13:48.497191,-1.353,-0.35,-0.064,-44.817,-5.305,9.878,17_10_2.csv
2018-07-12T12:13:48.576407,-2.818,-0.623,-0.563,-63.415,4.085,31.707,17_10_2.csv
2018-07-12T12:13:48.628546,-2.818,-0.623,-0.563,-93.476,-10.061,36.524,17_10_2.csv
2018-07-12T12:13:48.674671,-1.648,-0.745,-0.122,-39.512,-16.829,64.085,17_10_2.csv
2018-07-12T12:13:48.722298,0.394,-0.17,0.037,37.378,-81.768,27.195,17_10_2.csv
2018-07-12T12:13:48.769925,0.394,-0.17,0.037,55.0,-27.073,-0.549,17_10_2.csv
2018-07-12T12:13:48.812538,0.074,-0.036,-0.014,53.902,-1.707,-9.451,17_10_2.csv
2018-07-12T12:13:48.878213,0.074,-0.036,-0.014,43.049,-14.207,-16.707,17_10_2.csv
2018-07-12T12:13:48.940379,-0.081,-0.031,0.128,1.829,-7.866,-46.341,17_10_2.csv
2018-07-12T12:13:48.988508,-0.514,-0.171,0.027,-35.244,-10.976,-51.951,17_10_2.csv
2018-07-12T12:13:49.035132,-0.514,-0.171,0.027,-37.134,28.11,-38.476,17_10_2.csv
2018-07-12T12:13:49.095291,-3.593,-0.643,-0.476,-32.927,-12.561,35.976,17_10_2.csv
2018-07-12T12:13:49.144924,-2.359,-0.874,0.057,-103.171,-1.22,60.488,17_10_2.csv
2018-07-12T12:13:49.217618,0.539,-0.167,0.01,69.756,-76.646,11.28,17_10_2.csv
2018-07-12T12:13:49.291314,0.103,0.027,-0.014,30.976,-11.829,-26.646,17_10_2.csv
2018-07-12T12:13:49.345459,0.103,0.027,-0.014,-9.695,-19.695,-12.866,17_10_2.csv
2018-07-12T12:13:49.393586,0.007,-0.005,0.089,10.793,-11.646,-27.805,17_10_2.csv
2018-07-12T12:13:49.437704,0.007,-0.005,0.089,8.537,-4.512,-40.732,17_10_2.csv
2018-07-12T12:13:49.485331,-0.658,-0.157,0.004,-48.476,4.024,-40.0,17_10_2.csv
2018-07-12T12:13:49.674340,-2.119,-0.82,0.179,-70.61,-33.049,57.927,17_10_2.csv
2018-07-12T12:13:49.738012,0.563,-0.084,0.121,122.073,-24.146,-19.329,17_10_2.csv
2018-07-12T12:13:49.783134,0.014,-0.052,-0.026,9.207,-8.78,-30.244,17_10_2.csv
2018-07-12T12:13:49.852319,-0.082,-0.067,0.102,-3.415,3.293,-27.805,17_10_2.csv
2018-07-12T12:13:49.906964,-0.082,-0.067,0.102,20.854,0.0,-34.939,17_10_2.csv
2018-07-12T12:13:49.955093,-0.983,-0.245,0.033,-19.817,13.78,-30.61,17_10_2.csv
2018-07-12T12:13:50.009738,-3.39,-0.71,-0.552,-15.061,36.89,17.134,17_10_2.csv
2018-07-12T12:13:50.063882,-3.39,-0.71,-0.552,-10.61,-11.951,35.0,17_10_2.csv
2018-07-12T12:13:50.111509,-2.126,-0.838,0.016,-23.293,7.866,47.805,17_10_2.csv
2018-07-12T12:13:50.163648,-2.126,-0.838,0.016,-74.695,-33.354,60.549,17_10_2.csv
2018-07-12T12:13:50.206763,0.394,-0.182,0.029,49.817,-69.207,22.439,17_10_2.csv
2018-07-12T12:13:50.256395,0.114,0.094,-0.05,60.61,0.305,-16.951,17_10_2.csv
2018-07-12T12:13:50.306529,0.114,0.094,-0.05,-3.537,-11.28,-10.0,17_10_2.csv
2018-07-12T12:13:50.363682,-0.062,-0.051,0.096,35.061,5.305,-16.22,17_10_2.csv
2018-07-12T12:13:50.410305,-0.897,-0.38,-0.039,52.5,52.256,-19.939,17_10_2.csv
2018-07-12T12:13:50.460940,-0.897,-0.38,-0.039,38.598,105.732,-14.085,17_10_2.csv
2018-07-12T12:13:50.516087,-3.491,-0.886,-0.408,67.927,82.927,16.341,17_10_2.csv
2018-07-12T12:13:50.563714,-3.491,-0.886,-0.408,-87.866,-23.963,3.232,17_10_2.csv
2018-07-12T12:13:50.616355,-1.911,-0.729,-0.063,88.354,-90.488,28.72,17_10_2.csv
2018-07-12T12:13:50.679022,0.646,0.014,-0.001,104.817,-100.366,-4.634,17_10_2.csv
2018-07-12T12:13:50.722137,0.646,0.014,-0.001,44.756,-2.683,-22.317,17_10_2.csv
2018-07-12T12:13:50.770265,-0.054,0.01,-0.082,47.073,2.988,-17.317,17_10_2.csv
2018-07-12T12:13:50.832431,-0.066,-0.056,0.03,61.341,0.793,-26.768,17_10_2.csv
2018-07-12T12:13:50.953803,-1.374,-0.761,-0.134,152.134,160.366,3.963,17_10_2.csv
2018-07-12T12:13:51.016974,-4.02,-0.519,0.221,-3.841,5.244,15.854,17_10_2.csv
2018-07-12T12:13:51.062096,-0.682,-0.338,0.371,-65.366,-122.561,-7.866,17_10_2.csv
2018-07-12T12:13:51.111230,-0.682,-0.338,0.371,124.878,-115.427,-18.963,17_10_2.csv
2018-07-12T12:13:51.159357,0.585,-0.132,-0.199,147.378,-5.61,-23.963,17_10_2.csv
2018-07-12T12:13:51.203475,0.585,-0.132,-0.199,136.463,16.28,1.402,17_10_2.csv
2018-07-12T12:13:51.251604,-0.079,-0.07,-0.174,178.781,11.159,23.415,17_10_2.csv
2018-07-12T12:13:51.320788,-0.173,0.188,-0.137,36.463,-5.122,-22.378,17_10_2.csv
2018-07-12T12:13:51.376938,-2.694,-0.029,-0.06,-245.366,11.22,-18.049,17_10_2.csv
2018-07-12T12:13:51.422559,-2.694,-0.029,-0.06,-265.732,8.476,-6.037,17_10_2.csv
2018-07-12T12:13:51.478709,-3.562,-0.349,0.234,-207.256,-42.683,88.72,17_10_2.csv
2018-07-12T12:13:51.538368,-0.325,-0.502,-0.107,-299.939,-75.061,116.463,17_10_2.csv
2018-07-12T12:13:51.578976,-0.325,-0.502,-0.107,-196.951,-77.805,64.695,17_10_2.csv
2018-07-12T12:13:51.646155,0.37,-0.505,0.015,-46.524,-9.756,71.037,17_10_2.csv
2018-07-12T12:13:51.688769,0.37,-0.505,0.015,13.537,17.683,87.134,17_10_2.csv
2018-07-12T12:13:51.735894,0.11,-0.823,0.053,-93.963,-1.28,65.854,17_10_2.csv
2018-07-12T12:13:51.782519,-0.287,-0.832,0.014,33.537,21.28,-37.5,17_10_2.csv
2018-07-12T12:13:51.828140,-0.287,-0.832,0.014,45.854,35.549,-82.561,17_10_2.csv
2018-07-12T12:13:51.874764,-3.198,-0.758,-0.375,8.232,95.366,-119.817,17_10_2.csv
2018-07-12T12:13:51.935150,-3.198,-0.758,-0.375,42.561,60.549,-121.951,17_10_2.csv
2018-07-12T12:13:51.987789,-3.197,0.203,0.237,112.5,56.585,-63.659,17_10_2.csv
2018-07-12T12:13:52.033411,0.026,0.589,0.361,137.988,-11.89,16.707,17_10_2.csv
2018-07-12T12:13:52.081038,0.026,0.589,0.361,41.646,-81.402,52.805,17_10_2.csv
2018-07-12T12:13:52.128665,0.16,-0.156,-0.267,31.402,8.841,13.902,17_10_2.csv
2018-07-12T12:13:52.179300,0.16,-0.156,-0.267,22.5,-22.195,8.598,17_10_2.csv
2018-07-12T12:13:52.312655,-0.516,-0.096,0.229,-32.683,22.256,-19.146,17_10_2.csv
2018-07-12T12:13:52.362789,-3.042,-0.472,-0.412,-97.622,46.707,-27.378,17_10_2.csv
2018-07-12T12:13:52.406405,-3.042,-0.472,-0.412,-111.159,-8.476,15.305,17_10_2.csv
2018-07-12T12:13:52.454533,-2.782,-0.682,0.105,-83.232,45.0,62.439,17_10_2.csv
2018-07-12T12:13:52.506673,0.238,-0.443,0.327,-111.037,-71.829,42.317,17_10_2.csv
2018-07-12T12:13:52.561318,0.238,-0.443,0.327,-27.5,-77.378,-7.256,17_10_2.csv
2018-07-12T12:13:52.623484,0.291,-0.194,0.053,-33.049,-12.195,-10.366,17_10_2.csv
2018-07-12T12:13:52.692668,-0.044,-0.241,0.031,-72.927,-11.098,-34.329,17_10_2.csv
2018-07-12T12:13:52.737789,-0.044,-0.241,0.031,-21.646,-4.329,-46.159,17_10_2.csv
2018-07-12T12:13:52.789929,-0.627,-0.278,0.054,-26.585,18.659,-53.293,17_10_2.csv
2018-07-12T12:13:52.845576,-3.308,-0.588,-0.469,-54.451,27.805,-61.22,17_10_2.csv
2018-07-12T12:13:52.893704,-3.308,-0.588,-0.469,-37.439,-19.878,-35.061,17_10_2.csv
2018-07-12T12:13:52.956873,-2.602,-0.581,0.054,8.963,24.207,125.122,17_10_2.csv
2018-07-12T12:13:52.999486,0.219,-0.401,0.278,-126.402,-87.927,63.598,17_10_2.csv
2018-07-12T12:13:53.046612,0.219,-0.401,0.278,-34.695,-73.415,-9.695,17_10_2.csv
2018-07-12T12:13:53.096244,0.295,-0.144,-0.052,62.134,-16.098,-1.707,17_10_2.csv
2018-07-12T12:13:53.141866,0.295,-0.144,-0.052,-3.354,-15.976,9.207,17_10_2.csv
2018-07-12T12:13:53.188490,-0.037,-0.223,-0.074,12.744,3.354,-30.976,17_10_2.csv
2018-07-12T12:13:53.245642,-0.386,-0.251,0.05,67.378,19.512,-33.598,17_10_2.csv
2018-07-12T12:13:53.296277,-0.386,-0.251,0.05,51.768,52.866,-29.085,17_10_2.csv
2018-07-12T12:13:53.343403,-3.241,-0.631,-0.532,16.829,82.012,-7.012,17_10_2.csv
2018-07-12T12:13:53.395542,-2.832,-0.521,0.29,17.622,50.854,15.61,17_10_2.csv
2018-07-12T12:13:53.441163,-2.832,-0.521,0.29,40.488,32.378,89.146,17_10_2.csv
2018-07-12T12:13:53.488792,0.195,-0.087,0.295,-34.146,-85.366,80.366,17_10_2.csv
2018-07-12T12:13:53.543436,0.195,-0.087,0.295,45.061,-76.951,-9.268,17_10_2.csv
2018-07-12T12:13:53.597580,0.21,-0.002,-0.076,-89.268,-44.024,9.329,17_10_2.csv
2018-07-12T12:13:53.723917,-0.362,-0.17,-0.024,51.341,24.634,-2.866,17_10_2.csv
2018-07-12T12:13:53.772546,-0.362,-0.17,-0.024,22.744,36.098,-5.854,17_10_2.csv
2018-07-12T12:13:53.812653,-3.076,-0.775,-0.679,5.0,93.476,-11.951,17_10_2.csv
2018-07-12T12:13:53.862286,-3.076,-0.775,-0.679,31.159,36.951,-30.671,17_10_2.csv
2018-07-12T12:13:53.946510,-2.877,-0.979,0.728,-79.695,22.561,-7.622,17_10_2.csv
2018-07-12T12:13:54.004164,0.206,-0.031,0.1,205.061,-127.561,-21.28,17_10_2.csv
2018-07-12T12:13:54.047780,0.184,0.234,-0.281,-52.012,-51.89,-65.488,17_10_2.csv
2018-07-12T12:13:54.096911,0.184,0.234,-0.281,-42.927,-41.646,-25.0,17_10_2.csv
2018-07-12T12:13:54.144036,-0.126,0.223,-0.531,-2.622,-26.829,-19.207,17_10_2.csv
2018-07-12T12:13:54.192165,-0.661,0.193,0.13,-28.902,39.756,-15.244,17_10_2.csv
2018-07-12T12:13:54.246811,-0.661,0.193,0.13,-120.915,82.317,16.585,17_10_2.csv
2018-07-12T12:13:54.312485,-3.659,-0.691,0.039,-51.524,97.683,149.573,17_10_2.csv
2018-07-12T12:13:54.359109,-2.378,-0.965,-0.243,-55.671,-7.866,135.915,17_10_2.csv
2018-07-12T12:13:54.406736,-2.378,-0.965,-0.243,-62.439,-95.244,62.439,17_10_2.csv
2018-07-12T12:13:54.455868,0.556,-0.412,0.205,-52.866,-101.159,2.561,17_10_2.csv
2018-07-12T12:13:54.499985,0.556,-0.412,0.205,-9.939,-29.329,-6.951,17_10_2.csv
2018-07-12T12:13:54.555633,0.142,-0.309,0.091,6.524,-16.22,-15.793,17_10_2.csv
2018-07-12T12:13:54.611282,-0.054,-0.187,0.007,34.024,-13.841,-45.366,17_10_2.csv
2018-07-12T12:13:54.663922,-0.054,-0.187,0.007,80.793,4.634,-57.988,17_10_2.csv
2018-07-12T12:13:54.721576,-1.292,-0.184,0.005,16.098,64.695,-38.78,17_10_2.csv
2018-07-12T12:13:54.771709,-3.454,-0.365,-0.241,66.829,39.939,-17.805,17_10_2.csv
2018-07-12T12:13:54.812819,-3.454,-0.365,-0.241,158.72,35.0,11.646,17_10_2.csv
2018-07-12T12:13:54.868467,-1.864,-0.224,0.433,131.342,25.427,49.39,17_10_2.csv
2018-07-12T12:13:54.907571,-1.864,-0.224,0.433,-45.061,-58.537,41.585,17_10_2.csv
2018-07-12T12:13:54.956702,0.427,-0.161,0.156,75.061,-46.829,-38.11,17_10_2.csv
2018-07-12T12:13:55.044937,0.122,-0.117,-0.292,1.585,1.037,-29.39,17_10_2.csv
2018-07-12T12:13:55.111113,-0.093,-0.067,-0.05,34.878,10.732,-47.988,17_10_2.csv
2018-07-12T12:13:55.156235,-1.246,-0.181,0.228,25.061,12.866,-72.256,17_10_2.csv
2018-07-12T12:13:55.206367,-1.246,-0.181,0.228,-19.451,53.659,-54.817,17_10_2.csv
2018-07-12T12:13:55.273045,-3.718,-0.563,-0.093,-34.085,104.756,-7.012,17_10_2.csv
2018-07-12T12:13:55.314155,-3.718,-0.563,-0.093,-33.537,95.671,69.451,17_10_2.csv
2018-07-12T12:13:55.381334,-1.54,-0.614,0.317,-104.695,-93.171,99.207,17_10_2.csv
2018-07-12T12:13:55.435980,0.638,-0.227,-0.007,46.829,-65.366,21.646,17_10_2.csv
2018-07-12T12:13:55.497644,0.095,-0.275,-0.094,-97.866,-29.268,-6.585,17_10_2.csv
2018-07-12T12:13:55.563319,-0.149,-0.143,0.1,-13.659,-9.451,-61.646,17_10_2.csv
2018-07-12T12:13:55.612450,-0.149,-0.143,0.1,-22.134,1.89,-72.5,17_10_2.csv
2018-07-12T12:13:55.661581,-1.916,-0.362,-0.06,-23.476,42.683,-55.854,17_10_2.csv
2018-07-12T12:13:55.712216,-1.916,-0.362,-0.06,-40.793,107.256,-28.293,17_10_2.csv
2018-07-12T12:13:55.766360,-3.675,-0.58,-0.146,-57.439,-11.22,52.195,17_10_2.csv
2018-07-12T12:13:55.845571,-0.787,-0.676,0.123,-114.573,-141.281,18.902,17_10_2.csv
2018-07-12T12:13:55.896707,0.542,-0.208,-0.038,52.805,-52.012,-26.585,17_10_2.csv
2018-07-12T12:13:55.937316,0.542,-0.208,-0.038,20.732,-9.451,-11.585,17_10_2.csv
2018-07-12T12:13:55.986447,-0.095,-0.071,-0.119,-47.256,-14.817,-19.573,17_10_2.csv
2018-07-12T12:13:56.032570,-0.095,-0.071,-0.119,-31.098,-7.439,-45.122,17_10_2.csv
2018-07-12T12:13:56.093733,-0.103,0.002,0.032,-0.854,19.024,-44.756,17_10_2.csv
2018-07-12T12:13:56.152389,-1.769,-0.343,0.026,-2.5,58.598,-21.22,17_10_2.csv
2018-07-12T12:13:56.207035,-3.61,-0.696,-0.236,17.988,50.976,75.61,17_10_2.csv
2018-07-12T12:13:56.256166,-3.61,-0.696,-0.236,10.366,43.11,99.085,17_10_2.csv
2018-07-12T12:13:56.316326,-1.277,-0.778,0.194,-89.146,-12.012,99.939,17_10_2.csv
2018-07-12T12:13:56.401228,0.61,-0.421,0.139,101.829,-17.5,-20.732,17_10_2.csv
2018-07-12T12:13:56.459382,0.024,-0.182,0.027,37.927,-16.463,-18.354,17_10_2.csv
2018-07-12T12:13:56.519543,0.024,-0.182,0.027,5.244,-15.793,-42.866,17_10_2.csv
2018-07-12T12:13:56.563159,-0.085,-0.123,0.016,55.427,-20.549,-78.415,17_10_2.csv
2018-07-12T12:13:56.609282,-1.757,-0.456,-0.102,-23.354,15.061,-88.72,17_10_2.csv
2018-07-12T12:13:56.657410,-1.757,-0.456,-0.102,-66.768,50.305,-74.451,17_10_2.csv
2018-07-12T12:13:56.705039,-3.669,-0.742,-0.05,-47.927,-20.183,-16.707,17_10_2.csv
2018-07-12T12:13:56.753165,-3.669,-0.742,-0.05,2.256,-18.171,29.756,17_10_2.csv
2018-07-12T12:13:56.826862,-0.808,-0.265,0.704,-224.573,-118.232,71.829,17_10_2.csv
2018-07-12T12:13:56.876494,0.29,-0.292,0.127,-148.415,-93.11,9.939,17_10_2.csv
2018-07-12T12:13:56.923619,0.066,-0.12,-0.698,-42.622,-79.756,4.878,17_10_2.csv
2018-07-12T12:13:56.973252,0.066,-0.12,-0.698,-115.915,-58.78,-22.195,17_10_2.csv
2018-07-12T12:13:57.020878,0.104,-0.155,-0.888,47.927,6.829,-24.939,17_10_2.csv
2018-07-12T12:13:57.063492,0.104,-0.155,-0.888,88.537,125.061,-12.012,17_10_2.csv
2018-07-12T12:13:57.118138,-2.093,-1.083,0.112,-14.207,222.683,-6.037,17_10_2.csv
2018-07-12T12:13:57.172282,-4.084,0.073,-0.007,735.0,247.561,95.427,17_10_2.csv
2018-07-12T12:13:57.217403,-4.084,0.073,-0.007,100.122,-46.037,81.524,17_10_2.csv
2018-07-12T12:13:57.267536,-0.524,-0.335,-0.071,-462.805,-154.451,-2.561,17_10_2.csv
2018-07-12T12:13:57.315163,-0.524,-0.335,-0.071,-22.012,-105.976,38.415,17_10_2.csv
2018-07-12T12:13:57.359782,0.475,-0.072,-0.087,181.403,-34.451,29.451,17_10_2.csv
2018-07-12T12:13:57.448017,-0.037,-0.022,-0.084,-29.817,0.915,-20.915,17_10_2.csv
2018-07-12T12:13:57.500156,-0.146,-0.003,0.082,29.207,12.256,-15.0,17_10_2.csv
2018-07-12T12:13:57.562823,-0.146,-0.003,0.082,-21.951,33.415,-7.012,17_10_2.csv
2018-07-12T12:13:57.614460,-2.445,-0.476,-0.018,-35.61,38.537,33.232,17_10_2.csv
2018-07-12T12:13:57.680135,-3.496,-0.466,0.387,26.098,9.207,52.683,17_10_2.csv
2018-07-12T12:13:57.762356,-0.41,-0.964,-0.091,-490.183,-207.378,-11.646,17_10_2.csv
2018-07-12T12:13:57.822514,0.222,0.081,-0.452,252.927,-30.244,-47.378,17_10_2.csv
2018-07-12T12:13:57.876158,0.222,0.081,-0.452,100.854,17.256,-51.768,17_10_2.csv
2018-07-12T12:13:57.920777,-0.078,0.585,0.024,20.671,14.939,-25.488,17_10_2.csv
2018-07-12T12:13:57.990463,-0.232,0.362,0.178,24.085,24.756,38.598,17_10_2.csv
2018-07-12T12:13:58.048618,-0.232,0.362,0.178,-78.415,39.39,80.732,17_10_2.csv
2018-07-12T12:13:58.096245,-2.873,-0.848,0.075,-6.89,47.744,27.378,17_10_2.csv
2018-07-12T12:13:58.139861,-2.997,-1.158,0.433,95.488,54.939,42.805,17_10_2.csv
2018-07-12T12:13:58.192000,-2.997,-1.158,0.433,-76.037,2.622,1.341,17_10_2.csv
2018-07-12T12:13:58.235115,0.113,-0.448,0.227,-23.598,-53.11,-46.28,17_10_2.csv
2018-07-12T12:13:58.282742,0.113,-0.448,0.227,216.403,-49.146,-61.098,17_10_2.csv
2018-07-12T12:13:58.339393,0.076,0.224,-0.256,52.927,-1.28,-76.341,17_10_2.csv
2018-07-12T12:13:58.390529,-0.059,0.168,-0.278,49.085,10.549,-75.244,17_10_2.csv
2018-07-12T12:13:58.438657,-0.059,0.168,-0.278,64.878,17.134,-70.0,17_10_2.csv
2018-07-12T12:13:58.502828,-0.431,0.02,0.084,22.5,79.268,-34.634,17_10_2.csv
2018-07-12T12:13:58.558978,-3.291,-0.537,-0.211,-13.841,94.878,-11.707,17_10_2.csv
2018-07-12T12:13:58.612120,-2.833,-0.42,0.225,12.012,45.183,30.854,17_10_2.csv
2018-07-12T12:13:58.661251,-2.833,-0.42,0.225,-62.439,25.732,85.61,17_10_2.csv
2018-07-12T12:13:58.708877,0.082,-0.752,0.432,-259.329,-85.244,80.61,17_10_2.csv
2018-07-12T12:13:58.758510,0.082,-0.752,0.432,-81.951,-88.232,16.402,17_10_2.csv
2018-07-12T12:13:58.834713,0.247,-0.265,-0.124,41.646,-41.524,-8.354,17_10_2.csv
2018-07-12T12:13:58.897380,0.126,0.013,-0.37,32.927,-11.707,-52.073,17_10_2.csv
2018-07-12T12:13:58.975588,-0.406,-0.105,-0.357,-158.842,47.378,-50.793,17_10_2.csv
2018-07-12T12:13:59.020208,-3.353,-1.077,0.55,2.134,94.573,11.402,17_10_2.csv
2018-07-12T12:13:59.241959,0.348,-0.277,-0.062,-55.488,-84.146,-60.0,17_10_2.csv
2018-07-12T12:13:59.281063,0.141,0.095,-0.117,162.744,5.549,-41.829,17_10_2.csv
2018-07-12T12:13:59.330198,0.141,0.095,-0.117,99.695,4.573,-22.805,17_10_2.csv
2018-07-12T12:13:59.382338,-0.097,0.105,-0.125,-41.951,6.28,-37.805,17_10_2.csv
2018-07-12T12:13:59.441122,-0.296,-0.254,-0.284,-14.634,43.11,-18.659,17_10_2.csv
2018-07-12T12:13:59.490253,-0.296,-0.254,-0.284,-9.39,82.378,-4.817,17_10_2.csv
2018-07-12T12:13:59.535380,-2.708,-1.353,-0.194,-10.732,155.0,7.622,17_10_2.csv
2018-07-12T12:13:59.579497,-3.034,-0.605,0.066,371.524,163.659,113.232,17_10_2.csv
2018-07-12T12:13:59.631638,-3.034,-0.605,0.066,-27.012,-44.268,66.463,17_10_2.csv
2018-07-12T12:13:59.683777,0.068,0.07,0.196,-335.793,-181.707,-14.329,17_10_2.csv
2018-07-12T12:13:59.736417,0.068,0.07,0.196,-260.0,-163.537,-91.585,17_10_2.csv
2018-07-12T12:13:59.785048,0.264,0.134,-0.253,-168.232,-26.402,-60.61,17_10_2.csv
2018-07-12T12:13:59.831170,-0.05,0.106,-0.26,-83.232,-72.5,-18.049,17_10_2.csv
2018-07-12T12:13:59.878296,-0.05,0.106,-0.26,-10.854,-37.073,6.037,17_10_2.csv
2018-07-12T12:13:59.940963,-0.632,-0.354,0.14,-20.061,95.915,27.683,17_10_2.csv
2018-07-12T12:14:00.014659,-3.302,-1.291,-0.078,-14.695,94.024,40.183,17_10_2.csv
2018-07-12T12:14:00.078830,-2.388,-1.263,-0.42,60.732,-84.024,164.329,17_10_2.csv
2018-07-12T12:14:00.124953,-2.388,-1.263,-0.42,-75.976,-126.037,99.329,17_10_2.csv
2018-07-12T12:14:00.173583,0.637,-0.547,-0.132,-136.89,-131.829,2.805,17_10_2.csv
2018-07-12T12:14:00.254298,0.244,-0.193,-0.212,68.232,23.049,-19.573,17_10_2.csv
2018-07-12T12:14:00.296911,0.244,-0.193,-0.212,15.915,-25.0,-32.683,17_10_2.csv
2018-07-12T12:14:00.355568,-0.172,0.002,-0.191,112.744,60.305,-110.549,17_10_2.csv
2018-07-12T12:14:00.423248,-0.7,-0.219,0.127,68.415,66.585,-101.951,17_10_2.csv
2018-07-12T12:14:00.530035,-3.297,-1.105,0.031,122.5,138.476,49.878,17_10_2.csv
2018-07-12T12:14:00.596215,-2.252,-0.803,0.585,-40.122,39.207,106.402,17_10_2.csv
2018-07-12T12:14:00.642842,0.326,-0.253,0.309,12.073,-106.463,18.963,17_10_2.csv
2018-07-12T12:14:00.687962,0.326,-0.253,0.309,-40.793,-103.049,-49.939,17_10_2.csv
2018-07-12T12:14:00.748376,0.087,-0.009,-0.21,-64.329,-52.134,-35.305,17_10_2.csv
2018-07-12T12:14:00.813047,-0.013,0.05,-0.093,-22.927,-36.402,-41.768,17_10_2.csv
2018-07-12T12:14:00.863181,-0.709,-0.204,-0.108,-42.927,13.293,-31.341,17_10_2.csv
2018-07-12T12:14:00.909805,-0.709,-0.204,-0.108,-81.524,41.037,-5.549,17_10_2.csv
2018-07-12T12:14:00.961442,-3.358,-1.229,-0.336,-67.195,54.39,66.159,17_10_2.csv
2018-07-12T12:14:01.002051,-3.358,-1.229,-0.336,40.732,78.963,135.793,17_10_2.csv
2018-07-12T12:14:01.065720,-2.505,-1.17,0.296,-6.829,-45.488,62.317,17_10_2.csv
2018-07-12T12:14:01.129891,0.492,-0.354,0.339,-96.951,-124.756,-13.598,17_10_2.csv
2018-07-12T12:14:01.192057,0.068,0.17,-0.178,70.488,-27.439,-51.22,17_10_2.csv
2018-07-12T12:14:01.242191,0.068,0.17,-0.178,35.976,-24.39,-35.183,17_10_2.csv
2018-07-12T12:14:01.288815,0.005,0.268,-0.23,7.622,2.012,-22.988,17_10_2.csv
2018-07-12T12:14:01.345967,-0.451,-0.162,0.042,34.085,37.317,7.439,17_10_2.csv
2018-07-12T12:14:01.395099,-0.451,-0.162,0.042,26.524,78.659,20.0,17_10_2.csv
2018-07-12T12:14:01.458768,-3.178,-0.999,-0.082,66.402,155.976,56.28,17_10_2.csv
2018-07-12T12:14:01.506395,-2.828,-0.693,-0.085,139.695,69.695,91.22,17_10_2.csv
2018-07-12T12:14:01.553019,-2.828,-0.693,-0.085,-10.0,-22.378,36.341,17_10_2.csv
2018-07-12T12:14:01.594630,0.185,-0.288,0.366,-92.073,-107.927,-8.415,17_10_2.csv
2018-07-12T12:14:01.644262,0.185,-0.288,0.366,45.854,-51.829,-53.11,17_10_2.csv
2018-07-12T12:14:01.696902,0.156,0.134,-0.083,82.256,1.524,-53.537,17_10_2.csv
2018-07-12T12:14:01.755559,-0.117,0.126,0.048,-20.427,-18.232,-46.28,17_10_2.csv
2018-07-12T12:14:01.854824,-0.244,-0.033,0.224,-52.439,-7.256,-34.634,17_10_2.csv
2018-07-12T12:14:01.907965,-0.244,-0.033,0.224,-77.073,-6.524,-32.317,17_10_2.csv
2018-07-12T12:14:01.952584,-2.794,-0.524,-0.359,-44.573,28.476,32.317,17_10_2.csv
2018-07-12T12:14:02.003219,-3.44,-0.757,-0.141,31.159,-6.28,113.659,17_10_2.csv
2018-07-12T12:14:02.068894,-3.44,-0.757,-0.141,-30.976,1.89,121.402,17_10_2.csv
2018-07-12T12:14:02.124542,-0.376,-0.635,0.313,-340.488,-184.817,-30.488,17_10_2.csv
2018-07-12T12:14:02.173673,0.578,-0.46,-0.079,-154.451,-77.073,-73.11,17_10_2.csv
2018-07-12T12:14:02.224308,0.578,-0.46,-0.079,68.293,1.768,-71.829,17_10_2.csv
2018-07-12T12:14:02.266420,-0.128,-0.206,-0.045,116.159,-14.512,-33.415,17_10_2.csv
2018-07-12T12:14:02.313546,0.008,-0.101,-0.021,-8.537,-29.39,-50.0,17_10_2.csv
2018-07-12T12:14:02.370197,0.008,-0.101,-0.021,-2.439,-10.854,-65.976,17_10_2.csv
2018-07-12T12:14:02.422336,-1.891,-0.626,-0.459,0.61,39.695,-65.183,17_10_2.csv
2018-07-12T12:14:02.469963,-1.891,-0.626,-0.459,35.0,97.439,-16.585,17_10_2.csv
2018-07-12T12:14:02.516587,-3.519,-0.93,-0.34,1.707,99.146,102.256,17_10_2.csv
2018-07-12T12:14:02.561707,-0.733,-0.69,0.575,57.683,99.634,105.976,17_10_2.csv
2018-07-12T12:14:02.610337,-0.733,-0.69,0.575,117.866,22.317,49.573,17_10_2.csv
2018-07-12T12:14:02.662476,0.271,-0.23,0.788,202.378,184.39,5.61,17_10_2.csv
2018-07-12T12:14:02.722135,0.025,0.456,0.088,281.585,-32.927,-4.329,17_10_2.csv
2018-07-12T12:14:02.769260,0.025,0.456,0.088,-109.817,-51.646,12.927,17_10_2.csv
2018-07-12T12:14:02.829922,-0.021,-0.226,-0.109,-168.049,-23.171,4.878,17_10_2.csv
2018-07-12T12:14:02.883565,-1.857,-0.438,-0.047,-4.573,-19.146,-24.146,17_10_2.csv
2018-07-12T12:14:02.937710,-1.857,-0.438,-0.047,-70.122,-14.268,-5.976,17_10_2.csv
2018-07-12T12:14:02.984835,-3.883,-0.744,-0.034,-93.963,-24.39,21.463,17_10_2.csv
2018-07-12T12:14:03.032462,-3.883,-0.744,-0.034,-90.366,17.012,59.451,17_10_2.csv
2018-07-12T12:14:03.076580,-1.307,-0.606,0.113,-163.72,-122.195,7.073,17_10_2.csv
2018-07-12T12:14:03.124206,0.674,-0.254,-0.03,5.366,-90.244,-28.293,17_10_2.csv
2018-07-12T12:14:03.738863,0.025,0.049,-0.178,-0.366,-35.427,-18.902,17_10_2.csv
2018-07-12T12:14:03.805045,-0.003,0.001,-0.138,16.037,10.976,-36.585,17_10_2.csv
2018-07-12T12:14:03.861194,-1.015,-0.459,-0.109,28.902,36.463,-27.439,17_10_2.csv
2018-07-12T12:14:03.908325,-1.015,-0.459,-0.109,4.146,81.341,-6.098,17_10_2.csv
2018-07-12T12:14:03.954448,-3.639,-0.967,-0.543,21.037,92.683,39.634,17_10_2.csv
2018-07-12T12:14:04.002077,-2.084,-0.629,0.325,41.524,56.402,48.354,17_10_2.csv
2018-07-12T12:14:04.061235,-2.084,-0.629,0.325,-96.402,-40.366,38.11,17_10_2.csv
2018-07-12T12:14:04.111369,0.531,-0.262,0.284,-107.866,-94.146,1.098,17_10_2.csv
2018-07-12T12:14:04.156489,0.531,-0.262,0.284,75.61,-33.171,-24.512,17_10_2.csv
2018-07-12T12:14:04.204115,0.05,0.053,-0.016,47.805,-35.305,-10.0,17_10_2.csv
2018-07-12T12:14:04.252244,0.0,0.059,-0.042,-56.098,-45.488,-22.683,17_10_2.csv
2018-07-12T12:14:04.312406,0.0,0.059,-0.042,-45.976,-22.744,-31.585,17_10_2.csv
2018-07-12T12:14:04.369559,-0.537,-0.277,-0.064,0.305,62.195,-11.585,17_10_2.csv
2018-07-12T12:14:04.438244,-3.395,-0.806,-0.558,46.829,111.463,53.78,17_10_2.csv
2018-07-12T12:14:04.485871,-2.758,-0.693,-0.07,-4.939,19.146,63.72,17_10_2.csv
2018-07-12T12:14:04.576613,0.297,-0.429,0.504,-77.805,-60.976,32.195,17_10_2.csv
2018-07-12T12:14:04.624741,0.297,-0.429,0.504,-19.024,-43.476,-15.122,17_10_2.csv
2018-07-12T12:14:04.671394,0.212,-0.013,0.058,120.244,19.39,-22.683,17_10_2.csv
2018-07-12T12:14:04.720525,0.212,-0.013,0.058,58.902,-10.854,-23.354,17_10_2.csv
2018-07-12T12:14:04.764647,-0.14,0.494,-0.042,-125.305,-69.39,-80.061,17_10_2.csv
2018-07-12T12:14:04.811772,-0.169,0.084,0.012,-36.341,-36.402,-6.707,17_10_2.csv
2018-07-12T12:14:04.860799,-0.169,0.084,0.012,-35.0,6.28,77.683,17_10_2.csv
2018-07-12T12:14:04.903885,-2.775,-0.937,-0.566,-180.061,55.732,71.341,17_10_2.csv
2018-07-12T12:14:04.953021,-2.775,-0.937,-0.566,-128.537,48.659,54.573,17_10_2.csv
2018-07-12T12:14:05.006163,-3.294,-0.968,-0.281,122.073,96.402,22.622,17_10_2.csv
2018-07-12T12:14:05.094401,-0.433,-0.299,0.715,40.0,-79.39,-17.134,17_10_2.csv
2018-07-12T12:14:05.159581,0.391,0.119,0.076,104.512,-63.659,-30.0,17_10_2.csv
2018-07-12T12:14:05.207710,-0.039,-0.133,-0.192,-143.232,-78.598,-62.317,17_10_2.csv
2018-07-12T12:14:05.256844,-0.039,-0.133,-0.192,-114.268,-50.671,-83.232,17_10_2.csv
2018-07-12T12:14:05.302967,0.046,-0.112,-0.023,21.707,-9.024,-65.793,17_10_2.csv
2018-07-12T12:14:05.350095,0.046,-0.112,-0.023,38.11,26.768,-46.341,17_10_2.csv
2018-07-12T12:14:05.412263,-2.121,-0.693,-0.476,42.866,157.378,21.89,17_10_2.csv
2018-07-12T12:14:05.453377,-3.721,-0.879,-0.53,58.537,61.28,90.488,17_10_2.csv
2018-07-12T12:14:05.501506,-3.721,-0.879,-0.53,69.939,58.049,99.939,17_10_2.csv
2018-07-12T12:14:05.557659,-0.441,-0.745,0.797,3.841,-8.11,98.293,17_10_2.csv
2018-07-12T12:14:05.609798,0.508,-0.249,0.078,111.829,-38.476,-40.488,17_10_2.csv
2018-07-12T12:14:05.656426,0.508,-0.249,0.078,182.561,-20.793,0.732,17_10_2.csv
2018-07-12T12:14:05.704554,-0.07,0.011,-0.184,11.707,-41.585,-2.195,17_10_2.csv
2018-07-12T12:14:05.752181,-0.07,0.011,-0.184,-61.524,-24.878,-48.963,17_10_2.csv
2018-07-12T12:14:05.798805,-0.076,-0.113,0.044,-6.341,-6.463,-62.317,17_10_2.csv
2018-07-12T12:14:05.849942,-3.524,-0.666,-0.487,-14.573,78.659,-62.805,17_10_2.csv
2018-07-12T12:14:05.932664,-3.524,-0.666,-0.487,138.902,42.988,75.427,17_10_2.csv
2018-07-12T12:14:05.983800,-3.524,-0.666,-0.487,75.061,37.866,85.976,17_10_2.csv
2018-07-12T12:14:06.031429,-0.838,-0.394,0.347,-44.207,-20.427,82.439,17_10_2.csv
2018-07-12T12:14:06.078055,-0.838,-0.394,0.347,-192.317,-94.756,46.707,17_10_2.csv
2018-07-12T12:14:06.127189,0.58,-0.425,0.22,-70.976,-52.012,-4.146,17_10_2.csv
2018-07-12T12:14:06.185345,0.005,-0.14,-0.055,39.573,-29.512,-4.512,17_10_2.csv
2018-07-12T12:14:06.255033,-0.042,-0.241,0.376,-10.61,-30.305,-57.073,17_10_2.csv
2018-07-12T12:14:06.304164,-0.042,-0.241,0.376,66.829,-9.268,-76.585,17_10_2.csv
2018-07-12T12:14:06.360313,-2.051,-0.708,0.075,138.049,45.854,-54.207,17_10_2.csv
2018-07-12T12:14:06.411951,-2.051,-0.708,0.075,214.39,122.317,42.5,17_10_2.csv
2018-07-12T12:14:06.467600,-3.422,-0.234,-0.703,-177.134,-103.11,-5.061,17_10_2.csv
2018-07-12T12:14:06.524250,-0.91,-0.333,0.028,-96.646,5.122,23.78,17_10_2.csv
2018-07-12T12:14:06.584411,0.619,-0.829,0.009,-236.524,-12.073,60.976,17_10_2.csv
2018-07-12T12:14:06.628529,0.619,-0.829,0.009,-26.28,34.146,30.854,17_10_2.csv
2018-07-12T12:14:06.672646,-0.059,-0.632,0.287,45.183,45.244,-19.939,17_10_2.csv
2018-07-12T12:14:06.737319,-0.124,-0.141,0.385,175.366,63.049,-85.854,17_10_2.csv
2018-07-12T12:14:06.781937,-0.124,-0.141,0.385,105.366,43.963,-105.732,17_10_2.csv
2018-07-12T12:14:06.828061,-1.331,-0.614,0.043,57.866,51.402,-92.744,17_10_2.csv
2018-07-12T12:14:06.877191,-1.331,-0.614,0.043,175.854,138.354,14.268,17_10_2.csv
2018-07-12T12:14:06.920807,-3.633,-0.522,-0.722,396.524,60.671,153.781,17_10_2.csv
2018-07-12T12:14:06.968936,-3.633,-0.522,-0.722,251.707,-35.061,148.781,17_10_2.csv
2018-07-12T12:14:07.025085,-1.862,-0.036,-0.04,-169.756,-40.61,-15.0,17_10_2.csv
2018-07-12T12:14:07.079731,0.338,-0.099,-0.245,-359.573,-68.659,-22.5,17_10_2.csv
2018-07-12T12:14:07.131369,0.338,-0.099,-0.245,-459.024,-40.305,-93.11,17_10_2.csv
2018-07-12T12:14:07.188521,0.561,-0.167,-0.283,-50.427,-14.939,-16.707,17_10_2.csv
2018-07-12T12:14:07.303828,-0.817,-0.835,0.148,87.012,48.171,36.159,17_10_2.csv
2018-07-12T12:14:07.344937,-0.817,-0.835,0.148,203.232,121.524,47.561,17_10_2.csv
2018-07-12T12:14:07.397077,-3.371,-1.093,-0.593,245.671,118.049,105.671,17_10_2.csv
2018-07-12T12:14:07.456736,-3.371,-1.093,-0.593,246.159,36.951,62.744,17_10_2.csv
2018-07-12T12:14:07.499349,-2.701,-0.141,-0.502,-103.232,-71.524,-75.793,17_10_2.csv
2018-07-12T12:14:07.553494,0.001,-0.008,-0.1,-197.805,-82.439,-23.171,17_10_2.csv
2018-07-12T12:14:07.594603,0.001,-0.008,-0.1,-253.842,-122.866,14.451,17_10_2.csv
2018-07-12T12:14:07.643734,0.632,-0.49,0.262,-153.415,-29.146,0.793,17_10_2.csv
2018-07-12T12:14:07.711414,-0.181,-0.219,0.003,118.537,12.195,9.756,17_10_2.csv
2018-07-12T12:14:07.766060,-0.181,-0.219,0.003,121.89,8.415,-1.646,17_10_2.csv
2018-07-12T12:14:07.812684,-0.028,-0.162,0.148,54.939,14.573,-36.098,17_10_2.csv
2018-07-12T12:14:07.875352,-2.529,-0.829,-0.322,91.28,77.134,6.768,17_10_2.csv
2018-07-12T12:14:07.939522,-3.26,-0.51,-0.52,175.0,63.72,99.512,17_10_2.csv
2018-07-12T12:14:08.001187,-3.26,-0.51,-0.52,-154.512,-8.78,-46.951,17_10_2.csv
2018-07-12T12:14:08.066361,-0.589,-0.253,0.1,-94.695,-80.793,55.244,17_10_2.csv
2018-07-12T12:14:08.130532,0.524,-0.324,0.263,-146.524,-48.415,16.22,17_10_2.csv
2018-07-12T12:14:08.196207,-0.096,-0.319,0.082,9.878,-20.0,-16.098,17_10_2.csv
2018-07-12T12:14:08.273914,-0.081,-0.215,0.065,1.646,-20.488,-49.024,17_10_2.csv
2018-07-12T12:14:08.315524,-0.081,-0.215,0.065,15.061,0.305,-63.293,17_10_2.csv
2018-07-12T12:14:08.362149,-2.158,-0.735,-0.478,51.402,50.732,-52.744,17_10_2.csv
2018-07-12T12:14:08.408773,-2.158,-0.735,-0.478,100.915,97.073,59.512,17_10_2.csv
2018-07-12T12:14:08.460912,-3.318,-0.76,-0.61,31.463,-0.671,125.061,17_10_2.csv
2018-07-12T12:14:08.526587,-0.677,-0.601,0.725,6.707,49.573,21.585,17_10_2.csv
2018-07-12T12:14:08.578726,-0.677,-0.601,0.725,-21.768,-51.402,8.11,17_10_2.csv
2018-07-12T12:14:08.683006,-0.021,0.105,-0.332,95.793,-12.378,-14.39,17_10_2.csv
2018-07-12T12:14:08.738657,-0.021,0.105,-0.332,-4.207,-15.427,-42.378,17_10_2.csv
2018-07-12T12:14:08.786286,0.019,-0.032,-0.135,-85.183,10.61,-71.646,17_10_2.csv
2018-07-12T12:14:08.830907,-2.266,-0.791,-0.232,-85.427,77.439,-65.0,17_10_2.csv
2018-07-12T12:14:08.919142,-3.563,-0.597,-0.244,28.232,5.183,57.927,17_10_2.csv
2018-07-12T12:14:08.973287,-3.563,-0.597,-0.244,-17.256,39.939,58.902,17_10_2.csv
2018-07-12T12:14:09.030941,-0.603,-0.412,0.18,-173.293,-115.427,33.415,17_10_2.csv
2018-07-12T12:14:09.079570,0.654,-0.334,-0.051,-88.415,-70.427,-15.61,17_10_2.csv
2018-07-12T12:14:09.124189,0.654,-0.334,-0.051,16.646,2.317,-19.817,17_10_2.csv
2018-07-12T12:14:09.172819,-0.006,-0.384,-0.036,-11.524,-6.829,-18.476,17_10_2.csv
2018-07-12T12:14:09.238493,-0.177,-0.29,0.109,12.683,9.573,-61.159,17_10_2.csv
2018-07-12T12:14:09.303667,-0.177,-0.29,0.109,32.622,21.768,-78.659,17_10_2.csv
2018-07-12T12:14:09.344777,-2.266,-0.61,-0.405,18.72,72.256,-70.549,17_10_2.csv
2018-07-12T12:14:09.395913,-3.269,-0.799,-0.345,-5.61,-15.976,55.793,17_10_2.csv
2018-07-12T12:14:09.446047,-3.269,-0.799,-0.345,-42.561,-1.89,105.732,17_10_2.csv
2018-07-12T12:14:09.491167,-0.583,-0.48,-0.013,-52.073,-40.366,97.378,17_10_2.csv
2018-07-12T12:14:09.551828,0.593,-0.328,0.011,-33.11,-27.256,1.098,17_10_2.csv
2018-07-12T12:14:09.595445,0.593,-0.328,0.011,13.659,3.78,-15.61,17_10_2.csv
2018-07-12T12:14:09.640064,0.078,-0.297,0.039,4.756,-2.5,-17.805,17_10_2.csv
2018-07-12T12:14:09.701728,0.078,-0.297,0.039,-4.634,16.829,-36.463,17_10_2.csv
2018-07-12T12:14:09.754882,-0.11,-0.245,0.081,44.573,39.878,-69.268,17_10_2.csv
2018-07-12T12:14:09.803512,-2.049,-0.811,-0.406,53.11,69.878,-50.061,17_10_2.csv
2018-07-12T12:14:09.857155,-2.049,-0.811,-0.406,107.439,105.0,36.159,17_10_2.csv
2018-07-12T12:14:09.909795,-3.383,-0.571,-0.686,31.22,1.89,2.805,17_10_2.csv
2018-07-12T12:14:09.960931,-1.177,-0.353,-0.059,-21.707,-9.39,9.024,17_10_2.csv
2018-07-12T12:14:10.288897,-1.439,-0.224,-0.172,-47.927,28.598,-49.39,17_10_2.csv
2018-07-12T12:14:10.344046,-1.439,-0.224,-0.172,3.659,109.756,8.171,17_10_2.csv
2018-07-12T12:14:10.389669,-3.498,-0.708,-0.656,62.866,65.915,115.305,17_10_2.csv
2018-07-12T12:14:10.442811,-1.519,-0.473,0.03,-10.305,3.232,120.488,17_10_2.csv
2018-07-12T12:14:10.505478,-1.519,-0.473,0.03,-150.183,-90.915,66.22,17_10_2.csv
2018-07-12T12:14:10.551601,0.628,-0.651,0.136,-185.671,-64.329,24.207,17_10_2.csv
2018-07-12T12:14:10.597724,0.125,-0.394,0.015,92.195,17.744,2.378,17_10_2.csv
2018-07-12T12:14:10.642844,0.125,-0.394,0.015,30.244,9.451,-12.5,17_10_2.csv
2018-07-12T12:14:10.689970,-0.092,-0.187,0.177,25.915,4.512,-42.744,17_10_2.csv
2018-07-12T12:14:10.748626,-0.092,-0.187,0.177,55.976,4.39,-62.622,17_10_2.csv
2018-07-12T12:14:10.803272,-1.328,-0.413,-0.038,48.293,87.744,-22.378,17_10_2.csv
2018-07-12T12:14:10.845384,-3.518,-0.426,-0.616,82.012,52.317,-6.463,17_10_2.csv
2018-07-12T12:14:10.894515,-3.518,-0.426,-0.616,23.902,-43.72,-29.451,17_10_2.csv
2018-07-12T12:14:10.937630,-2.039,-0.099,0.037,-45.183,-39.695,-25.915,17_10_2.csv
2018-07-12T12:14:10.989768,-2.039,-0.099,0.037,-174.207,-106.524,15.305,17_10_2.csv
2018-07-12T12:14:11.043913,0.396,-0.299,0.104,1.22,-94.695,-6.646,17_10_2.csv
2018-07-12T12:14:11.095050,0.012,-0.151,-0.18,21.524,-36.037,-20.122,17_10_2.csv
2018-07-12T12:14:11.140671,0.012,-0.151,-0.18,-97.073,-72.439,-40.244,17_10_2.csv
2018-07-12T12:14:11.189300,-0.021,-0.097,0.055,-61.524,-36.463,-45.915,17_10_2.csv
2018-07-12T12:14:11.236426,-0.661,-0.18,-0.383,130.732,63.963,28.659,17_10_2.csv
2018-07-12T12:14:11.282048,-0.661,-0.18,-0.383,279.329,182.256,123.293,17_10_2.csv
2018-07-12T12:14:11.388832,-3.531,0.013,-0.265,54.085,67.622,23.415,17_10_2.csv
2018-07-12T12:14:11.443478,-2.296,-0.679,0.892,-139.085,-33.354,31.22,17_10_2.csv
2018-07-12T12:14:11.489100,0.346,-0.158,-0.032,168.354,-82.256,11.829,17_10_2.csv
2018-07-12T12:14:11.539236,0.346,-0.158,-0.032,100.549,-86.402,-41.89,17_10_2.csv
2018-07-12T12:14:11.595385,0.086,-0.083,-0.055,-87.134,-19.329,-58.354,17_10_2.csv
2018-07-12T12:14:11.645522,-0.144,-0.086,0.132,-30.305,-26.037,-59.573,17_10_2.csv
2018-07-12T12:14:11.699165,-0.144,-0.086,0.132,19.817,-14.939,-64.146,17_10_2.csv
2018-07-12T12:14:11.751304,-0.771,0.097,0.032,-14.329,-7.5,-55.549,17_10_2.csv
2018-07-12T12:14:11.797426,-0.771,0.097,0.032,-77.927,60.671,-23.841,17_10_2.csv
2018-07-12T12:14:11.846056,-3.792,-0.525,-0.576,-88.293,6.707,88.049,17_10_2.csv
2018-07-12T12:14:11.891176,-1.91,-0.535,0.297,-56.524,15.427,102.744,17_10_2.csv
2018-07-12T12:14:11.937801,-1.91,-0.535,0.297,-182.195,-49.817,87.073,17_10_2.csv
2018-07-12T12:14:11.997961,0.523,-0.59,0.164,-229.634,-83.11,14.878,17_10_2.csv
2018-07-12T12:14:12.079679,0.066,-0.667,-0.096,54.573,-24.634,6.28,17_10_2.csv
2018-07-12T12:14:12.126804,0.061,-0.433,0.055,27.439,-25.122,-75.183,17_10_2.csv
2018-07-12T12:14:12.174431,0.061,-0.433,0.055,92.927,25.793,-90.0,17_10_2.csv
2018-07-12T12:14:12.230581,-1.354,-0.956,0.044,185.976,60.122,-61.463,17_10_2.csv
2018-07-12T12:14:12.282720,-3.366,-0.776,-0.455,338.049,71.707,-37.012,17_10_2.csv
2018-07-12T12:14:12.328341,-3.366,-0.776,-0.455,195.854,-11.89,-57.622,17_10_2.csv
2018-07-12T12:14:12.376973,-1.702,-0.211,0.025,44.939,-49.878,-79.817,17_10_2.csv
2018-07-12T12:14:12.426606,-1.702,-0.211,0.025,50.488,-15.854,-87.195,17_10_2.csv
2018-07-12T12:14:12.490776,0.248,0.383,0.188,68.049,21.037,-57.683,17_10_2.csv
2018-07-12T12:14:12.542920,-0.096,0.484,-0.193,-28.902,45.854,-24.268,17_10_2.csv
2018-07-12T12:14:12.593053,-0.096,0.484,-0.193,-94.329,0.976,-5.793,17_10_2.csv
2018-07-12T12:14:12.640182,-0.281,0.496,0.082,-138.781,-26.768,-8.354,17_10_2.csv
2018-07-12T12:14:12.717925,-1.464,0.1,0.144,-184.329,-41.28,54.939,17_10_2.csv
2018-07-12T12:14:12.827720,-3.981,-0.472,0.299,-120.122,-70.122,237.378,17_10_2.csv
2018-07-12T12:14:12.874846,-1.809,-1.135,0.029,-268.963,22.988,161.402,17_10_2.csv
2018-07-12T12:14:12.953558,0.603,-0.86,-0.045,59.817,-22.378,65.854,17_10_2.csv
2018-07-12T12:14:13.007201,0.111,-0.906,-0.142,-29.634,3.415,2.927,17_10_2.csv
2018-07-12T12:14:13.082902,0.111,-0.906,-0.142,69.451,-9.695,-61.646,17_10_2.csv
2018-07-12T12:14:13.156599,-0.131,-0.588,0.024,45.122,19.451,-130.244,17_10_2.csv
2018-07-12T12:14:13.204226,-1.866,-0.573,-0.171,87.439,58.293,-165.122,17_10_2.csv
2018-07-12T12:14:13.258871,-3.569,-0.354,-0.268,184.573,44.146,-144.329,17_10_2.csv
2018-07-12T12:14:13.317027,-3.569,-0.354,-0.268,126.463,45.0,-80.061,17_10_2.csv
2018-07-12T12:14:13.379693,-1.358,-0.055,0.792,-133.902,-0.732,45.122,17_10_2.csv
2018-07-12T12:14:13.423811,0.289,-0.185,0.37,58.415,-14.451,26.463,17_10_2.csv
2018-07-12T12:14:13.470936,0.289,-0.185,0.37,155.061,-20.915,10.61,17_10_2.csv
2018-07-12T12:14:13.531598,-0.083,0.077,-0.156,13.963,-82.622,-3.476,17_10_2.csv
2018-07-12T12:14:13.579225,-0.151,0.656,-0.572,177.683,-16.037,40.0,17_10_2.csv
2018-07-12T12:14:13.625849,-0.151,0.656,-0.572,198.293,39.329,93.537,17_10_2.csv
2018-07-12T12:14:13.688015,-1.77,0.376,-0.77,-144.268,172.561,124.512,17_10_2.csv
2018-07-12T12:14:13.750181,-3.785,-0.64,-0.74,-360.244,209.085,110.305,17_10_2.csv
2018-07-12T12:14:13.797808,-3.785,-0.64,-0.74,-601.159,168.171,51.951,17_10_2.csv
2018-07-12T12:14:13.845435,-1.417,-1.464,-0.379,-501.829,81.402,-49.878,17_10_2.csv
2018-07-12T12:14:13.893563,0.391,-0.766,0.716,-58.963,10.671,-51.463,17_10_2.csv
2018-07-12T12:14:13.954225,0.391,-0.766,0.716,190.183,26.951,-27.561,17_10_2.csv
2018-07-12T12:14:14.001852,-0.342,0.12,0.212,231.098,-15.488,11.037,17_10_2.csv
2018-07-12T12:14:14.073543,-0.075,0.116,0.154,253.659,-67.683,20.61,17_10_2.csv
2018-07-12T12:14:14.205902,-1.444,-0.535,-0.28,-72.622,54.695,-57.561,17_10_2.csv
2018-07-12T12:14:14.252528,-3.598,-0.504,-0.759,-39.451,-91.707,-151.707,17_10_2.csv
2018-07-12T12:14:14.302663,-1.244,-0.074,0.227,-16.646,23.537,-73.902,17_10_2.csv
2018-07-12T12:14:14.345780,-1.244,-0.074,0.227,48.963,-33.11,6.28,17_10_2.csv
2018-07-12T12:14:14.390900,0.359,0.252,0.378,17.378,-68.232,-7.805,17_10_2.csv
2018-07-12T12:14:14.456076,-0.12,0.095,0.527,-47.683,-48.72,-28.293,17_10_2.csv
2018-07-12T12:14:14.516237,-0.12,0.095,0.527,-82.805,-74.817,4.329,17_10_2.csv
2018-07-12T12:14:14.562861,-0.567,-0.47,0.872,-117.134,-108.781,19.695,17_10_2.csv
2018-07-12T12:14:14.612493,-0.567,-0.47,0.872,-86.22,-140.0,-26.28,17_10_2.csv
2018-07-12T12:14:14.657113,-2.208,-1.029,0.917,-9.573,-265.183,-136.159,17_10_2.csv
2018-07-12T12:14:14.704739,-2.318,-1.525,1.03,15.549,-221.159,-124.024,17_10_2.csv
2018-07-12T12:14:14.756878,-2.318,-1.525,1.03,88.72,-149.878,-158.902,17_10_2.csv
2018-07-12T12:14:14.828068,-0.236,-1.256,1.046,125.0,-132.073,-186.585,17_10_2.csv
2018-07-12T12:14:14.878703,-0.133,-0.751,0.194,164.207,-181.89,-220.244,17_10_2.csv
2018-07-12T12:14:14.922320,-0.133,-0.751,0.194,149.451,-201.707,-242.5,17_10_2.csv
2018-07-12T12:14:14.969946,-0.607,-0.596,-0.184,126.829,-198.842,-252.988,17_10_2.csv
2018-07-12T12:14:15.018074,-0.403,-0.414,0.0,88.902,-155.427,-264.268,17_10_2.csv
2018-07-12T12:14:15.091771,-0.403,-0.414,0.0,100.305,-105.305,-279.817,17_10_2.csv
2018-07-12T12:14:15.147419,-0.152,0.242,0.559,180.183,18.902,-331.829,17_10_2.csv
2018-07-12T12:14:15.190534,-0.163,1.083,1.064,55.549,20.732,-304.512,17_10_2.csv
2018-07-12T12:14:15.240166,-0.163,1.083,1.064,-71.463,34.939,-281.098,17_10_2.csv
2018-07-12T12:14:15.286289,-0.561,1.013,0.979,-108.781,88.354,-264.878,17_10_2.csv
2018-07-12T12:14:15.343943,-0.803,0.587,0.417,153.963,124.817,-274.756,17_10_2.csv
2018-07-12T12:14:15.399090,-0.803,0.587,0.417,178.476,69.451,-240.0,17_10_2.csv
2018-07-12T12:14:15.532445,-0.594,0.358,0.173,38.72,-35.183,-27.5,17_10_2.csv
2018-07-12T12:14:15.578568,-1.735,0.738,0.336,32.866,-94.756,39.512,17_10_2.csv
2018-07-12T12:14:15.628201,-1.735,0.738,0.336,-41.341,-117.927,84.207,17_10_2.csv
2018-07-12T12:14:15.671817,-1.757,1.206,0.789,-199.451,-93.537,130.061,17_10_2.csv
2018-07-12T12:14:15.727966,-1.757,1.206,0.789,-316.524,6.098,229.573,17_10_2.csv
2018-07-12T12:14:15.786623,-1.031,0.691,1.104,-755.244,5.061,425.915,17_10_2.csv
2018-07-12T12:14:15.846282,0.158,-1.4,-0.146,-882.927,-281.829,300.671,17_10_2.csv
2018-07-12T12:14:15.894911,0.158,-1.4,-0.146,-361.037,-377.805,100.0,17_10_2.csv
2018-07-12T12:14:15.943040,0.579,-0.911,-0.216,-307.683,-155.61,-185.427,17_10_2.csv
2018-07-12T12:14:15.991669,0.299,-0.309,-0.057,-381.707,-25.183,-314.329,17_10_2.csv
2018-07-12T12:14:16.039798,0.299,-0.309,-0.057,-303.476,117.561,-358.049,17_10_2.csv
2018-07-12T12:14:16.097451,0.958,-0.314,0.002,-99.146,80.671,-265.793,17_10_2.csv
2018-07-12T12:14:16.157110,1.386,-1.0,0.438,-145.732,65.061,102.134,17_10_2.csv
2018-07-12T12:14:16.202231,1.386,-1.0,0.438,-169.39,33.78,285.122,17_10_2.csv
2018-07-12T12:14:16.251863,0.492,-1.423,0.308,-153.415,-19.634,219.939,17_10_2.csv
2018-07-12T12:14:16.296482,0.492,-1.423,0.308,-167.805,-59.268,78.293,17_10_2.csv
2018-07-12T12:14:16.347116,0.335,-0.255,0.032,-136.89,-14.329,-53.72,17_10_2.csv
2018-07-12T12:14:16.400760,0.114,-0.153,-0.173,-120.122,34.146,-65.915,17_10_2.csv
2018-07-12T12:14:16.456909,0.114,-0.153,-0.173,-58.232,53.659,-77.439,17_10_2.csv
2018-07-12T12:14:16.502531,0.243,-0.268,-0.304,215.183,96.402,-72.744,17_10_2.csv
2018-07-12T12:14:16.554168,1.425,-0.607,0.055,191.768,44.573,-33.415,17_10_2.csv
2018-07-12T12:14:16.595278,1.425,-0.607,0.055,-0.488,-105.122,13.171,17_10_2.csv
2018-07-12T12:14:16.647417,2.188,-1.779,-0.226,-25.854,-149.573,80.305,17_10_2.csv
2018-07-12T12:14:16.702063,2.188,-1.779,-0.226,106.342,-60.183,88.902,17_10_2.csv
2018-07-12T12:14:16.759215,0.242,-0.89,-0.166,331.829,57.378,-44.39,17_10_2.csv
2018-07-12T12:14:16.838426,-0.454,0.615,0.104,118.842,-43.171,50.183,17_10_2.csv
2018-07-12T12:14:16.895579,-0.177,0.052,-0.124,163.476,-29.451,113.963,17_10_2.csv
2018-07-12T12:14:16.954235,0.489,-1.491,-0.005,-69.207,17.988,62.378,17_10_2.csv
2018-07-12T12:14:17.001360,0.489,-1.491,-0.005,-41.585,29.451,10.366,17_10_2.csv
2018-07-12T12:14:17.055505,1.327,-2.296,0.625,-29.512,13.537,-19.817,17_10_2.csv
2018-07-12T12:14:17.110150,1.449,-2.001,0.583,-14.085,28.78,17.927,17_10_2.csv
2018-07-12T12:14:17.158780,1.449,-2.001,0.583,26.707,115.549,26.463,17_10_2.csv
2018-07-12T12:14:17.211420,-0.022,0.13,-0.035,60.549,186.768,41.951,17_10_2.csv
2018-07-12T12:14:17.269074,-0.058,0.426,-0.043,-30.122,-39.451,-49.695,17_10_2.csv
2018-07-12T12:14:17.313693,-0.058,0.426,-0.043,15.061,-15.183,12.256,17_10_2.csv
2018-07-12T12:14:17.376360,-0.109,0.095,0.073,74.024,29.695,65.854,17_10_2.csv
2018-07-12T12:14:17.442035,-0.215,-0.447,0.47,-91.22,-1.646,69.207,17_10_2.csv
2018-07-12T12:14:17.505705,-0.215,-0.447,0.47,-129.756,-35.366,101.524,17_10_2.csv
2018-07-12T12:14:17.548318,-0.416,-2.312,0.179,130.671,-89.329,255.732,17_10_2.csv
2018-07-12T12:14:17.596446,-0.917,-2.057,1.096,112.256,-70.671,343.415,17_10_2.csv
2018-07-12T12:14:17.640063,-0.917,-2.057,1.096,-83.476,-57.256,347.744,17_10_2.csv
2018-07-12T12:14:17.699722,-0.746,-0.99,-0.25,-231.098,-92.073,322.378,17_10_2.csv
