time,accel_x_list,accel_y_list,accel_z_list,gyro_x_list,gyro_y_list,gyro_z_list,filename
2018-07-12T12:00:38.165826,-1.095,-0.424,0.302,93.72,23.476,34.268,17_6_1.csv
2018-07-12T12:00:38.228494,-1.095,-0.424,0.302,39.939,-20.488,-1.951,17_6_1.csv
2018-07-12T12:00:38.274617,-0.879,-0.284,0.254,-58.841,-68.963,-26.524,17_6_1.csv
2018-07-12T12:00:38.322745,-0.879,-0.284,0.254,-90.122,-83.354,-34.268,17_6_1.csv
2018-07-12T12:00:38.369871,-0.956,-0.406,0.088,-73.171,-58.598,1.402,17_6_1.csv
2018-07-12T12:00:38.416997,-0.884,-0.371,0.179,-65.61,-46.037,19.207,17_6_1.csv
2018-07-12T12:00:38.473147,-0.884,-0.371,0.179,-62.5,-39.146,17.256,17_6_1.csv
2018-07-12T12:00:38.528795,-0.807,-0.323,0.187,-128.049,-49.695,22.5,17_6_1.csv
2018-07-12T12:00:38.577427,-0.797,-0.44,0.096,-182.073,-50.183,28.598,17_6_1.csv
2018-07-12T12:00:38.623549,-0.797,-0.44,0.096,-188.049,-39.756,42.5,17_6_1.csv
2018-07-12T12:00:38.670173,-0.868,-0.648,0.135,-126.585,-15.732,64.573,17_6_1.csv
2018-07-12T12:00:38.761918,-1.035,-0.56,0.117,-140.122,-17.195,49.634,17_6_1.csv
2018-07-12T12:00:38.813055,-0.888,-0.843,-0.004,-149.39,-36.951,1.524,17_6_1.csv
2018-07-12T12:00:38.875221,-0.888,-0.843,-0.004,-68.902,-17.866,-16.707,17_6_1.csv
2018-07-12T12:00:38.920843,-0.775,-0.826,0.125,-36.159,-7.622,-17.317,17_6_1.csv
2018-07-12T12:00:38.981003,-0.883,-0.763,0.052,162.012,38.049,15.976,17_6_1.csv
2018-07-12T12:00:39.024119,-0.883,-0.763,0.052,275.854,56.951,25.793,17_6_1.csv
2018-07-12T12:00:39.074253,-1.023,-0.361,0.088,293.72,52.988,7.744,17_6_1.csv
2018-07-12T12:00:39.130904,-0.876,-0.517,0.001,112.134,-0.488,-43.537,17_6_1.csv
2018-07-12T12:00:39.212121,-0.876,-0.517,0.001,-29.634,-23.476,-68.415,17_6_1.csv
2018-07-12T12:00:39.259749,-0.876,-0.517,0.001,-4.329,-12.378,-47.012,17_6_1.csv
2018-07-12T12:00:39.307376,-0.989,-0.705,-0.038,46.159,-1.524,-18.598,17_6_1.csv
2018-07-12T12:00:39.352998,-0.989,-0.705,-0.038,179.817,13.537,4.451,17_6_1.csv
2018-07-12T12:00:39.400625,-0.912,-0.318,0.06,238.232,26.89,-2.866,17_6_1.csv
2018-07-12T12:00:39.457276,-0.877,-0.052,0.242,51.524,9.878,-48.963,17_6_1.csv
2018-07-12T12:00:39.508914,-0.877,-0.052,0.242,-151.646,-15.854,-63.476,17_6_1.csv
2018-07-12T12:00:39.560552,-0.755,-0.274,-0.082,-309.817,-13.78,-50.122,17_6_1.csv
2018-07-12T12:00:39.606675,-0.755,-0.274,-0.082,-232.927,5.244,-4.451,17_6_1.csv
2018-07-12T12:00:39.653300,-0.957,-0.721,0.014,-110.244,6.402,54.268,17_6_1.csv
2018-07-12T12:00:39.696917,-1.097,-0.908,0.395,-77.073,-12.805,73.598,17_6_1.csv
2018-07-12T12:00:39.758581,-1.097,-0.908,0.395,11.341,-24.024,99.695,17_6_1.csv
2018-07-12T12:00:39.812726,-1.075,-0.839,0.141,186.951,14.451,90.732,17_6_1.csv
2018-07-12T12:00:39.860855,-0.894,-0.432,0.277,149.695,-2.256,43.171,17_6_1.csv
2018-07-12T12:00:39.915501,-0.894,-0.432,0.277,62.805,-23.415,-5.793,17_6_1.csv
2018-07-12T12:00:39.974658,-0.813,-0.391,0.118,-51.707,-62.561,-55.732,17_6_1.csv
2018-07-12T12:00:40.043342,-0.996,-0.462,-0.03,-50.488,-76.22,-52.988,17_6_1.csv
2018-07-12T12:00:40.165167,-0.884,-0.482,-0.066,-198.842,-62.256,-94.024,17_6_1.csv
2018-07-12T12:00:40.234853,-0.716,-0.541,-0.02,-46.707,37.134,-53.537,17_6_1.csv
2018-07-12T12:00:40.299025,-0.76,-0.483,0.166,36.463,96.89,22.256,17_6_1.csv
2018-07-12T12:00:40.342642,-0.859,-0.654,0.408,64.451,99.39,46.707,17_6_1.csv
2018-07-12T12:00:40.405810,-0.859,-0.654,0.408,40.488,61.829,31.951,17_6_1.csv
2018-07-12T12:00:40.464968,-0.887,-0.757,0.356,-26.524,-25.488,3.78,17_6_1.csv
2018-07-12T12:00:40.511593,-0.915,-0.602,0.021,-14.939,-25.732,21.28,17_6_1.csv
2018-07-12T12:00:40.561226,-0.915,-0.602,0.021,38.232,-13.293,47.5,17_6_1.csv
2018-07-12T12:00:40.604842,-1.038,-0.631,0.04,57.317,-0.732,66.28,17_6_1.csv
2018-07-12T12:00:40.668011,-0.833,-0.476,0.099,71.098,7.805,43.963,17_6_1.csv
2018-07-12T12:00:40.728673,-0.833,-0.476,0.099,41.463,7.622,14.695,17_6_1.csv
2018-07-12T12:00:40.776300,-0.78,-0.466,0.117,6.524,4.451,-1.159,17_6_1.csv
2018-07-12T12:00:40.827437,-0.883,-0.528,0.067,6.768,1.951,11.463,17_6_1.csv
2018-07-12T12:00:40.874562,-0.883,-0.528,0.067,8.72,6.098,22.073,17_6_1.csv
2018-07-12T12:00:40.937230,-0.981,-0.604,0.036,13.537,14.146,30.183,17_6_1.csv
2018-07-12T12:00:41.005914,-0.951,-0.544,0.106,67.134,39.207,12.866,17_6_1.csv
2018-07-12T12:00:41.078608,-0.83,-0.41,0.12,68.232,34.207,-32.5,17_6_1.csv
2018-07-12T12:00:41.122726,-0.83,-0.41,0.12,45.366,19.512,-43.963,17_6_1.csv
2018-07-12T12:00:41.172860,-0.864,-0.357,0.084,15.61,1.707,-45.427,17_6_1.csv
2018-07-12T12:00:41.229511,-0.894,-0.386,0.078,-70.366,-32.5,-31.402,17_6_1.csv
2018-07-12T12:00:41.294184,-0.894,-0.386,0.078,-95.793,-35.305,-16.707,17_6_1.csv
2018-07-12T12:00:41.337800,-0.892,-0.492,0.167,-121.281,-30.793,-7.988,17_6_1.csv
2018-07-12T12:00:41.395955,-1.063,-0.71,0.168,-82.378,-13.476,27.439,17_6_1.csv
2018-07-12T12:00:41.488202,-1.103,-0.623,0.059,18.293,-16.89,58.841,17_6_1.csv
2018-07-12T12:00:41.545856,-0.828,-0.417,0.076,-30.427,-45.854,0.427,17_6_1.csv
2018-07-12T12:00:41.596492,-0.828,-0.417,0.076,-76.463,-56.524,-36.463,17_6_1.csv
2018-07-12T12:00:41.649132,-0.859,-0.467,-0.03,-122.317,-72.5,-56.463,17_6_1.csv
2018-07-12T12:00:41.697762,-0.859,-0.467,-0.03,-139.024,-74.024,-56.159,17_6_1.csv
2018-07-12T12:00:41.758925,-0.86,-0.541,-0.076,-87.805,-31.463,-13.171,17_6_1.csv
2018-07-12T12:00:41.827609,-0.817,-0.542,0.081,8.415,15.061,10.305,17_6_1.csv
2018-07-12T12:00:41.869220,-0.84,-0.486,0.243,-7.927,-7.317,4.451,17_6_1.csv
2018-07-12T12:00:41.917850,-0.84,-0.486,0.243,-47.622,-32.5,2.805,17_6_1.csv
2018-07-12T12:00:41.963472,-0.76,-0.526,0.015,-5.976,-8.902,17.5,17_6_1.csv
2018-07-12T12:00:42.012603,-0.76,-0.526,0.015,29.573,12.561,32.927,17_6_1.csv
2018-07-12T12:00:42.070758,-0.817,-0.526,0.052,22.744,26.098,29.329,17_6_1.csv
2018-07-12T12:00:42.119890,-0.946,-0.511,0.184,-10.0,18.415,17.561,17_6_1.csv
2018-07-12T12:00:42.165511,-0.946,-0.511,0.184,-98.841,-10.427,-1.037,17_6_1.csv
2018-07-12T12:00:42.213641,-0.954,-0.761,0.081,-127.561,-26.22,-10.122,17_6_1.csv
2018-07-12T12:00:42.259764,-0.954,-0.761,0.081,-51.707,-13.476,1.951,17_6_1.csv
2018-07-12T12:00:42.306389,-1.095,-0.87,0.031,91.768,21.098,24.207,17_6_1.csv
2018-07-12T12:00:42.362036,-0.856,-0.365,0.145,173.842,5.183,16.768,17_6_1.csv
2018-07-12T12:00:42.437739,-0.946,-0.379,0.099,68.171,-13.78,-41.707,17_6_1.csv
2018-07-12T12:00:42.480353,-0.946,-0.379,0.099,0.732,-29.146,-37.683,17_6_1.csv
2018-07-12T12:00:42.525473,-1.168,-0.555,-0.014,14.085,-44.085,-22.439,17_6_1.csv
2018-07-12T12:00:42.573101,-1.168,-0.555,-0.014,-17.439,-59.268,-26.768,17_6_1.csv
2018-07-12T12:00:42.625741,-0.974,-0.397,-0.011,-41.341,-65.915,-43.049,17_6_1.csv
2018-07-12T12:00:42.682894,-0.754,-0.353,0.054,-61.341,-42.683,-77.744,17_6_1.csv
2018-07-12T12:00:42.730521,-0.754,-0.353,0.054,-52.5,-32.256,-66.159,17_6_1.csv
2018-07-12T12:00:42.773135,-0.661,-0.308,0.093,-59.268,-25.366,-32.073,17_6_1.csv
2018-07-12T12:00:42.850843,-0.734,-0.471,0.075,-128.659,-27.134,62.073,17_6_1.csv
2018-07-12T12:00:42.903985,-0.734,-0.471,0.075,-122.317,-26.524,105.488,17_6_1.csv
2018-07-12T12:00:42.946598,-0.958,-0.749,0.081,-88.72,-24.817,133.354,17_6_1.csv
2018-07-12T12:00:42.998237,-1.027,-0.731,0.033,6.585,-12.012,108.232,17_6_1.csv
2018-07-12T12:00:43.056392,-1.027,-0.731,0.033,-38.476,-18.841,62.378,17_6_1.csv
2018-07-12T12:00:43.104019,-0.962,-0.861,0.057,-138.537,-6.463,24.146,17_6_1.csv
2018-07-12T12:00:43.150142,-0.961,-0.88,0.256,-60.915,14.207,9.024,17_6_1.csv
2018-07-12T12:00:43.196266,-0.961,-0.88,0.256,135.061,30.793,16.89,17_6_1.csv
2018-07-12T12:00:43.244394,-1.004,-0.279,0.237,222.683,20.549,2.195,17_6_1.csv
2018-07-12T12:00:43.300545,-1.004,-0.279,0.237,123.232,-14.756,-17.927,17_6_1.csv
2018-07-12T12:00:43.359702,-1.028,-0.245,0.165,-34.634,-90.305,-55.488,17_6_1.csv
2018-07-12T12:00:43.401313,-1.06,-0.436,-0.055,-124.878,-107.012,-77.622,17_6_1.csv
2018-07-12T12:00:43.446935,-1.06,-0.436,-0.055,-184.817,-112.012,-95.549,17_6_1.csv
2018-07-12T12:00:43.494563,-0.906,-0.495,-0.046,-137.744,-95.61,-97.988,17_6_1.csv
2018-07-12T12:00:43.557731,-0.708,-0.343,0.101,-24.939,-27.622,-60.549,17_6_1.csv
2018-07-12T12:00:43.612879,-0.708,-0.343,0.101,-15.122,-3.841,-30.366,17_6_1.csv
2018-07-12T12:00:43.684571,-0.699,-0.379,0.229,-66.28,21.829,45.671,17_6_1.csv
2018-07-12T12:00:43.728186,-0.821,-0.522,0.199,-21.707,30.854,83.78,17_6_1.csv
2018-07-12T12:00:43.779323,-0.821,-0.522,0.199,-76.646,19.817,68.476,17_6_1.csv
2018-07-12T12:00:43.823942,-0.885,-0.995,0.301,-148.659,-37.378,2.622,17_6_1.csv
2018-07-12T12:00:43.868060,-0.885,-0.995,0.301,-142.683,-73.354,-13.72,17_6_1.csv
2018-07-12T12:00:43.921704,-0.793,-0.711,0.078,-52.622,-40.183,33.232,17_6_1.csv
2018-07-12T12:00:43.980360,-0.985,-0.803,-0.029,-2.073,-29.146,61.098,17_6_1.csv
2018-07-12T12:00:44.028489,-0.985,-0.803,-0.029,86.829,-5.122,81.951,17_6_1.csv
2018-07-12T12:00:44.077620,-0.958,-0.588,0.051,143.963,22.5,37.927,17_6_1.csv
2018-07-12T12:00:44.126751,-0.771,-0.397,0.097,77.988,15.793,-3.537,17_6_1.csv
2018-07-12T12:00:44.224513,-0.801,-0.508,0.086,19.085,0.915,-20.549,17_6_1.csv
2018-07-12T12:00:44.290188,-0.998,-0.578,0.033,25.915,-4.146,8.963,17_6_1.csv
2018-07-12T12:00:44.356866,-1.018,-0.531,-0.001,10.305,-16.524,-0.305,17_6_1.csv
2018-07-12T12:00:44.404494,-1.018,-0.531,-0.001,-12.256,-21.89,-35.61,17_6_1.csv
2018-07-12T12:00:44.447609,-0.834,-0.426,0.025,-40.671,-15.732,-66.402,17_6_1.csv
2018-07-12T12:00:44.498244,-0.834,-0.426,0.025,-45.488,-5.976,-73.293,17_6_1.csv
2018-07-12T12:00:44.542863,-0.825,-0.411,0.069,-20.427,5.61,-55.061,17_6_1.csv
2018-07-12T12:00:44.596005,-0.846,-0.37,0.149,-36.707,4.024,-4.329,17_6_1.csv
2018-07-12T12:00:44.669201,-0.846,-0.37,0.149,-74.695,-1.037,14.146,17_6_1.csv
2018-07-12T12:00:44.712316,-0.979,-0.527,0.226,-79.329,-9.329,33.415,17_6_1.csv
2018-07-12T12:00:44.761447,-0.956,-0.578,0.025,-52.988,-44.756,63.232,17_6_1.csv
2018-07-12T12:00:44.808072,-0.956,-0.578,0.025,-29.695,-42.256,64.512,17_6_1.csv
2018-07-12T12:00:44.860712,-1.082,-0.635,-0.013,-111.098,-42.988,44.329,17_6_1.csv
2018-07-12T12:00:44.929897,-0.811,-0.881,-0.08,-224.329,-61.28,-7.317,17_6_1.csv
2018-07-12T12:00:44.998079,-0.811,-0.881,-0.08,-74.207,-24.329,-17.805,17_6_1.csv
2018-07-12T12:00:45.061248,-0.609,-0.619,-0.034,69.756,12.683,-36.402,17_6_1.csv
2018-07-12T12:00:45.113387,-0.898,-0.476,0.022,72.073,-0.915,-25.61,17_6_1.csv
2018-07-12T12:00:45.165527,-1.287,-0.354,0.209,32.134,-22.439,-7.317,17_6_1.csv
2018-07-12T12:00:45.232706,-1.287,-0.354,0.209,71.098,-58.171,1.951,17_6_1.csv
2018-07-12T12:00:45.288856,-0.951,-0.11,0.259,-95.427,-51.037,-42.927,17_6_1.csv
2018-07-12T12:00:45.354031,-0.684,-0.353,0.085,-106.585,-48.72,-19.878,17_6_1.csv
2018-07-12T12:00:45.398650,-0.684,-0.353,0.085,-123.11,-49.39,17.195,17_6_1.csv
2018-07-12T12:00:45.448282,-0.771,-0.525,-0.015,-157.866,-42.256,59.878,17_6_1.csv
2018-07-12T12:00:45.493904,-0.886,-0.648,0.061,-112.927,-27.988,75.183,17_6_1.csv
2018-07-12T12:00:45.579132,-0.923,-0.677,0.172,-96.098,-8.415,37.134,17_6_1.csv
2018-07-12T12:00:45.645309,-0.862,-0.724,0.07,-67.073,-14.878,11.951,17_6_1.csv
2018-07-12T12:00:45.695443,-0.862,-0.724,0.07,-28.598,-2.134,16.829,17_6_1.csv
2018-07-12T12:00:45.743571,-1.046,-0.771,0.064,-7.134,3.476,16.22,17_6_1.csv
2018-07-12T12:00:45.795209,-1.046,-0.771,0.064,-3.598,10.854,9.329,17_6_1.csv
2018-07-12T12:00:45.841332,-1.008,-0.632,0.138,33.659,-5.122,10.183,17_6_1.csv
2018-07-12T12:00:45.888959,-0.809,-0.175,0.183,153.049,0.976,-8.659,17_6_1.csv
2018-07-12T12:00:45.947115,-0.809,-0.175,0.183,10.122,-14.939,-31.646,17_6_1.csv
2018-07-12T12:00:46.009782,-0.969,-0.642,0.03,31.951,-21.89,-23.171,17_6_1.csv
2018-07-12T12:00:46.056908,-1.074,-0.571,0.0,69.817,-20.122,-16.22,17_6_1.csv
2018-07-12T12:00:46.104034,-1.074,-0.571,0.0,47.622,-31.402,-23.598,17_6_1.csv
2018-07-12T12:00:46.149656,-0.984,-0.258,0.116,-4.024,-69.878,-48.72,17_6_1.csv
2018-07-12T12:00:46.199288,-0.984,-0.258,0.116,-104.207,-101.646,-79.695,17_6_1.csv
2018-07-12T12:00:46.257444,-0.755,-0.402,0.126,-115.0,-52.012,-68.902,17_6_1.csv
2018-07-12T12:00:46.325125,-0.662,-0.445,0.174,-13.476,-15.305,23.659,17_6_1.csv
2018-07-12T12:00:46.371749,-0.738,-0.419,0.047,-33.659,-5.61,63.476,17_6_1.csv
2018-07-12T12:00:46.419878,-0.738,-0.419,0.047,-47.5,1.89,95.0,17_6_1.csv
2018-07-12T12:00:46.477031,-0.958,-0.63,-0.013,-42.195,10.854,112.805,17_6_1.csv
2018-07-12T12:00:46.545213,-1.183,-0.756,-0.004,16.646,26.585,96.829,17_6_1.csv
2018-07-12T12:00:46.592840,-1.183,-0.756,-0.004,13.78,30.0,67.317,17_6_1.csv
2018-07-12T12:00:46.653001,-1.065,-0.754,0.075,-31.402,23.78,20.244,17_6_1.csv
2018-07-12T12:00:46.712660,-0.682,-0.624,0.197,6.829,32.134,-3.11,17_6_1.csv
2018-07-12T12:00:46.760789,-0.682,-0.624,0.197,41.585,36.341,-21.829,17_6_1.csv
2018-07-12T12:00:46.807413,-0.905,-0.291,0.273,68.354,30.183,-28.659,17_6_1.csv
2018-07-12T12:00:46.853035,-1.262,-0.172,0.208,10.793,-50.854,-7.622,17_6_1.csv
2018-07-12T12:00:46.949794,-1.017,-0.383,0.049,-72.866,-55.549,-54.146,17_6_1.csv
2018-07-12T12:00:46.996418,-1.017,-0.383,0.049,-34.939,-42.195,-57.195,17_6_1.csv
2018-07-12T12:00:47.055576,-0.811,-0.271,0.075,-32.622,-30.488,-19.939,17_6_1.csv
2018-07-12T12:00:47.106212,-0.798,-0.333,0.122,-77.683,-24.512,-4.146,17_6_1.csv
2018-07-12T12:00:47.153839,-0.798,-0.333,0.122,-136.342,-16.646,6.707,17_6_1.csv
2018-07-12T12:00:47.205978,-0.838,-0.545,0.221,-146.768,-16.524,18.78,17_6_1.csv
2018-07-12T12:00:47.261125,-0.899,-0.7,0.23,-86.646,-29.695,25.732,17_6_1.csv
2018-07-12T12:00:47.314769,-0.899,-0.7,0.23,-60.183,-30.183,18.841,17_6_1.csv
2018-07-12T12:00:47.383452,-1.0,-0.689,0.1,2.744,-5.0,12.378,17_6_1.csv
2018-07-12T12:00:47.446120,-1.085,-0.709,0.008,33.902,3.232,14.207,17_6_1.csv
2018-07-12T12:00:47.494749,-0.804,-0.509,0.071,50.61,-2.073,-15.793,17_6_1.csv
2018-07-12T12:00:47.542377,-0.804,-0.509,0.071,44.695,3.11,-37.683,17_6_1.csv
2018-07-12T12:00:47.587999,-0.806,-0.497,0.028,46.524,8.415,-45.183,17_6_1.csv
2018-07-12T12:00:47.635626,-0.806,-0.497,0.028,55.122,13.171,-35.244,17_6_1.csv
2018-07-12T12:00:47.700299,-0.99,-0.575,-0.011,95.488,15.915,1.098,17_6_1.csv
2018-07-12T12:00:47.779009,-0.954,-0.42,-0.023,26.768,-5.671,-36.463,17_6_1.csv
2018-07-12T12:00:47.824631,-0.801,-0.385,-0.007,-25.122,-7.317,-58.049,17_6_1.csv
2018-07-12T12:00:47.872258,-0.801,-0.385,-0.007,-38.659,0.854,-52.744,17_6_1.csv
2018-07-12T12:00:47.920888,-0.794,-0.479,0.004,-18.415,11.463,-24.939,17_6_1.csv
2018-07-12T12:00:47.979545,-0.807,-0.484,0.022,-8.963,24.695,37.073,17_6_1.csv
2018-07-12T12:00:48.036697,-0.807,-0.484,0.022,-17.073,31.707,60.671,17_6_1.csv
2018-07-12T12:00:48.090341,-0.877,-0.652,0.153,-18.415,35.549,66.402,17_6_1.csv
2018-07-12T12:00:48.144987,-0.936,-0.629,0.237,8.841,35.0,28.659,17_6_1.csv
2018-07-12T12:00:48.209660,-0.936,-0.629,0.237,-7.439,22.988,13.232,17_6_1.csv
2018-07-12T12:00:48.307922,-1.031,-0.664,0.11,-4.695,-13.537,16.524,17_6_1.csv
2018-07-12T12:00:48.353544,-1.031,-0.664,0.11,-1.22,-21.89,13.476,17_6_1.csv
2018-07-12T12:00:48.420222,-0.97,-0.617,0.12,-9.756,-30.122,-17.195,17_6_1.csv
2018-07-12T12:00:48.462335,-0.821,-0.501,0.069,4.329,-27.988,-32.988,17_6_1.csv
2018-07-12T12:00:48.528010,-0.821,-0.501,0.069,9.268,-27.805,-45.366,17_6_1.csv
2018-07-12T12:00:48.587670,-0.854,-0.409,0.035,-17.073,-34.695,-54.451,17_6_1.csv
2018-07-12T12:00:48.659361,-1.009,-0.446,0.015,-14.39,-26.707,-33.963,17_6_1.csv
2018-07-12T12:00:48.713004,-0.869,-0.408,0.145,-27.378,-20.488,-26.22,17_6_1.csv
2018-07-12T12:00:48.758626,-0.869,-0.408,0.145,-53.72,-16.646,-23.293,17_6_1.csv
2018-07-12T12:00:48.830819,-0.761,-0.475,0.185,-50.854,-17.134,9.817,17_6_1.csv
2018-07-12T12:00:48.908527,-0.798,-0.55,0.132,-61.463,-15.793,40.061,17_6_1.csv
2018-07-12T12:00:48.948634,-0.842,-0.618,0.084,-37.622,-7.805,53.659,17_6_1.csv
2018-07-12T12:00:49.010299,-0.842,-0.618,0.084,-3.78,2.988,61.89,17_6_1.csv
2018-07-12T12:00:49.058427,-1.007,-0.491,0.042,4.39,9.451,31.341,17_6_1.csv
2018-07-12T12:00:49.103548,-0.915,-0.417,0.028,-50.854,3.293,7.805,17_6_1.csv
2018-07-12T12:00:49.162706,-0.915,-0.417,0.028,-59.695,5.244,16.159,17_6_1.csv
2018-07-12T12:00:49.229386,-0.869,-0.588,0.083,-45.488,-3.841,72.317,17_6_1.csv
2018-07-12T12:00:49.278515,-1.098,-0.873,0.07,-27.744,-6.89,95.976,17_6_1.csv
2018-07-12T12:00:49.328148,-1.098,-0.873,0.07,-5.976,-16.524,89.695,17_6_1.csv
2018-07-12T12:00:49.377781,-0.881,-0.652,0.1,22.866,-19.39,16.402,17_6_1.csv
2018-07-12T12:00:49.432426,-0.743,-0.551,0.102,24.39,1.22,-79.695,17_6_1.csv
2018-07-12T12:00:49.487574,-0.743,-0.551,0.102,-0.122,-0.305,-90.183,17_6_1.csv
2018-07-12T12:00:49.546732,-0.999,-0.719,-0.015,130.305,15.793,-42.012,17_6_1.csv
2018-07-12T12:00:49.594359,-1.226,-0.542,-0.043,192.622,20.366,-29.451,17_6_1.csv
2018-07-12T12:00:49.713176,-1.021,-0.313,-0.005,23.72,-29.939,-99.024,17_6_1.csv
2018-07-12T12:00:49.761806,-0.76,-0.359,-0.007,-17.988,-31.646,-108.476,17_6_1.csv
2018-07-12T12:00:49.808431,-0.76,-0.359,-0.007,-27.683,-24.146,-94.207,17_6_1.csv
2018-07-12T12:00:49.880122,-0.727,-0.37,-0.015,-37.256,-12.622,-15.854,17_6_1.csv
2018-07-12T12:00:49.931760,-0.747,-0.402,0.058,-88.293,-6.098,19.817,17_6_1.csv
2018-07-12T12:00:49.977884,-0.747,-0.402,0.058,-89.817,-0.549,59.817,17_6_1.csv
2018-07-12T12:00:50.026514,-0.856,-0.569,0.186,-32.683,26.28,128.963,17_6_1.csv
2018-07-12T12:00:50.088178,-1.036,-0.758,0.163,-2.927,17.317,146.22,17_6_1.csv
2018-07-12T12:00:50.151347,-1.118,-0.66,0.066,30.244,11.22,108.72,17_6_1.csv
2018-07-12T12:00:50.205993,-1.118,-0.66,0.066,-3.049,6.951,60.427,17_6_1.csv
2018-07-12T12:00:50.262143,-1.022,-0.61,0.172,-97.378,-6.402,25.549,17_6_1.csv
2018-07-12T12:00:50.321301,-0.807,-0.793,0.092,-133.537,-23.11,3.902,17_6_1.csv
2018-07-12T12:00:50.369430,-0.807,-0.793,0.092,-32.073,-8.902,3.293,17_6_1.csv
2018-07-12T12:00:50.417057,-0.803,-0.614,0.12,42.195,3.354,-8.902,17_6_1.csv
2018-07-12T12:00:50.464183,-0.803,-0.614,0.12,59.207,0.976,-28.537,17_6_1.csv
2018-07-12T12:00:50.510807,-0.945,-0.504,0.114,33.598,-19.024,-68.598,17_6_1.csv
2018-07-12T12:00:50.557432,-1.179,-0.383,0.075,86.585,-17.195,-65.549,17_6_1.csv
2018-07-12T12:00:50.605059,-1.179,-0.383,0.075,126.707,-23.963,-50.061,17_6_1.csv
2018-07-12T12:00:50.652185,-1.145,-0.282,0.079,41.22,-42.744,-60.61,17_6_1.csv
2018-07-12T12:00:50.696303,-1.145,-0.282,0.079,-54.878,-56.28,-88.354,17_6_1.csv
2018-07-12T12:00:50.755461,-0.763,-0.327,0.033,-33.963,-40.061,-66.646,17_6_1.csv
2018-07-12T12:00:50.824646,-0.665,-0.271,0.181,-27.927,-21.89,-24.756,17_6_1.csv
2018-07-12T12:00:50.876284,-0.788,-0.551,0.192,-155.915,0.305,41.829,17_6_1.csv
2018-07-12T12:00:50.922407,-0.788,-0.551,0.192,-152.866,-5.793,69.146,17_6_1.csv
2018-07-12T12:00:50.963517,-0.848,-0.804,0.216,-80.976,-14.024,64.512,17_6_1.csv
2018-07-12T12:00:51.073310,-0.974,-0.428,0.189,-11.951,-5.122,69.39,17_6_1.csv
2018-07-12T12:00:51.139487,-1.023,-0.592,0.055,-98.415,-21.22,28.232,17_6_1.csv
2018-07-12T12:00:51.212181,-0.988,-0.756,0.005,-71.646,-16.89,8.537,17_6_1.csv
2018-07-12T12:00:51.261313,-0.988,-0.756,0.005,-4.695,1.341,17.561,17_6_1.csv
2018-07-12T12:00:51.307937,-0.895,-0.608,0.141,11.159,-0.732,16.098,17_6_1.csv
2018-07-12T12:00:51.356066,-0.891,-0.425,0.122,60.854,-1.098,-17.439,17_6_1.csv
2018-07-12T12:00:51.400685,-0.891,-0.425,0.122,26.646,-10.122,-31.829,17_6_1.csv
2018-07-12T12:00:51.459341,-0.926,-0.491,0.053,8.963,-17.866,-37.744,17_6_1.csv
2018-07-12T12:00:51.528526,-0.981,-0.505,0.016,15.549,-22.622,-31.646,17_6_1.csv
2018-07-12T12:00:51.577157,-0.981,-0.505,0.016,14.085,-27.378,-26.646,17_6_1.csv
2018-07-12T12:00:51.626288,-0.962,-0.418,0.013,-5.915,-34.756,-33.293,17_6_1.csv
2018-07-12T12:00:51.673915,-0.875,-0.377,0.016,-38.354,-35.366,-55.427,17_6_1.csv
2018-07-12T12:00:51.717532,-0.875,-0.377,0.016,-44.817,-32.988,-48.415,17_6_1.csv
2018-07-12T12:00:51.775186,-0.802,-0.344,0.074,-67.195,-33.902,-27.927,17_6_1.csv
2018-07-12T12:00:51.821810,-0.802,-0.344,0.074,-110.122,-39.024,-0.61,17_6_1.csv
2018-07-12T12:00:51.869437,-0.77,-0.461,0.065,-132.439,-42.622,31.829,17_6_1.csv
2018-07-12T12:00:51.917566,-0.821,-0.776,0.086,-110.488,-34.268,107.012,17_6_1.csv
2018-07-12T12:00:51.982741,-0.821,-0.776,0.086,-34.512,-22.378,126.402,17_6_1.csv
2018-07-12T12:00:52.028863,-0.956,-0.759,0.039,26.159,-5.183,96.28,17_6_1.csv
2018-07-12T12:00:52.090027,-1.032,-0.575,0.095,-22.073,1.341,18.11,17_6_1.csv
2018-07-12T12:00:52.149185,-1.032,-0.575,0.095,-101.524,-10.488,-1.707,17_6_1.csv
2018-07-12T12:00:52.196311,-1.016,-0.766,0.167,-149.512,-38.293,-16.646,17_6_1.csv
2018-07-12T12:00:52.245442,-0.787,-0.708,0.164,-52.134,-26.037,-14.207,17_6_1.csv
2018-07-12T12:00:52.291064,-0.787,-0.708,0.164,70.366,-2.317,-8.11,17_6_1.csv
2018-07-12T12:00:52.393337,-0.84,-0.462,0.118,70.488,-7.927,-41.463,17_6_1.csv
2018-07-12T12:00:52.457508,-1.028,-0.469,0.04,34.207,-26.524,-50.793,17_6_1.csv
2018-07-12T12:00:52.509147,-1.089,-0.421,0.022,28.476,-31.951,-50.427,17_6_1.csv
2018-07-12T12:00:52.563291,-0.843,-0.339,0.022,-32.378,-35.549,-68.537,17_6_1.csv
2018-07-12T12:00:52.613425,-0.843,-0.339,0.022,-52.866,-23.415,-65.671,17_6_1.csv
2018-07-12T12:00:52.665063,-0.698,-0.35,0.099,-48.232,-5.427,-45.793,17_6_1.csv
2018-07-12T12:00:52.713693,-0.698,-0.35,0.099,-33.72,11.037,-9.268,17_6_1.csv
2018-07-12T12:00:52.770846,-0.834,-0.607,0.294,-81.524,-7.866,29.634,17_6_1.csv
2018-07-12T12:00:52.843540,-0.829,-0.762,0.107,-65.427,-29.939,23.537,17_6_1.csv
2018-07-12T12:00:52.888660,-0.809,-0.569,0.013,32.927,-4.268,46.585,17_6_1.csv
2018-07-12T12:00:52.939295,-0.809,-0.569,0.013,53.049,0.793,53.902,17_6_1.csv
2018-07-12T12:00:52.993942,-0.858,-0.556,0.093,-17.988,-2.012,40.122,17_6_1.csv
2018-07-12T12:00:53.041068,-0.939,-0.68,0.175,-53.415,-2.927,28.232,17_6_1.csv
2018-07-12T12:00:53.099223,-0.939,-0.68,0.175,-120.976,-26.951,9.024,17_6_1.csv
2018-07-12T12:00:53.150861,-1.009,-0.837,0.013,-96.463,-37.866,14.878,17_6_1.csv
2018-07-12T12:00:53.197987,-1.009,-0.837,0.013,21.524,-28.11,35.549,17_6_1.csv
2018-07-12T12:00:53.246617,-0.863,-0.551,-0.002,82.012,-1.22,-5.122,17_6_1.csv
2018-07-12T12:00:53.294745,-0.867,-0.43,0.045,43.72,-6.341,-27.683,17_6_1.csv
2018-07-12T12:00:53.341370,-0.867,-0.43,0.045,1.768,-15.427,-28.659,17_6_1.csv
2018-07-12T12:00:53.400528,-0.891,-0.448,0.032,-2.195,-21.159,-18.11,17_6_1.csv
2018-07-12T12:00:53.461691,-0.958,-0.415,0.02,-11.098,-24.878,-11.159,17_6_1.csv
2018-07-12T12:00:53.509318,-0.958,-0.415,0.02,-40.61,-29.268,-3.354,17_6_1.csv
2018-07-12T12:00:53.556946,-0.977,-0.435,0.009,-42.439,-31.951,6.646,17_6_1.csv
2018-07-12T12:00:53.603069,-0.856,-0.442,0.053,-79.817,-26.037,6.829,17_6_1.csv
2018-07-12T12:00:53.649693,-0.856,-0.442,0.053,-78.659,-25.854,14.878,17_6_1.csv
2018-07-12T12:00:53.762495,-0.784,-0.525,0.025,-49.878,-24.024,44.146,17_6_1.csv
2018-07-12T12:00:53.829173,-0.849,-0.585,0.056,69.268,15.854,84.146,17_6_1.csv
2018-07-12T12:00:53.877803,-0.95,-0.5,0.133,-3.598,12.805,62.256,17_6_1.csv
2018-07-12T12:00:53.933953,-1.023,-0.645,0.115,-80.305,2.195,20.61,17_6_1.csv
2018-07-12T12:00:53.977068,-1.023,-0.645,0.115,-90.305,-5.427,3.537,17_6_1.csv
2018-07-12T12:00:54.024697,-1.0,-0.6,0.206,-77.866,-8.841,-20.976,17_6_1.csv
2018-07-12T12:00:54.077837,-1.0,-0.6,0.206,-29.756,-7.988,-31.951,17_6_1.csv
2018-07-12T12:00:54.153540,-0.979,-0.118,0.293,-0.122,-50.427,-14.085,17_6_1.csv
2018-07-12T12:00:54.203673,-0.951,-0.241,0.137,-89.146,-59.146,-33.11,17_6_1.csv
2018-07-12T12:00:54.247791,-1.023,-0.393,0.099,-67.378,-29.451,-32.683,17_6_1.csv
2018-07-12T12:00:54.297424,-1.023,-0.393,0.099,-3.598,-13.659,-7.317,17_6_1.csv
2018-07-12T12:00:54.337531,-0.918,-0.327,0.164,-47.683,-19.817,-6.402,17_6_1.csv
2018-07-12T12:00:54.469383,-0.873,-0.383,0.111,-114.512,-28.476,4.207,17_6_1.csv
2018-07-12T12:00:54.530045,-0.868,-0.565,0.113,-90.915,-13.476,13.537,17_6_1.csv
2018-07-12T12:00:54.588201,-0.84,-0.59,0.183,-24.817,-0.183,21.341,17_6_1.csv
2018-07-12T12:00:54.653375,-0.912,-0.57,0.237,-38.963,-3.537,12.439,17_6_1.csv
2018-07-12T12:00:54.700501,-0.912,-0.57,0.237,-66.524,-16.829,1.463,17_6_1.csv
2018-07-12T12:00:54.745622,-0.936,-0.675,0.146,-60.61,-20.427,-9.634,17_6_1.csv
2018-07-12T12:00:54.812300,-1.019,-0.571,0.116,27.744,1.707,-11.89,17_6_1.csv
2018-07-12T12:00:54.869452,-1.019,-0.571,0.116,36.463,3.293,-3.78,17_6_1.csv
2018-07-12T12:00:54.916578,-0.964,-0.536,0.029,55.183,-9.695,7.866,17_6_1.csv
2018-07-12T12:00:54.964206,-0.964,-0.536,0.029,59.451,-2.744,-12.378,17_6_1.csv
2018-07-12T12:00:55.010329,-0.797,-0.476,0.036,38.537,8.415,-37.988,17_6_1.csv
2018-07-12T12:00:55.054947,-0.872,-0.521,-0.005,47.622,7.134,-34.024,17_6_1.csv
2018-07-12T12:00:55.139674,-1.09,-0.492,-0.01,75.793,2.805,5.915,17_6_1.csv
2018-07-12T12:00:55.230417,-0.879,-0.343,0.048,-17.744,-18.963,-26.524,17_6_1.csv
2018-07-12T12:00:55.276540,-0.879,-0.343,0.048,-61.159,-11.768,-48.293,17_6_1.csv
2018-07-12T12:00:55.324669,-0.731,-0.48,0.023,-49.573,1.402,-39.085,17_6_1.csv
2018-07-12T12:00:55.377811,-0.768,-0.526,0.004,-21.098,19.817,13.963,17_6_1.csv
2018-07-12T12:00:55.432958,-0.768,-0.526,0.004,-47.988,22.195,48.963,17_6_1.csv
2018-07-12T12:00:55.483593,-0.847,-0.931,0.225,-21.829,32.622,73.963,17_6_1.csv
2018-07-12T12:00:55.544756,-0.913,-0.507,0.263,150.061,58.049,7.5,17_6_1.csv
2018-07-12T12:00:55.611936,-0.913,-0.507,0.263,120.244,41.951,-5.976,17_6_1.csv
2018-07-12T12:00:55.670091,-0.947,-0.346,0.147,-64.39,-25.854,-12.073,17_6_1.csv
2018-07-12T12:00:55.712705,-1.034,-0.638,0.19,-115.671,-44.573,-11.28,17_6_1.csv
2018-07-12T12:00:55.758327,-1.034,-0.638,0.19,-110.732,-47.134,0.854,17_6_1.csv
2018-07-12T12:00:55.820495,-0.943,-0.795,0.106,63.11,-7.256,28.415,17_6_1.csv
2018-07-12T12:00:55.869123,-0.84,-0.513,0.081,101.646,-0.366,11.89,17_6_1.csv
2018-07-12T12:00:55.918756,-0.84,-0.513,0.081,90.915,-7.988,-7.5,17_6_1.csv
2018-07-12T12:00:55.979920,-0.877,-0.379,0.052,-19.512,-46.037,-35.427,17_6_1.csv
2018-07-12T12:00:56.027547,-1.0,-0.437,-0.034,-59.817,-58.902,-41.28,17_6_1.csv
2018-07-12T12:00:56.076177,-1.0,-0.437,-0.034,-88.72,-62.378,-44.634,17_6_1.csv
2018-07-12T12:00:56.129819,-0.873,-0.407,0.029,-94.146,-54.817,-39.756,17_6_1.csv
2018-07-12T12:00:56.180956,-0.683,-0.581,0.221,-128.171,-11.524,-14.939,17_6_1.csv
2018-07-12T12:00:56.228583,-0.683,-0.581,0.221,-87.073,-2.561,9.695,17_6_1.csv
2018-07-12T12:00:56.276211,-0.763,-0.782,0.272,-62.5,-19.146,6.951,17_6_1.csv
2018-07-12T12:00:56.321833,-0.763,-0.782,0.272,-35.0,-28.659,5.366,17_6_1.csv
2018-07-12T12:00:56.369460,-0.777,-0.552,0.074,-10.305,-18.171,18.232,17_6_1.csv
2018-07-12T12:00:56.424106,-0.828,-0.501,0.029,-3.415,4.146,37.5,17_6_1.csv
2018-07-12T12:00:56.539414,-0.869,-0.628,0.175,-69.878,-10.549,30.427,17_6_1.csv
2018-07-12T12:00:56.589548,-0.867,-0.747,0.12,-98.476,-21.037,30.427,17_6_1.csv
2018-07-12T12:00:56.634167,-0.867,-0.747,0.12,-48.598,-16.829,48.902,17_6_1.csv
2018-07-12T12:00:56.696834,-1.025,-0.904,-0.054,41.28,14.146,58.78,17_6_1.csv
2018-07-12T12:00:56.744963,-0.895,-0.495,0.146,103.902,14.695,10.305,17_6_1.csv
2018-07-12T12:00:56.797604,-0.895,-0.495,0.146,85.976,9.146,-7.744,17_6_1.csv
2018-07-12T12:00:56.857764,-0.845,-0.455,0.093,70.854,-0.671,-14.756,17_6_1.csv
2018-07-12T12:00:56.901882,-0.919,-0.632,-0.002,22.012,-6.22,-28.841,17_6_1.csv
2018-07-12T12:00:56.951014,-0.919,-0.632,-0.002,67.012,2.561,-19.39,17_6_1.csv
2018-07-12T12:00:56.996134,-1.004,-0.547,-0.034,75.793,2.134,-19.451,17_6_1.csv
2018-07-12T12:00:57.041255,-1.004,-0.547,-0.034,62.744,-5.549,-32.988,17_6_1.csv
2018-07-12T12:00:57.097405,-0.891,-0.39,-0.013,28.049,-13.902,-55.427,17_6_1.csv
2018-07-12T12:00:57.166589,-0.789,-0.386,-0.007,-31.159,-13.659,-78.476,17_6_1.csv
2018-07-12T12:00:57.230260,-0.768,-0.391,0.075,-35.671,0.854,-29.39,17_6_1.csv
2018-07-12T12:00:57.275380,-0.768,-0.391,0.075,-72.012,5.732,7.439,17_6_1.csv
2018-07-12T12:00:57.326015,-0.827,-0.511,0.188,-65.793,13.415,45.427,17_6_1.csv
2018-07-12T12:00:57.372640,-0.827,-0.511,0.188,-42.073,20.488,74.634,17_6_1.csv
2018-07-12T12:00:57.426283,-0.978,-0.641,0.162,8.049,3.598,103.537,17_6_1.csv
2018-07-12T12:00:57.494967,-1.05,-0.606,0.024,31.341,1.951,101.707,17_6_1.csv
2018-07-12T12:00:57.540589,-1.05,-0.606,0.024,-0.976,-5.0,80.183,17_6_1.csv
2018-07-12T12:00:57.591224,-1.085,-0.684,0.158,-106.159,-31.22,30.183,17_6_1.csv
2018-07-12T12:00:57.634840,-0.851,-0.772,0.112,-94.207,-36.037,11.646,17_6_1.csv
2018-07-12T12:00:57.682969,-0.851,-0.772,0.112,-37.378,-29.756,-10.366,17_6_1.csv
2018-07-12T12:00:57.732100,-0.735,-0.546,0.06,3.415,-23.171,-34.207,17_6_1.csv
2018-07-12T12:00:57.791760,-0.951,-0.508,-0.005,-23.598,-34.268,-60.366,17_6_1.csv
2018-07-12T12:00:57.910076,-1.117,-0.198,0.253,79.39,-23.415,-17.866,17_6_1.csv
2018-07-12T12:00:57.963719,-0.909,-0.211,0.226,-22.134,-23.963,-30.0,17_6_1.csv
2018-07-12T12:00:58.009341,-0.909,-0.211,0.226,-60.793,-2.195,-24.329,17_6_1.csv
2018-07-12T12:00:58.055965,-0.758,-0.516,0.021,-48.72,9.207,-2.012,17_6_1.csv
2018-07-12T12:00:58.131668,-0.799,-0.529,0.087,-8.902,19.207,42.012,17_6_1.csv
2018-07-12T12:00:58.180799,-0.799,-0.529,0.087,-11.829,20.61,43.171,17_6_1.csv
2018-07-12T12:00:58.227925,-0.915,-0.544,0.169,-60.061,14.268,13.659,17_6_1.csv
2018-07-12T12:00:58.280566,-0.916,-0.649,0.187,-77.073,2.195,0.183,17_6_1.csv
2018-07-12T12:00:58.325686,-0.916,-0.649,0.187,-46.951,-3.232,-4.695,17_6_1.csv
2018-07-12T12:00:58.370305,-0.895,-0.669,0.111,-23.963,-5.549,-5.854,17_6_1.csv
2018-07-12T12:00:58.437485,-1.061,-0.771,0.007,34.146,11.585,8.72,17_6_1.csv
2018-07-12T12:00:58.494638,-1.061,-0.771,0.007,87.256,25.61,15.0,17_6_1.csv
2018-07-12T12:00:58.540761,-0.946,-0.438,0.108,156.342,19.024,13.537,17_6_1.csv
2018-07-12T12:00:58.591398,-0.909,-0.396,0.096,57.805,-4.451,-43.293,17_6_1.csv
2018-07-12T12:00:58.640527,-0.909,-0.396,0.096,25.915,-15.427,-43.232,17_6_1.csv
2018-07-12T12:00:58.684144,-1.026,-0.501,-0.021,32.622,-27.5,-31.22,17_6_1.csv
2018-07-12T12:00:58.741798,-1.026,-0.501,-0.021,10.0,-38.537,-25.183,17_6_1.csv
2018-07-12T12:00:58.790428,-0.979,-0.405,-0.108,-60.366,-48.598,-49.39,17_6_1.csv
2018-07-12T12:00:58.838556,-0.842,-0.359,0.006,-67.622,-32.561,-66.159,17_6_1.csv
2018-07-12T12:00:58.895208,-0.842,-0.359,0.006,-59.329,-15.549,-60.244,17_6_1.csv
2018-07-12T12:00:58.946344,-0.743,-0.361,0.152,-69.573,-8.415,-32.744,17_6_1.csv
2018-07-12T12:00:58.994473,-0.79,-0.462,0.172,-98.476,-23.78,50.793,17_6_1.csv
2018-07-12T12:00:59.058644,-0.79,-0.462,0.172,-103.537,-35.793,85.366,17_6_1.csv
2018-07-12T12:00:59.124822,-0.931,-0.647,0.03,-24.39,-32.622,135.61,17_6_1.csv
2018-07-12T12:00:59.220577,-1.086,-0.68,0.105,-32.622,-29.329,76.037,17_6_1.csv
2018-07-12T12:00:59.276727,-1.022,-0.682,0.078,-104.573,-31.159,14.268,17_6_1.csv
2018-07-12T12:00:59.321848,-0.892,-0.702,-0.017,-45.427,-13.415,21.341,17_6_1.csv
2018-07-12T12:00:59.367971,-0.892,-0.702,-0.017,-33.841,-9.329,16.341,17_6_1.csv
2018-07-12T12:00:59.426628,-0.743,-0.544,-0.096,-66.585,-9.573,-7.683,17_6_1.csv
2018-07-12T12:00:59.478767,-1.089,-0.184,0.079,-109.512,1.707,-74.756,17_6_1.csv
2018-07-12T12:00:59.524389,-1.089,-0.184,0.079,9.817,-7.439,-54.268,17_6_1.csv
2018-07-12T12:00:59.577030,-1.258,0.201,0.299,-140.854,-121.951,5.061,17_6_1.csv
2018-07-12T12:00:59.624657,-1.258,0.201,0.299,-344.085,-90.915,-22.927,17_6_1.csv
2018-07-12T12:00:59.664764,-0.799,-0.715,-0.138,-139.146,-18.537,-26.89,17_6_1.csv
2018-07-12T12:00:59.719410,-0.831,-0.375,0.038,52.073,10.915,21.341,17_6_1.csv
2018-07-12T12:00:59.775059,-0.831,-0.375,0.038,-64.146,-3.293,15.183,17_6_1.csv
2018-07-12T12:00:59.827699,-0.903,-0.541,0.062,-68.902,-4.146,17.134,17_6_1.csv
2018-07-12T12:00:59.870313,-0.903,-0.541,0.062,6.707,6.829,14.817,17_6_1.csv
2018-07-12T12:00:59.917439,-0.933,-0.478,0.124,0.854,-10.61,2.012,17_6_1.csv
2018-07-12T12:00:59.962058,-0.861,-0.471,0.101,24.878,-4.634,5.61,17_6_1.csv
2018-07-12T12:01:00.025728,-0.861,-0.471,0.101,33.354,9.634,6.768,17_6_1.csv
2018-07-12T12:01:00.072353,-0.965,-0.492,0.116,15.854,5.183,5.671,17_6_1.csv
2018-07-12T12:01:00.119479,-1.018,-0.44,0.108,5.61,-11.159,-6.28,17_6_1.csv
2018-07-12T12:01:00.168109,-1.018,-0.44,0.108,-12.805,-14.024,-11.463,17_6_1.csv
2018-07-12T12:01:00.211725,-1.064,-0.531,0.111,-35.0,-15.0,-11.646,17_6_1.csv
2018-07-12T12:01:00.260857,-1.064,-0.531,0.111,-17.927,-12.866,-8.11,17_6_1.csv
2018-07-12T12:01:00.323524,-0.943,-0.49,0.106,42.561,-11.89,-6.28,17_6_1.csv
2018-07-12T12:01:00.394213,-0.848,-0.424,0.095,23.354,-4.878,-9.268,17_6_1.csv
2018-07-12T12:01:00.445850,-0.856,-0.602,0.034,15.671,3.293,-16.768,17_6_1.csv
2018-07-12T12:01:00.495483,-0.856,-0.602,0.034,70.732,11.585,-12.561,17_6_1.csv
2018-07-12T12:01:00.572689,-1.033,-0.575,-0.006,93.902,-1.707,-13.72,17_6_1.csv
2018-07-12T12:01:00.620317,-0.914,-0.383,0.002,46.89,-18.963,-38.963,17_6_1.csv
2018-07-12T12:01:00.677469,-0.812,-0.427,-0.001,-43.171,-28.232,-69.451,17_6_1.csv
2018-07-12T12:01:00.727604,-0.812,-0.427,-0.001,-42.073,-20.122,-59.573,17_6_1.csv
2018-07-12T12:01:00.774729,-0.823,-0.409,0.021,-22.317,-9.817,-38.049,17_6_1.csv
2018-07-12T12:01:00.822858,-0.823,-0.409,0.021,-22.988,-2.317,-13.902,17_6_1.csv
2018-07-12T12:01:00.869983,-0.827,-0.423,0.113,-66.768,1.402,8.841,17_6_1.csv
2018-07-12T12:01:00.915606,-0.827,-0.423,0.113,-65.854,3.11,29.939,17_6_1.csv
2018-07-12T12:01:00.972257,-0.881,-0.479,0.128,-74.329,5.122,63.598,17_6_1.csv
2018-07-12T12:01:01.027905,-1.11,-0.75,0.103,-78.659,-4.39,95.671,17_6_1.csv
2018-07-12T12:01:01.071522,-1.11,-0.75,0.103,-47.683,-12.744,120.366,17_6_1.csv
2018-07-12T12:01:01.125166,-1.252,-1.004,0.119,42.683,-20.0,56.524,17_6_1.csv
2018-07-12T12:01:01.185827,-0.877,-0.484,0.167,74.268,-13.72,-0.244,17_6_1.csv
2018-07-12T12:01:01.243983,-0.783,-0.345,0.07,-32.256,-45.0,-92.866,17_6_1.csv
2018-07-12T12:01:01.296122,-0.783,-0.345,0.07,-70.976,-60.366,-116.646,17_6_1.csv
2018-07-12T12:01:01.355280,-0.947,-0.44,-0.043,-71.646,-68.476,-113.049,17_6_1.csv
2018-07-12T12:01:01.400902,-0.947,-0.44,-0.043,-76.524,-63.232,-95.793,17_6_1.csv
2018-07-12T12:01:01.451538,-0.869,-0.417,0.111,39.146,7.927,-38.232,17_6_1.csv
2018-07-12T12:01:01.493650,-0.82,-0.272,0.219,58.659,44.451,-8.232,17_6_1.csv
2018-07-12T12:01:01.545789,-0.82,-0.272,0.219,39.634,50.122,11.829,17_6_1.csv
2018-07-12T12:01:01.606953,-0.849,-0.396,0.273,-124.573,-9.512,33.78,17_6_1.csv
2018-07-12T12:01:01.665610,-0.822,-0.792,0.243,-116.402,-46.159,18.537,17_6_1.csv
2018-07-12T12:01:01.711732,-0.822,-0.792,0.243,-100.427,-64.268,8.293,17_6_1.csv
2018-07-12T12:01:01.761365,-0.783,-0.609,0.105,-76.463,-57.622,18.11,17_6_1.csv
2018-07-12T12:01:01.805984,-0.872,-0.583,0.124,-33.902,-29.39,33.232,17_6_1.csv
2018-07-12T12:01:01.853612,-0.872,-0.583,0.124,-77.866,-34.024,13.476,17_6_1.csv
2018-07-12T12:01:01.937838,-1.033,-0.735,0.126,-60.366,-29.146,14.573,17_6_1.csv
2018-07-12T12:01:01.994488,-1.014,-0.791,0.057,-27.622,-28.354,28.72,17_6_1.csv
2018-07-12T12:01:02.041112,-1.014,-0.791,0.057,31.768,-25.305,24.939,17_6_1.csv
2018-07-12T12:01:02.089241,-0.75,-0.449,0.054,57.439,0.122,-20.915,17_6_1.csv
2018-07-12T12:01:02.133359,-0.885,-0.416,0.01,4.573,-11.829,-29.939,17_6_1.csv
2018-07-12T12:01:02.181488,-0.885,-0.416,0.01,-70.61,-31.646,-31.951,17_6_1.csv
2018-07-12T12:01:02.240144,-0.966,-0.567,-0.052,-82.439,-43.171,-25.305,17_6_1.csv
2018-07-12T12:01:02.294291,-0.923,-0.48,-0.067,-36.768,-45.488,-24.207,17_6_1.csv
2018-07-12T12:01:02.339911,-0.923,-0.48,-0.067,-38.049,-39.329,-27.805,17_6_1.csv
2018-07-12T12:01:02.385533,-0.804,-0.392,0.042,-46.28,-29.939,-26.463,17_6_1.csv
2018-07-12T12:01:02.433160,-0.804,-0.392,0.042,-64.756,-24.512,-14.512,17_6_1.csv
2018-07-12T12:01:02.493822,-0.72,-0.447,0.022,-83.598,-22.927,47.805,17_6_1.csv
2018-07-12T12:01:02.552980,-0.802,-0.598,0.041,-79.451,-22.317,84.085,17_6_1.csv
2018-07-12T12:01:02.604618,-0.802,-0.598,0.041,-73.78,-16.585,107.256,17_6_1.csv
2018-07-12T12:01:02.650741,-0.93,-0.744,0.06,-29.451,1.585,65.488,17_6_1.csv
2018-07-12T12:01:02.696865,-1.009,-0.662,0.099,-36.22,0.854,32.683,17_6_1.csv
2018-07-12T12:01:02.742486,-1.009,-0.662,0.099,-91.768,-12.866,13.171,17_6_1.csv
2018-07-12T12:01:02.790114,-1.089,-0.778,0.065,-110.183,-21.159,9.268,17_6_1.csv
2018-07-12T12:01:02.842754,-1.089,-0.778,0.065,-93.293,-28.476,9.451,17_6_1.csv
2018-07-12T12:01:02.899907,-0.905,-0.727,0.009,-35.061,-22.744,-18.841,17_6_1.csv
2018-07-12T12:01:02.951545,-0.935,-0.483,-0.026,57.866,1.463,-44.573,17_6_1.csv
2018-07-12T12:01:02.996164,-0.935,-0.483,-0.026,58.841,-7.378,-81.402,17_6_1.csv
2018-07-12T12:01:03.047300,-1.102,-0.16,0.011,74.085,-30.976,-84.39,17_6_1.csv
2018-07-12T12:01:03.089914,-1.102,-0.16,0.011,23.963,-52.866,-78.354,17_6_1.csv
2018-07-12T12:01:03.150075,-0.915,-0.232,0.106,-88.476,-55.61,-43.963,17_6_1.csv
2018-07-12T12:01:03.212241,-0.777,-0.407,0.071,-93.659,-36.159,-1.524,17_6_1.csv
2018-07-12T12:01:03.304989,-0.773,-0.525,0.021,-71.829,-16.707,40.915,17_6_1.csv
2018-07-12T12:01:03.365150,-0.88,-0.537,0.117,-18.11,-9.146,58.659,17_6_1.csv
2018-07-12T12:01:03.420799,-0.892,-0.488,0.024,-51.89,-36.707,57.561,17_6_1.csv
2018-07-12T12:01:03.492991,-0.908,-0.677,0.075,-68.902,-23.841,39.634,17_6_1.csv
2018-07-12T12:01:03.558166,-0.908,-0.677,0.075,-22.744,-14.085,31.951,17_6_1.csv
2018-07-12T12:01:03.617825,-0.946,-0.687,0.067,-7.378,1.037,15.244,17_6_1.csv
2018-07-12T12:01:03.681495,-1.041,-0.775,0.031,5.305,5.549,13.72,17_6_1.csv
2018-07-12T12:01:03.728621,-1.041,-0.775,0.031,26.037,7.134,-0.61,17_6_1.csv
2018-07-12T12:01:03.775246,-0.815,-0.612,0.019,87.317,31.28,-49.939,17_6_1.csv
2018-07-12T12:01:03.821369,-0.898,-0.58,0.011,113.842,39.268,-53.293,17_6_1.csv
2018-07-12T12:01:03.871503,-0.898,-0.58,0.011,131.463,36.037,-47.378,17_6_1.csv
2018-07-12T12:01:03.925648,-1.061,-0.544,-0.043,144.878,28.902,-40.793,17_6_1.csv
2018-07-12T12:01:03.978288,-0.998,-0.384,-0.027,103.659,-1.951,-54.024,17_6_1.csv
2018-07-12T12:01:04.024912,-0.998,-0.384,-0.027,41.22,-16.28,-71.098,17_6_1.csv
2018-07-12T12:01:04.076551,-0.846,-0.386,-0.024,-8.476,-20.976,-78.598,17_6_1.csv
2018-07-12T12:01:04.120167,-0.846,-0.386,-0.024,-17.927,-15.305,-70.122,17_6_1.csv
2018-07-12T12:01:04.169800,-0.753,-0.378,0.054,-9.268,-5.244,-49.085,17_6_1.csv
2018-07-12T12:01:04.224554,-0.77,-0.373,0.341,-34.085,-3.659,26.951,17_6_1.csv
2018-07-12T12:01:04.291232,-0.77,-0.373,0.341,5.305,-27.927,79.512,17_6_1.csv
2018-07-12T12:01:04.336352,-0.937,-0.444,0.317,-67.195,-36.646,110.244,17_6_1.csv
2018-07-12T12:01:04.385985,-1.019,-0.607,0.209,-105.732,-45.732,108.171,17_6_1.csv
2018-07-12T12:01:04.432108,-1.019,-0.607,0.209,-132.561,-53.354,88.293,17_6_1.csv
2018-07-12T12:01:04.498285,-1.072,-0.719,0.082,-143.537,-61.89,46.402,17_6_1.csv
2018-07-12T12:01:04.549422,-0.983,-0.699,-0.014,-160.793,-65.183,30.671,17_6_1.csv
2018-07-12T12:01:04.665732,-0.692,-0.737,-0.103,14.085,9.085,-0.976,17_6_1.csv
2018-07-12T12:01:04.743439,-0.764,-0.541,-0.054,59.817,42.683,-27.805,17_6_1.csv
2018-07-12T12:01:04.794577,-0.921,-0.548,0.006,39.939,50.671,-36.463,17_6_1.csv
2018-07-12T12:01:04.837692,-0.921,-0.548,0.006,51.037,63.963,-39.268,17_6_1.csv
2018-07-12T12:01:04.885319,-1.243,-0.281,0.614,101.463,98.72,-40.122,17_6_1.csv
2018-07-12T12:01:04.942472,-0.943,-0.132,0.367,100.427,-37.256,8.659,17_6_1.csv
2018-07-12T12:01:05.011657,-0.943,-0.132,0.367,-72.256,-25.671,-22.317,17_6_1.csv
2018-07-12T12:01:05.056276,-0.715,-0.542,-0.082,-13.293,-7.683,0.366,17_6_1.csv
2018-07-12T12:01:05.106409,-0.83,-0.464,0.118,-4.512,-4.756,21.098,17_6_1.csv
2018-07-12T12:01:05.156042,-0.83,-0.464,0.118,-24.878,-10.671,18.232,17_6_1.csv
2018-07-12T12:01:05.211691,-0.887,-0.499,0.254,-69.207,-18.354,10.183,17_6_1.csv
2018-07-12T12:01:05.273857,-0.894,-0.61,0.233,-59.146,-13.78,6.585,17_6_1.csv
2018-07-12T12:01:05.321985,-0.894,-0.61,0.233,-37.134,-10.0,12.073,17_6_1.csv
2018-07-12T12:01:05.369111,-0.988,-0.686,0.159,-34.878,-12.012,16.951,17_6_1.csv
2018-07-12T12:01:05.417241,-0.988,-0.686,0.159,-34.878,-6.22,15.915,17_6_1.csv
2018-07-12T12:01:05.481411,-1.013,-0.789,0.118,39.085,7.134,-9.878,17_6_1.csv
2018-07-12T12:01:05.529540,-0.693,-0.532,0.086,63.72,22.134,-43.72,17_6_1.csv
2018-07-12T12:01:05.577167,-0.693,-0.532,0.086,88.171,39.39,-56.098,17_6_1.csv
2018-07-12T12:01:05.643344,-1.032,-0.595,-0.01,121.098,29.573,-28.78,17_6_1.csv
2018-07-12T12:01:05.696987,-1.028,-0.437,-0.007,97.988,14.939,-31.463,17_6_1.csv
2018-07-12T12:01:05.745617,-0.861,-0.381,0.017,3.902,-0.915,-69.146,17_6_1.csv
2018-07-12T12:01:05.790738,-0.861,-0.381,0.017,-10.183,4.329,-75.0,17_6_1.csv
2018-07-12T12:01:05.848893,-0.796,-0.349,0.09,5.061,14.817,-61.341,17_6_1.csv
2018-07-12T12:01:05.908553,-0.739,-0.385,0.326,-60.915,26.341,2.927,17_6_1.csv
2018-07-12T12:01:05.965204,-0.739,-0.385,0.326,-93.841,21.646,37.134,17_6_1.csv
2018-07-12T12:01:06.071488,-0.935,-0.479,0.078,281.951,52.683,144.573,17_6_1.csv
2018-07-12T12:01:06.120118,-0.935,-0.479,0.078,164.878,49.207,113.354,17_6_1.csv
2018-07-12T12:01:06.167244,-1.172,-0.397,0.308,-69.634,8.78,54.573,17_6_1.csv
2018-07-12T12:01:06.211863,-1.172,-0.397,0.308,-217.378,-22.134,12.805,17_6_1.csv
2018-07-12T12:01:06.274029,-1.129,-0.818,0.074,-196.463,-27.927,10.0,17_6_1.csv
2018-07-12T12:01:06.325165,-0.896,-0.86,0.167,-66.89,-12.622,13.537,17_6_1.csv
2018-07-12T12:01:06.369784,-0.896,-0.86,0.167,65.0,0.0,-2.073,17_6_1.csv
2018-07-12T12:01:06.423428,-0.775,-0.421,0.175,119.451,4.146,-34.939,17_6_1.csv
2018-07-12T12:01:06.465039,-0.775,-0.421,0.175,125.0,-7.073,-51.585,17_6_1.csv
2018-07-12T12:01:06.511664,-1.072,-0.149,0.139,8.72,-60.671,-43.415,17_6_1.csv
2018-07-12T12:01:06.574331,-0.992,-0.353,0.077,-109.512,-81.524,-66.707,17_6_1.csv
2018-07-12T12:01:06.633991,-0.746,-0.444,-0.001,-129.024,-53.902,-82.866,17_6_1.csv
2018-07-12T12:01:06.683122,-0.746,-0.444,-0.001,-56.28,-23.72,-51.341,17_6_1.csv
2018-07-12T12:01:06.729746,-0.734,-0.377,0.162,-17.622,2.256,-9.817,17_6_1.csv
2018-07-12T12:01:06.774867,-0.734,-0.377,0.162,-54.024,12.805,15.671,17_6_1.csv
2018-07-12T12:01:06.821993,-0.822,-0.57,0.299,-79.39,11.098,35.488,17_6_1.csv
2018-07-12T12:01:06.875636,-0.916,-0.68,0.271,-10.793,-13.476,49.085,17_6_1.csv
2018-07-12T12:01:06.932789,-0.916,-0.68,0.271,-18.78,-29.878,40.488,17_6_1.csv
2018-07-12T12:01:06.979414,-0.882,-0.533,0.116,-46.159,-34.329,29.329,17_6_1.csv
2018-07-12T12:01:07.030550,-0.958,-0.611,0.046,-50.793,-28.11,35.793,17_6_1.csv
2018-07-12T12:01:07.078177,-0.958,-0.611,0.046,-41.768,-15.61,48.659,17_6_1.csv
2018-07-12T12:01:07.126306,-1.054,-0.768,0.102,-24.634,-7.744,56.22,17_6_1.csv
2018-07-12T12:01:07.186968,-1.054,-0.768,0.102,-2.378,-15.671,38.11,17_6_1.csv
2018-07-12T12:01:07.244622,-0.802,-0.529,0.097,22.744,-8.049,-23.171,17_6_1.csv
2018-07-12T12:01:07.291748,-0.919,-0.54,0.038,2.805,-15.366,-25.976,17_6_1.csv
2018-07-12T12:01:07.394523,-0.956,-0.528,0.063,-9.39,-23.232,-22.439,17_6_1.csv
2018-07-12T12:01:07.451174,-0.905,-0.449,0.013,-22.622,-24.451,-40.305,17_6_1.csv
2018-07-12T12:01:07.496295,-0.905,-0.449,0.013,-24.695,-21.707,-53.72,17_6_1.csv
2018-07-12T12:01:07.550439,-0.829,-0.367,0.054,-24.512,-16.585,-55.793,17_6_1.csv
2018-07-12T12:01:07.609096,-0.767,-0.358,0.121,-56.707,-14.512,-17.5,17_6_1.csv
2018-07-12T12:01:07.657224,-0.767,-0.358,0.121,-97.561,-12.683,13.598,17_6_1.csv
2018-07-12T12:01:07.714879,-0.82,-0.564,0.246,-132.073,-31.585,64.878,17_6_1.csv
2018-07-12T12:01:07.761002,-0.888,-0.81,0.038,-35.427,-30.488,94.329,17_6_1.csv
2018-07-12T12:01:07.808127,-0.888,-0.81,0.038,52.622,-10.427,91.159,17_6_1.csv
2018-07-12T12:01:07.861269,-0.957,-0.567,0.104,69.756,-0.61,60.61,17_6_1.csv
2018-07-12T12:01:07.920428,-1.147,-0.716,0.126,-93.171,-17.317,6.646,17_6_1.csv
2018-07-12T12:01:07.964545,-1.147,-0.716,0.126,-116.037,-22.378,2.256,17_6_1.csv
2018-07-12T12:01:08.012674,-0.943,-0.701,0.142,-62.866,-18.841,-2.744,17_6_1.csv
2018-07-12T12:01:08.060802,-0.943,-0.701,0.142,26.951,0.671,-12.805,17_6_1.csv
2018-07-12T12:01:08.110937,-0.678,-0.409,0.164,35.183,6.159,-34.695,17_6_1.csv
2018-07-12T12:01:08.166585,-0.933,-0.321,0.147,102.683,4.939,-20.976,17_6_1.csv
2018-07-12T12:01:08.215216,-0.933,-0.321,0.147,73.902,-7.195,-5.854,17_6_1.csv
2018-07-12T12:01:08.262842,-1.223,-0.414,0.106,-10.0,-32.134,-12.378,17_6_1.csv
2018-07-12T12:01:08.323003,-0.968,-0.35,0.017,-63.598,-63.963,-67.988,17_6_1.csv
2018-07-12T12:01:08.376647,-0.968,-0.35,0.017,-43.354,-56.768,-79.39,17_6_1.csv
2018-07-12T12:01:08.453351,-0.802,-0.225,0.093,-67.317,-47.805,-25.854,17_6_1.csv
2018-07-12T12:01:08.510504,-0.776,-0.302,0.276,-176.037,-48.11,-0.976,17_6_1.csv
2018-07-12T12:01:08.556627,-0.776,-0.302,0.276,-258.293,-58.841,11.402,17_6_1.csv
2018-07-12T12:01:08.625812,-0.759,-0.846,0.193,-108.171,-72.927,44.329,17_6_1.csv
2018-07-12T12:01:08.752150,-1.057,-0.558,0.059,-16.89,-46.646,66.341,17_6_1.csv
2018-07-12T12:01:08.851916,-1.117,-0.707,-0.024,-50.366,-31.463,22.927,17_6_1.csv
2018-07-12T12:01:08.908568,-0.745,-0.579,0.041,-7.317,-20.244,5.061,17_6_1.csv
2018-07-12T12:01:08.962211,-0.809,-0.508,0.059,9.39,-11.098,-17.805,17_6_1.csv
2018-07-12T12:01:09.024878,-0.809,-0.508,0.059,-0.244,-18.476,-8.963,17_6_1.csv
2018-07-12T12:01:09.073007,-0.944,-0.574,0.01,-2.805,-23.354,-1.951,17_6_1.csv
2018-07-12T12:01:09.118629,-0.944,-0.574,0.01,-1.524,-24.817,-3.902,17_6_1.csv
2018-07-12T12:01:09.165754,-0.933,-0.498,-0.006,-29.695,-26.037,-49.451,17_6_1.csv
2018-07-12T12:01:09.222907,-0.84,-0.439,0.006,-43.11,-19.817,-65.305,17_6_1.csv
2018-07-12T12:01:09.277553,-0.84,-0.439,0.006,-40.061,-11.341,-59.817,17_6_1.csv
2018-07-12T12:01:09.326183,-0.732,-0.429,0.073,-35.61,7.744,-7.012,17_6_1.csv
2018-07-12T12:01:09.369800,-0.792,-0.522,0.261,-68.11,9.207,17.195,17_6_1.csv
2018-07-12T12:01:09.417928,-0.792,-0.522,0.261,-55.366,11.585,46.951,17_6_1.csv
2018-07-12T12:01:09.463550,-0.917,-0.683,0.226,-22.622,6.829,61.341,17_6_1.csv
2018-07-12T12:01:09.515689,-0.917,-0.683,0.226,20.61,1.037,65.671,17_6_1.csv
2018-07-12T12:01:09.577856,-0.965,-0.595,0.056,23.598,-1.768,50.976,17_6_1.csv
2018-07-12T12:01:09.619968,-1.081,-0.634,0.185,-38.476,-13.293,32.134,17_6_1.csv
2018-07-12T12:01:09.675617,-1.081,-0.634,0.185,-84.085,-22.5,17.195,17_6_1.csv
2018-07-12T12:01:09.743799,-0.97,-0.779,0.133,-24.268,-12.378,1.28,17_6_1.csv
2018-07-12T12:01:09.795437,-0.802,-0.559,0.074,57.317,-1.524,-12.866,17_6_1.csv
2018-07-12T12:01:09.857102,-0.981,-0.357,0.023,48.415,-26.768,-53.049,17_6_1.csv
2018-07-12T12:01:09.914756,-0.981,-0.357,0.023,-16.707,-50.61,-65.244,17_6_1.csv
2018-07-12T12:01:09.962884,-1.021,-0.432,0.164,-66.463,-62.683,-70.549,17_6_1.csv
2018-07-12T12:01:10.011013,-0.98,-0.277,0.335,-40.0,-110.854,-70.732,17_6_1.csv
2018-07-12T12:01:10.121308,-0.718,-0.315,0.284,-101.037,-92.5,-27.683,17_6_1.csv
2018-07-12T12:01:10.173447,-0.654,-0.422,0.164,-90.0,-70.305,48.659,17_6_1.csv
2018-07-12T12:01:10.233608,-0.654,-0.422,0.164,-117.439,-62.561,81.341,17_6_1.csv
2018-07-12T12:01:10.290760,-0.885,-0.601,0.051,-131.342,-59.695,102.805,17_6_1.csv
2018-07-12T12:01:10.340895,-1.006,-0.686,-0.027,-103.781,-51.89,87.134,17_6_1.csv
2018-07-12T12:01:10.386015,-1.006,-0.686,-0.027,-77.866,-43.049,53.841,17_6_1.csv
2018-07-12T12:01:10.434645,-0.945,-0.63,-0.041,-82.439,-37.561,34.329,17_6_1.csv
2018-07-12T12:01:10.482272,-0.945,-0.63,-0.041,-100.854,-37.622,37.927,17_6_1.csv
2018-07-12T12:01:10.536918,-0.972,-0.881,-0.087,-90.671,-30.976,45.366,17_6_1.csv
2018-07-12T12:01:10.592065,-0.775,-0.736,0.084,-30.915,-8.415,16.098,17_6_1.csv
2018-07-12T12:01:10.639692,-0.775,-0.736,0.084,8.293,15.793,-12.866,17_6_1.csv
2018-07-12T12:01:10.688322,-0.852,-0.678,0.104,48.841,32.622,-37.988,17_6_1.csv
2018-07-12T12:01:10.730936,-0.999,-0.566,0.038,92.683,43.232,-45.793,17_6_1.csv
2018-07-12T12:01:10.779065,-0.999,-0.566,0.038,119.024,42.439,-52.561,17_6_1.csv
2018-07-12T12:01:10.836218,-0.926,-0.373,0.074,89.268,29.268,-65.305,17_6_1.csv
2018-07-12T12:01:10.890364,-0.757,-0.421,0.062,27.073,20.976,-61.951,17_6_1.csv
2018-07-12T12:01:10.939494,-0.757,-0.421,0.062,30.122,23.659,-32.134,17_6_1.csv
2018-07-12T12:01:10.996145,-0.722,-0.448,0.025,33.293,24.329,-1.22,17_6_1.csv
2018-07-12T12:01:11.043271,-0.722,-0.448,0.025,30.61,26.402,30.732,17_6_1.csv
2018-07-12T12:01:11.089896,-0.765,-0.532,0.058,6.829,16.341,85.732,17_6_1.csv
2018-07-12T12:01:11.148051,-0.911,-0.727,0.172,2.439,16.22,66.585,17_6_1.csv
2018-07-12T12:01:11.207710,-0.911,-0.727,0.172,49.573,25.061,33.537,17_6_1.csv
2018-07-12T12:01:11.261855,-1.063,-0.596,0.311,6.22,5.976,1.707,17_6_1.csv
2018-07-12T12:01:11.323519,-1.239,-0.723,0.216,-31.768,-7.744,7.012,17_6_1.csv
2018-07-12T12:01:11.369642,-1.239,-0.723,0.216,-9.573,-23.476,5.915,17_6_1.csv
2018-07-12T12:01:11.484951,-0.853,-0.345,0.049,-61.159,-53.476,-77.5,17_6_1.csv
2018-07-12T12:01:11.531576,-0.853,-0.345,0.049,-87.622,-59.939,-98.232,17_6_1.csv
2018-07-12T12:01:11.602765,-0.792,-0.457,0.065,-75.61,-37.5,-56.646,17_6_1.csv
2018-07-12T12:01:11.649891,-0.644,-0.458,0.172,-28.841,-21.524,-14.085,17_6_1.csv
2018-07-12T12:01:11.698020,-0.725,-0.444,0.177,-11.707,-4.756,62.012,17_6_1.csv
2018-07-12T12:01:11.745648,-0.725,-0.444,0.177,-17.134,-0.976,87.927,17_6_1.csv
2018-07-12T12:01:11.791269,-0.893,-0.563,0.187,-22.378,0.732,102.683,17_6_1.csv
2018-07-12T12:01:11.860454,-0.965,-0.688,0.191,-28.415,-3.232,92.683,17_6_1.csv
2018-07-12T12:01:11.923623,-0.965,-0.688,0.191,-33.902,-7.927,62.5,17_6_1.csv
2018-07-12T12:01:11.962727,-0.891,-0.627,0.187,-35.305,-10.732,31.524,17_6_1.csv
2018-07-12T12:01:12.012861,-0.891,-0.627,0.187,-54.207,-18.354,9.573,17_6_1.csv
2018-07-12T12:01:12.056979,-0.961,-0.706,0.115,-70.366,-20.305,-0.122,17_6_1.csv
2018-07-12T12:01:12.111625,-1.095,-0.829,0.109,-37.012,-9.939,2.622,17_6_1.csv
2018-07-12T12:01:12.174293,-1.095,-0.829,0.109,9.024,-1.037,-11.22,17_6_1.csv
2018-07-12T12:01:12.244981,-0.868,-0.525,0.153,15.732,-0.183,-75.671,17_6_1.csv
2018-07-12T12:01:12.291104,-0.861,-0.513,0.069,7.805,-1.768,-84.329,17_6_1.csv
2018-07-12T12:01:12.338732,-0.931,-0.531,0.027,56.037,7.561,-59.878,17_6_1.csv
2018-07-12T12:01:12.384354,-0.931,-0.531,0.027,64.939,11.098,-43.354,17_6_1.csv
2018-07-12T12:01:12.432984,-0.929,-0.479,0.034,45.427,8.11,-37.012,17_6_1.csv
2018-07-12T12:01:12.492643,-0.929,-0.479,0.034,33.415,6.646,-42.561,17_6_1.csv
2018-07-12T12:01:12.541273,-0.831,-0.399,0.072,0.488,-8.78,-46.341,17_6_1.csv
2018-07-12T12:01:12.588902,-0.712,-0.396,0.17,-25.732,-16.098,-27.988,17_6_1.csv
2018-07-12T12:01:12.636026,-0.712,-0.396,0.17,-42.073,-18.476,-1.037,17_6_1.csv
2018-07-12T12:01:12.681146,-0.727,-0.5,0.251,-43.598,-16.22,34.207,17_6_1.csv
2018-07-12T12:01:12.728774,-0.727,-0.5,0.251,-34.634,-14.268,69.268,17_6_1.csv
2018-07-12T12:01:12.845085,-1.181,-0.631,0.073,-36.098,-24.085,85.671,17_6_1.csv
2018-07-12T12:01:12.900733,-1.069,-0.648,-0.015,-110.061,-40.488,48.841,17_6_1.csv
2018-07-12T12:01:12.947859,-1.069,-0.648,-0.015,-137.378,-43.11,31.524,17_6_1.csv
2018-07-12T12:01:12.996990,-0.718,-0.589,0.0,-109.451,-35.915,19.878,17_6_1.csv
2018-07-12T12:01:13.040607,-0.718,-0.589,0.0,-64.756,-23.049,5.732,17_6_1.csv
2018-07-12T12:01:13.090741,-0.809,-0.48,-0.005,-54.756,-17.439,-10.671,17_6_1.csv
2018-07-12T12:01:13.143382,-0.948,-0.517,0.096,-65.61,-11.159,-27.561,17_6_1.csv
2018-07-12T12:01:13.197025,-0.948,-0.517,0.096,-45.793,-6.463,-27.866,17_6_1.csv
2018-07-12T12:01:13.244652,-0.857,-0.485,0.264,-17.805,0.732,-20.915,17_6_1.csv
2018-07-12T12:01:13.293282,-0.857,-0.485,0.264,6.768,3.171,-4.329,17_6_1.csv
2018-07-12T12:01:13.337400,-0.889,-0.418,0.337,2.134,-2.256,11.341,17_6_1.csv
2018-07-12T12:01:13.387534,-0.855,-0.447,0.212,-55.61,-26.402,33.72,17_6_1.csv
2018-07-12T12:01:13.437167,-0.855,-0.447,0.212,-91.768,-33.78,35.0,17_6_1.csv
2018-07-12T12:01:13.494319,-0.817,-0.609,0.107,-78.11,-32.256,37.317,17_6_1.csv
2018-07-12T12:01:13.540944,-0.817,-0.609,0.107,-54.268,-25.366,34.817,17_6_1.csv
2018-07-12T12:01:13.590577,-0.931,-0.661,0.117,-28.11,-12.439,13.415,17_6_1.csv
2018-07-12T12:01:13.639708,-1.087,-0.695,0.099,-23.11,-8.537,-1.707,17_6_1.csv
2018-07-12T12:01:13.685329,-1.087,-0.695,0.099,-15.732,-2.805,-13.537,17_6_1.csv
2018-07-12T12:01:13.736132,-1.012,-0.581,0.111,7.805,-2.805,-24.085,17_6_1.csv
2018-07-12T12:01:13.793787,-0.82,-0.436,0.121,11.22,-0.976,-68.598,17_6_1.csv
2018-07-12T12:01:13.838407,-0.82,-0.436,0.121,12.439,-0.793,-66.707,17_6_1.csv
2018-07-12T12:01:13.891548,-0.812,-0.479,0.041,12.683,0.61,-52.988,17_6_1.csv
2018-07-12T12:01:13.940178,-0.812,-0.479,0.041,33.232,7.744,-32.195,17_6_1.csv
2018-07-12T12:01:13.995826,-0.935,-0.526,-0.015,69.634,21.402,13.78,17_6_1.csv
2018-07-12T12:01:14.049971,-0.892,-0.471,-0.016,55.793,20.061,9.817,17_6_1.csv
2018-07-12T12:01:14.106622,-0.87,-0.439,0.079,42.012,27.744,-11.463,17_6_1.csv
2018-07-12T12:01:14.211402,-0.87,-0.439,0.079,10.549,13.598,-3.11,17_6_1.csv
2018-07-12T12:01:14.262038,-0.87,-0.439,0.079,-11.098,2.622,1.463,17_6_1.csv
2018-07-12T12:01:14.306156,-0.85,-0.458,0.119,-57.744,-12.5,14.146,17_6_1.csv
2018-07-12T12:01:14.357794,-0.861,-0.527,0.143,-47.866,-13.415,24.39,17_6_1.csv
2018-07-12T12:01:14.412941,-0.861,-0.527,0.143,-40.671,-15.427,35.488,17_6_1.csv
2018-07-12T12:01:14.477614,-1.037,-0.61,0.093,-43.72,-25.061,55.183,17_6_1.csv
2018-07-12T12:01:14.524739,-1.21,-0.72,0.021,-58.598,-30.549,51.89,17_6_1.csv
2018-07-12T12:01:14.574372,-1.21,-0.72,0.021,-76.037,-33.78,28.841,17_6_1.csv
2018-07-12T12:01:14.623503,-0.817,-0.585,0.142,-50.671,-24.39,2.317,17_6_1.csv
2018-07-12T12:01:14.670128,-0.821,-0.459,0.035,-22.805,-22.805,-40.305,17_6_1.csv
2018-07-12T12:01:14.733798,-0.821,-0.459,0.035,-36.28,-30.732,-51.159,17_6_1.csv
2018-07-12T12:01:14.791953,-0.987,-0.479,0.081,-13.841,-15.122,-56.463,17_6_1.csv
2018-07-12T12:01:14.838077,-0.859,-0.424,0.253,7.683,-4.573,-51.159,17_6_1.csv
2018-07-12T12:01:14.887208,-0.859,-0.424,0.253,27.378,2.805,-38.049,17_6_1.csv
2018-07-12T12:01:14.932329,-0.768,-0.337,0.218,37.073,0.122,-15.61,17_6_1.csv
2018-07-12T12:01:14.999007,-0.847,-0.372,0.21,-11.402,-8.78,26.768,17_6_1.csv
2018-07-12T12:01:15.067690,-0.847,-0.372,0.21,-30.549,-15.122,41.037,17_6_1.csv
2018-07-12T12:01:15.117824,-0.921,-0.459,0.192,-62.317,-25.793,56.159,17_6_1.csv
2018-07-12T12:01:15.164950,-0.893,-0.528,0.145,-80.976,-30.122,51.585,17_6_1.csv
2018-07-12T12:01:15.214081,-0.893,-0.528,0.145,-93.841,-32.378,44.451,17_6_1.csv
2018-07-12T12:01:15.260204,-0.874,-0.609,0.117,-92.988,-31.524,32.927,17_6_1.csv
2018-07-12T12:01:15.307330,-0.874,-0.609,0.117,-85.915,-27.439,19.329,17_6_1.csv
2018-07-12T12:01:15.377016,-0.901,-0.657,0.125,-71.707,-19.817,8.598,17_6_1.csv
2018-07-12T12:01:15.434169,-1.094,-0.798,0.089,-24.268,-6.768,1.89,17_6_1.csv
2018-07-12T12:01:15.477786,-0.867,-0.573,0.204,6.098,-0.305,-23.72,17_6_1.csv
2018-07-12T12:01:15.526917,-0.867,-0.573,0.204,28.171,9.695,-49.146,17_6_1.csv
2018-07-12T12:01:15.648742,-1.0,-0.542,0.034,44.573,-5.427,-36.402,17_6_1.csv
2018-07-12T12:01:15.700882,-1.0,-0.542,0.034,63.354,-1.159,-20.122,17_6_1.csv
2018-07-12T12:01:15.754024,-0.951,-0.434,0.069,19.268,-6.768,-35.793,17_6_1.csv
2018-07-12T12:01:15.808169,-0.774,-0.408,0.035,-0.488,-7.439,-38.598,17_6_1.csv
2018-07-12T12:01:15.857300,-0.774,-0.408,0.035,-7.622,-5.366,-22.012,17_6_1.csv
2018-07-12T12:01:15.900415,-0.741,-0.424,0.076,-9.268,-3.11,1.524,17_6_1.csv
2018-07-12T12:01:15.947039,-0.741,-0.424,0.076,-25.0,-3.232,23.232,17_6_1.csv
2018-07-12T12:01:16.009707,-0.796,-0.506,0.216,-54.817,0.854,53.598,17_6_1.csv
2018-07-12T12:01:16.069868,-0.903,-0.665,0.268,-24.085,4.878,60.732,17_6_1.csv
2018-07-12T12:01:16.119500,-0.982,-0.622,0.071,20.854,3.354,57.561,17_6_1.csv
2018-07-12T12:01:16.167629,-0.982,-0.622,0.071,-10.244,4.573,41.646,17_6_1.csv
2018-07-12T12:01:16.217763,-1.136,-0.7,0.011,-15.427,31.22,29.756,17_6_1.csv
2018-07-12T12:01:16.277923,-0.953,-0.488,0.036,26.28,43.415,7.561,17_6_1.csv
2018-07-12T12:01:16.325551,-0.953,-0.488,0.036,4.39,35.915,-10.305,17_6_1.csv
2018-07-12T12:01:16.393232,-0.887,-0.229,0.177,-5.305,17.805,-17.073,17_6_1.csv
2018-07-12T12:01:16.450885,-1.036,-0.277,0.159,-113.902,-90.854,-22.561,17_6_1.csv
2018-07-12T12:01:16.495505,-1.036,-0.277,0.159,-176.707,-94.268,-45.183,17_6_1.csv
2018-07-12T12:01:16.545137,-0.984,-0.44,0.024,-132.073,-70.244,-48.537,17_6_1.csv
2018-07-12T12:01:16.586748,-0.984,-0.44,0.024,-32.622,-45.671,-33.72,17_6_1.csv
2018-07-12T12:01:16.637885,-0.872,-0.247,0.195,0.427,-42.866,-16.463,17_6_1.csv
2018-07-12T12:01:16.690526,-0.786,-0.361,0.112,-131.524,-65.671,0.549,17_6_1.csv
2018-07-12T12:01:16.743668,-0.786,-0.361,0.112,-148.415,-56.707,15.549,17_6_1.csv
2018-07-12T12:01:16.794303,-0.78,-0.557,0.092,-126.037,-41.463,32.073,17_6_1.csv
2018-07-12T12:01:16.845941,-0.847,-0.572,0.155,-46.89,-14.085,50.183,17_6_1.csv
2018-07-12T12:01:16.967265,-1.076,-0.682,0.161,-36.28,-5.549,20.427,17_6_1.csv
2018-07-12T12:01:17.010380,-1.149,-0.771,0.145,-28.598,-6.951,1.585,17_6_1.csv
2018-07-12T12:01:17.066029,-1.149,-0.771,0.145,-13.293,-9.512,-20.366,17_6_1.csv
2018-07-12T12:01:17.126691,-0.876,-0.607,0.117,39.756,-1.829,-63.293,17_6_1.csv
2018-07-12T12:01:17.173315,-0.883,-0.5,0.052,58.72,0.671,-67.988,17_6_1.csv
2018-07-12T12:01:17.229466,-0.883,-0.5,0.052,64.939,0.976,-60.671,17_6_1.csv
2018-07-12T12:01:17.274085,-0.979,-0.504,0.014,76.951,2.134,-45.671,17_6_1.csv
2018-07-12T12:01:17.321211,-0.906,-0.402,0.025,75.488,-0.549,-34.817,17_6_1.csv
2018-07-12T12:01:17.377863,-0.906,-0.402,0.025,28.293,-11.768,-51.463,17_6_1.csv
2018-07-12T12:01:17.431505,-0.825,-0.368,0.06,-3.354,-17.439,-56.098,17_6_1.csv
2018-07-12T12:01:17.479133,-0.825,-0.368,0.06,-26.585,-21.22,-46.341,17_6_1.csv
2018-07-12T12:01:17.526259,-0.71,-0.408,0.179,-42.256,-13.841,8.841,17_6_1.csv
2018-07-12T12:01:17.576894,-0.745,-0.492,0.29,-25.793,-3.963,45.549,17_6_1.csv
2018-07-12T12:01:17.626025,-0.745,-0.492,0.29,-3.963,0.854,74.695,17_6_1.csv
2018-07-12T12:01:17.687690,-0.911,-0.474,0.233,-27.683,-6.037,83.476,17_6_1.csv
2018-07-12T12:01:17.744341,-1.14,-0.572,0.153,-60.61,-14.817,74.939,17_6_1.csv
2018-07-12T12:01:17.791467,-1.14,-0.572,0.153,-88.537,-21.707,67.317,17_6_1.csv
2018-07-12T12:01:17.838593,-1.272,-0.726,0.077,-110.244,-32.683,61.707,17_6_1.csv
2018-07-12T12:01:17.885721,-0.763,-0.637,0.068,-134.695,-46.646,25.061,17_6_1.csv
2018-07-12T12:01:17.932845,-0.763,-0.637,0.068,-91.159,-32.805,0.305,17_6_1.csv
2018-07-12T12:01:17.989997,-0.731,-0.529,-0.02,-42.5,-20.915,-13.72,17_6_1.csv
2018-07-12T12:01:18.059683,-0.888,-0.509,-0.033,-46.768,-17.134,-30.244,17_6_1.csv
2018-07-12T12:01:18.107812,-0.888,-0.509,-0.033,-48.659,-6.037,-34.146,17_6_1.csv
2018-07-12T12:01:18.155941,-0.855,-0.534,0.019,-31.037,8.293,-34.817,17_6_1.csv
2018-07-12T12:01:18.197552,-0.855,-0.534,0.019,1.28,26.341,-32.195,17_6_1.csv
2018-07-12T12:01:18.245680,-0.801,-0.52,0.057,28.598,39.634,-22.927,17_6_1.csv
2018-07-12T12:01:18.332412,-1.059,-0.315,0.413,104.268,25.61,23.659,17_6_1.csv
2018-07-12T12:01:18.384551,-0.928,-0.379,0.233,-31.768,-13.171,-0.671,17_6_1.csv
2018-07-12T12:01:18.432179,-0.928,-0.379,0.233,-36.463,-5.976,-0.366,17_6_1.csv
2018-07-12T12:01:18.480307,-0.783,-0.535,0.019,-11.829,-4.573,7.195,17_6_1.csv
2018-07-12T12:01:18.524926,-0.783,-0.535,0.019,-18.537,-4.634,10.793,17_6_1.csv
2018-07-12T12:01:18.579071,-0.923,-0.58,0.085,-17.927,1.341,16.037,17_6_1.csv
2018-07-12T12:01:18.637728,-1.156,-0.733,0.121,-18.598,2.561,17.378,17_6_1.csv
2018-07-12T12:01:18.696886,-0.921,-0.606,0.104,22.195,-1.951,-3.72,17_6_1.csv
2018-07-12T12:01:18.744513,-0.921,-0.606,0.104,38.72,-2.073,-27.866,17_6_1.csv
2018-07-12T12:01:18.799160,-0.75,-0.454,0.066,33.963,-1.524,-45.244,17_6_1.csv
2018-07-12T12:01:18.853304,-0.948,-0.538,0.01,34.878,-2.744,-31.037,17_6_1.csv
2018-07-12T12:01:18.910958,-0.948,-0.538,0.01,44.878,-3.049,-15.61,17_6_1.csv
2018-07-12T12:01:18.971620,-0.964,-0.513,-0.018,27.805,-5.427,-16.89,17_6_1.csv
2018-07-12T12:01:19.024762,-0.837,-0.429,-0.02,9.024,-6.28,-33.049,17_6_1.csv
2018-07-12T12:01:19.071888,-0.837,-0.429,-0.02,-2.744,-2.927,-42.439,17_6_1.csv
2018-07-12T12:01:19.125030,-0.761,-0.436,0.025,-7.317,3.598,-35.0,17_6_1.csv
2018-07-12T12:01:19.165639,-0.761,-0.436,0.025,-2.866,8.72,-8.293,17_6_1.csv
2018-07-12T12:01:19.215773,-0.783,-0.483,0.111,-31.829,5.976,48.049,17_6_1.csv
2018-07-12T12:01:19.269416,-0.869,-0.641,0.281,-24.756,8.902,61.159,17_6_1.csv
2018-07-12T12:01:19.338601,-0.883,-0.54,0.316,18.232,8.841,32.134,17_6_1.csv
2018-07-12T12:01:19.385225,-0.883,-0.54,0.316,-12.073,-4.085,21.28,17_6_1.csv
2018-07-12T12:01:19.433353,-0.924,-0.565,0.165,-59.451,-19.329,19.695,17_6_1.csv
2018-07-12T12:01:19.477972,-0.924,-0.565,0.165,-74.939,-27.195,21.524,17_6_1.csv
2018-07-12T12:01:19.526101,-1.167,-0.677,0.088,-76.22,-30.854,22.744,17_6_1.csv
2018-07-12T12:01:19.587766,-0.959,-0.628,0.039,-111.768,-38.415,3.598,17_6_1.csv
2018-07-12T12:01:19.683021,-0.822,-0.502,-0.039,-25.122,-20.183,-29.146,17_6_1.csv
2018-07-12T12:01:19.728141,-0.822,-0.502,-0.039,-2.012,-22.012,-39.146,17_6_1.csv
2018-07-12T12:01:19.776270,-0.9,-0.411,-0.029,-55.61,-31.28,-47.927,17_6_1.csv
2018-07-12T12:01:19.824399,-0.815,-0.468,0.044,-48.11,-24.329,-36.524,17_6_1.csv
2018-07-12T12:01:19.874031,-0.815,-0.468,0.044,-27.866,-13.598,-19.451,17_6_1.csv
2018-07-12T12:01:19.932688,-0.822,-0.472,0.141,-16.707,-6.829,-2.073,17_6_1.csv
2018-07-12T12:01:20.010395,-0.854,-0.587,0.274,-46.463,-21.646,3.78,17_6_1.csv
2018-07-12T12:01:20.061031,-0.774,-0.525,0.111,-11.524,-18.476,16.951,17_6_1.csv
2018-07-12T12:01:20.109159,-0.774,-0.525,0.111,2.256,-12.378,31.89,17_6_1.csv
2018-07-12T12:01:20.152776,-0.825,-0.511,0.055,-6.707,-6.341,40.366,17_6_1.csv
2018-07-12T12:01:20.204915,-0.825,-0.511,0.055,-18.841,-3.78,43.171,17_6_1.csv
2018-07-12T12:01:20.254570,-0.933,-0.627,0.106,-20.549,-2.561,43.415,17_6_1.csv
2018-07-12T12:01:20.313224,-1.044,-0.712,0.107,-22.683,-1.341,28.537,17_6_1.csv
2018-07-12T12:01:20.355838,-1.044,-0.712,0.107,-22.683,-5.183,16.341,17_6_1.csv
2018-07-12T12:01:20.403967,-1.05,-0.722,0.103,-26.89,-6.951,2.073,17_6_1.csv
2018-07-12T12:01:20.451594,-1.05,-0.722,0.103,-8.659,-13.11,-13.049,17_6_1.csv
2018-07-12T12:01:20.494208,-0.794,-0.529,0.112,3.293,-11.585,-38.902,17_6_1.csv
2018-07-12T12:01:20.552363,-0.943,-0.506,0.04,31.28,-0.671,-53.72,17_6_1.csv
2018-07-12T12:01:20.604502,-0.943,-0.506,0.04,42.5,-0.244,-47.134,17_6_1.csv
2018-07-12T12:01:20.651127,-0.973,-0.434,0.026,49.634,-1.585,-44.756,17_6_1.csv
2018-07-12T12:01:20.698755,-0.973,-0.434,0.026,31.585,-8.72,-49.207,17_6_1.csv
2018-07-12T12:01:20.743374,-0.865,-0.388,0.012,-8.598,-19.573,-47.683,17_6_1.csv
2018-07-12T12:01:20.792004,-0.821,-0.394,0.034,-16.402,-20.854,-34.085,17_6_1.csv
2018-07-12T12:01:20.849156,-0.821,-0.394,0.034,-28.354,-21.585,-15.366,17_6_1.csv
2018-07-12T12:01:20.916336,-0.804,-0.384,0.065,-72.988,-25.854,33.415,17_6_1.csv
2018-07-12T12:01:21.051196,-0.947,-0.758,0.199,-29.146,-15.244,115.732,17_6_1.csv
2018-07-12T12:01:21.109853,-1.012,-0.619,0.14,7.012,-10.427,63.415,17_6_1.csv
2018-07-12T12:01:21.154472,-1.012,-0.619,0.14,-38.598,-18.476,34.451,17_6_1.csv
2018-07-12T12:01:21.216137,-1.026,-0.672,0.089,-101.402,-30.793,18.78,17_6_1.csv
2018-07-12T12:01:21.277300,-0.9,-0.752,-0.003,-106.342,-34.817,5.793,17_6_1.csv
2018-07-12T12:01:21.342975,-0.83,-0.568,-0.008,-0.488,-0.244,-25.732,17_6_1.csv
2018-07-12T12:01:21.420182,-0.83,-0.568,-0.008,22.317,8.476,-53.841,17_6_1.csv
2018-07-12T12:01:21.466806,-0.958,-0.421,-0.033,-21.341,-1.951,-91.341,17_6_1.csv
2018-07-12T12:01:21.510924,-1.003,-0.468,0.126,-0.61,13.78,-82.134,17_6_1.csv
2018-07-12T12:01:21.574594,-1.003,-0.468,0.126,115.122,27.988,-49.939,17_6_1.csv
2018-07-12T12:01:21.620216,-0.915,-0.243,0.324,139.024,24.634,-27.805,17_6_1.csv
2018-07-12T12:01:21.680878,-0.875,-0.17,0.23,-6.341,-30.0,4.573,17_6_1.csv
2018-07-12T12:01:21.739033,-0.875,-0.17,0.23,-107.805,-51.159,21.463,17_6_1.csv
2018-07-12T12:01:21.794682,-0.885,-0.469,0.058,-230.549,-82.195,19.756,17_6_1.csv
2018-07-12T12:01:21.846822,-0.8,-0.622,0.022,-168.354,-74.634,26.402,17_6_1.csv
2018-07-12T12:01:21.894449,-0.8,-0.622,0.022,-105.915,-53.537,39.756,17_6_1.csv
2018-07-12T12:01:21.957116,-0.837,-0.628,0.029,-73.963,-36.037,55.183,17_6_1.csv
2018-07-12T12:01:22.021288,-0.986,-0.727,0.033,-41.463,-21.768,62.439,17_6_1.csv
2018-07-12T12:01:22.076937,-1.085,-0.772,0.036,-4.329,4.146,42.561,17_6_1.csv
2018-07-12T12:01:22.118547,-1.085,-0.772,0.036,13.78,2.561,17.561,17_6_1.csv
2018-07-12T12:01:22.168682,-0.804,-0.558,0.112,22.744,-3.049,-7.927,17_6_1.csv
2018-07-12T12:01:22.214304,-0.804,-0.558,0.112,49.939,0.366,-21.402,17_6_1.csv
2018-07-12T12:01:22.260427,-0.884,-0.492,0.09,32.073,-4.146,-27.561,17_6_1.csv
2018-07-12T12:01:22.316576,-1.038,-0.546,0.034,15.671,-24.451,-25.732,17_6_1.csv
2018-07-12T12:01:22.409826,-0.922,-0.416,0.015,-0.488,-30.854,-49.817,17_6_1.csv
2018-07-12T12:01:22.467981,-0.816,-0.412,0.021,-30.366,-23.902,-68.171,17_6_1.csv
2018-07-12T12:01:22.527139,-0.816,-0.412,0.021,-24.939,-18.415,-51.28,17_6_1.csv
2018-07-12T12:01:22.590308,-0.795,-0.38,0.061,-49.634,-17.317,3.659,17_6_1.csv
2018-07-12T12:01:22.635428,-0.761,-0.419,0.03,-73.415,-13.72,30.0,17_6_1.csv
2018-07-12T12:01:22.707621,-0.761,-0.419,0.03,-62.805,-6.829,54.146,17_6_1.csv
2018-07-12T12:01:22.759260,-0.89,-0.559,0.068,-31.22,1.159,93.11,17_6_1.csv
2018-07-12T12:01:22.807388,-1.089,-0.705,0.108,-22.622,-2.5,96.951,17_6_1.csv
2018-07-12T12:01:22.855517,-1.089,-0.705,0.108,-27.378,-5.732,80.305,17_6_1.csv
2018-07-12T12:01:22.906653,-1.219,-0.778,0.101,-27.622,-11.524,55.244,17_6_1.csv
2018-07-12T12:01:22.946760,-1.219,-0.778,0.101,-43.902,-23.72,19.207,17_6_1.csv
2018-07-12T12:01:23.004916,-0.814,-0.581,0.117,-57.622,-27.439,-41.402,17_6_1.csv
2018-07-12T12:01:23.073098,-0.696,-0.496,0.071,-14.329,-25.793,-53.72,17_6_1.csv
2018-07-12T12:01:23.126240,-1.054,-0.502,0.053,-4.451,-31.585,-50.061,17_6_1.csv
2018-07-12T12:01:23.182390,-1.054,-0.502,0.053,43.049,-28.902,-30.976,17_6_1.csv
2018-07-12T12:01:23.228012,-1.104,-0.144,0.239,100.549,-19.451,-16.037,17_6_1.csv
2018-07-12T12:01:23.274636,-0.894,-0.228,0.215,-31.341,-29.634,-35.244,17_6_1.csv
2018-07-12T12:01:23.335799,-0.894,-0.228,0.215,-58.049,-32.134,-19.695,17_6_1.csv
2018-07-12T12:01:23.386936,-0.787,-0.36,0.139,-80.793,-32.805,4.451,17_6_1.csv
2018-07-12T12:01:23.441081,-0.81,-0.507,0.121,-164.207,-30.549,20.122,17_6_1.csv
2018-07-12T12:01:23.497231,-0.81,-0.507,0.121,-164.878,-27.134,25.793,17_6_1.csv
2018-07-12T12:01:23.556892,-0.848,-0.71,0.113,-32.195,-0.915,43.78,17_6_1.csv
2018-07-12T12:01:23.608529,-0.937,-0.673,0.232,-4.329,1.341,38.659,17_6_1.csv
2018-07-12T12:01:23.673702,-0.937,-0.673,0.232,-32.805,-10.549,20.183,17_6_1.csv
2018-07-12T12:01:23.777480,-0.946,-0.641,0.022,31.524,-7.805,1.524,17_6_1.csv
2018-07-12T12:01:23.836136,-0.821,-0.452,0.077,54.756,-2.073,-23.11,17_6_1.csv
2018-07-12T12:01:23.904319,-0.821,-0.452,0.077,32.256,-5.732,-27.378,17_6_1.csv
2018-07-12T12:01:23.949940,-0.902,-0.483,0.022,24.207,-10.488,-23.11,17_6_1.csv
2018-07-12T12:01:24.014112,-0.985,-0.506,-0.015,13.963,-17.256,-9.085,17_6_1.csv
2018-07-12T12:01:24.060736,-0.985,-0.506,-0.015,1.585,-21.22,-8.963,17_6_1.csv
2018-07-12T12:01:24.105857,-0.842,-0.421,-0.018,-28.171,-21.28,-25.854,17_6_1.csv
2018-07-12T12:01:24.173036,-0.731,-0.467,0.002,-30.488,3.598,-24.573,17_6_1.csv
2018-07-12T12:01:24.230189,-0.731,-0.467,0.002,-7.805,17.134,6.159,17_6_1.csv
2018-07-12T12:01:24.277315,-0.787,-0.5,0.058,-16.951,27.805,49.634,17_6_1.csv
2018-07-12T12:01:24.324441,-0.924,-0.691,0.169,-20.732,23.659,55.671,17_6_1.csv
2018-07-12T12:01:24.374073,-0.924,-0.691,0.169,-10.183,17.317,43.72,17_6_1.csv
2018-07-12T12:01:24.418693,-0.917,-0.682,0.239,-1.585,14.512,17.988,17_6_1.csv
2018-07-12T12:01:24.471835,-0.917,-0.682,0.239,-8.293,3.659,-1.402,17_6_1.csv
2018-07-12T12:01:24.524977,-0.976,-0.644,0.119,-13.293,-18.171,-3.963,17_6_1.csv
2018-07-12T12:01:24.571602,-1.08,-0.669,0.109,-26.768,-27.012,-6.402,17_6_1.csv
2018-07-12T12:01:24.624743,-1.08,-0.669,0.109,-23.598,-28.78,-11.28,17_6_1.csv
2018-07-12T12:01:24.672371,-0.908,-0.581,0.041,4.207,-22.744,-17.561,17_6_1.csv
2018-07-12T12:01:24.722504,-0.854,-0.392,-0.019,34.329,-22.073,-38.78,17_6_1.csv
2018-07-12T12:01:24.785172,-0.854,-0.392,-0.019,11.22,-31.341,-46.646,17_6_1.csv
2018-07-12T12:01:24.839818,-0.918,-0.396,-0.012,-21.037,-37.927,-49.878,17_6_1.csv
2018-07-12T12:01:24.886442,-0.831,-0.41,0.122,-2.317,-8.537,-20.061,17_6_1.csv
2018-07-12T12:01:24.935072,-0.831,-0.41,0.122,-5.244,7.5,-4.817,17_6_1.csv
2018-07-12T12:01:24.983201,-0.802,-0.492,0.243,-23.049,14.817,7.866,17_6_1.csv
2018-07-12T12:01:25.046369,-0.77,-0.642,0.236,-51.951,-22.622,12.195,17_6_1.csv
2018-07-12T12:01:25.143630,-0.796,-0.563,0.113,-10.183,-5.976,24.634,17_6_1.csv
2018-07-12T12:01:25.196771,-0.796,-0.563,0.113,-14.817,0.61,28.354,17_6_1.csv
2018-07-12T12:01:25.244399,-0.824,-0.623,0.226,-47.561,-13.232,6.341,17_6_1.csv
2018-07-12T12:01:25.291525,-0.857,-0.69,0.272,-45.122,-18.841,-1.402,17_6_1.csv
2018-07-12T12:01:25.337147,-0.857,-0.69,0.272,-44.207,-22.073,-5.183,17_6_1.csv
2018-07-12T12:01:25.386278,-0.986,-0.717,0.147,-34.085,-24.756,-0.671,17_6_1.csv
2018-07-12T12:01:25.442929,-0.966,-0.63,0.008,35.793,-18.72,25.549,17_6_1.csv
2018-07-12T12:01:25.510109,-0.966,-0.63,0.008,64.756,-15.0,16.159,17_6_1.csv
2018-07-12T12:01:25.561746,-0.862,-0.458,0.028,44.207,-1.22,-0.976,17_6_1.csv
2018-07-12T12:01:25.611379,-0.79,-0.481,0.003,-8.902,-3.78,-4.268,17_6_1.csv
2018-07-12T12:01:25.659508,-0.79,-0.481,0.003,-3.72,4.939,-2.561,17_6_1.csv
2018-07-12T12:01:25.714154,-0.902,-0.542,-0.012,13.963,15.366,10.976,17_6_1.csv
2018-07-12T12:01:25.768800,-0.86,-0.5,0.022,-6.524,17.866,13.902,17_6_1.csv
2018-07-12T12:01:25.827457,-0.86,-0.5,0.022,-20.0,24.695,-0.549,17_6_1.csv
2018-07-12T12:01:25.876087,-0.813,-0.532,0.073,1.646,34.329,1.159,17_6_1.csv
2018-07-12T12:01:25.937249,-0.892,-0.525,0.149,7.439,33.598,9.329,17_6_1.csv
2018-07-12T12:01:25.994402,-0.892,-0.525,0.149,-17.256,19.512,6.098,17_6_1.csv
2018-07-12T12:01:26.042030,-0.89,-0.577,0.166,-32.195,3.354,4.146,17_6_1.csv
2018-07-12T12:01:26.102692,-0.837,-0.582,0.097,-7.439,-10.183,3.476,17_6_1.csv
2018-07-12T12:01:26.168367,-0.921,-0.608,0.07,-3.537,-13.537,9.939,17_6_1.csv
2018-07-12T12:01:26.216997,-0.921,-0.608,0.07,-10.854,-12.866,13.293,17_6_1.csv
2018-07-12T12:01:26.275153,-1.07,-0.688,0.1,-18.476,-12.012,11.037,17_6_1.csv
2018-07-12T12:01:26.321777,-1.07,-0.688,0.1,-19.634,-9.817,2.5,17_6_1.csv
2018-07-12T12:01:26.368401,-0.882,-0.643,0.109,41.037,1.22,-14.085,17_6_1.csv
2018-07-12T12:01:26.421042,-0.822,-0.49,0.076,71.951,2.439,-21.037,17_6_1.csv
2018-07-12T12:01:26.545375,-1.018,-0.398,0.0,-29.451,-45.488,-48.232,17_6_1.csv
2018-07-12T12:01:26.587487,-0.983,-0.45,0.031,-68.659,-50.793,-53.232,17_6_1.csv
2018-07-12T12:01:26.639626,-0.983,-0.45,0.031,-74.207,-44.939,-55.0,17_6_1.csv
2018-07-12T12:01:26.689760,-0.838,-0.358,0.256,-68.171,-52.927,-19.207,17_6_1.csv
2018-07-12T12:01:26.743404,-0.707,-0.389,0.245,-103.842,-57.195,12.439,17_6_1.csv
2018-07-12T12:01:26.807074,-0.707,-0.389,0.245,-110.61,-44.939,42.256,17_6_1.csv
2018-07-12T12:01:26.876760,-0.761,-0.561,0.142,-48.354,-21.829,99.268,17_6_1.csv
2018-07-12T12:01:26.921379,-0.971,-0.743,0.068,-31.402,-16.159,104.939,17_6_1.csv
2018-07-12T12:01:26.972516,-0.998,-0.685,0.032,-0.183,-1.28,25.549,17_6_1.csv
2018-07-12T12:01:27.025658,-0.998,-0.685,0.032,5.183,10.976,2.988,17_6_1.csv
2018-07-12T12:01:27.071781,-1.038,-0.738,-0.037,10.549,14.878,0.732,17_6_1.csv
2018-07-12T12:01:27.142469,-0.715,-0.608,0.012,23.049,22.012,-5.244,17_6_1.csv
2018-07-12T12:01:27.197617,-0.715,-0.608,0.012,57.012,43.171,-20.732,17_6_1.csv
2018-07-12T12:01:27.245745,-0.739,-0.636,0.05,112.622,62.256,-25.549,17_6_1.csv
2018-07-12T12:01:27.293373,-1.102,-0.563,-0.049,215.061,56.768,-11.89,17_6_1.csv
2018-07-12T12:01:27.342003,-1.102,-0.563,-0.049,193.476,27.744,-20.793,17_6_1.csv
2018-07-12T12:01:27.385620,-1.038,-0.312,0.011,105.427,-10.366,-44.329,17_6_1.csv
2018-07-12T12:01:27.448287,-1.038,-0.312,0.011,-15.427,-40.854,-70.976,17_6_1.csv
2018-07-12T12:01:27.529002,-0.876,-0.427,-0.007,-95.427,-45.366,-88.232,17_6_1.csv
2018-07-12T12:01:27.573622,-0.825,-0.408,0.085,-20.671,-20.915,-46.402,17_6_1.csv
2018-07-12T12:01:27.628268,-0.734,-0.369,0.207,-59.39,-17.622,-6.037,17_6_1.csv
2018-07-12T12:01:27.680908,-0.734,-0.369,0.207,-87.805,-16.037,30.671,17_6_1.csv
2018-07-12T12:01:27.730040,-0.864,-0.497,0.214,-66.768,-18.232,69.268,17_6_1.csv
2018-07-12T12:01:27.788696,-1.058,-0.59,0.061,-63.537,-38.049,113.171,17_6_1.csv
2018-07-12T12:01:27.926063,-1.23,-0.691,0.013,-147.866,-63.171,63.72,17_6_1.csv
2018-07-12T12:01:27.984219,-0.964,-0.752,0.021,-140.183,-65.793,20.671,17_6_1.csv
2018-07-12T12:01:28.028337,-0.685,-0.671,-0.001,-68.293,-49.573,3.354,17_6_1.csv
2018-07-12T12:01:28.075964,-0.685,-0.671,-0.001,-3.293,-34.878,-13.354,17_6_1.csv
2018-07-12T12:01:28.120081,-0.902,-0.513,-0.013,5.366,-35.61,-29.817,17_6_1.csv
2018-07-12T12:01:28.178738,-0.961,-0.45,-0.043,-68.171,-54.085,-62.866,17_6_1.csv
2018-07-12T12:01:28.227870,-0.961,-0.45,-0.043,-104.39,-52.439,-84.024,17_6_1.csv
2018-07-12T12:01:28.277001,-0.834,-0.444,0.025,-106.585,-37.988,-93.293,17_6_1.csv
2018-07-12T12:01:28.337663,-0.839,-0.503,0.562,-16.463,6.768,-32.012,17_6_1.csv
2018-07-12T12:01:28.403338,-0.839,-0.503,0.562,-1.159,10.671,1.829,17_6_1.csv
2018-07-12T12:01:28.464000,-0.773,-0.451,0.446,-89.817,-37.744,24.39,17_6_1.csv
2018-07-12T12:01:28.510626,-0.775,-0.562,0.001,-88.72,-40.0,44.939,17_6_1.csv
2018-07-12T12:01:28.558252,-0.775,-0.562,0.001,-24.024,-22.805,63.841,17_6_1.csv
2018-07-12T12:01:28.618914,-0.925,-0.589,0.063,-31.341,-7.195,48.354,17_6_1.csv
2018-07-12T12:01:28.683587,-1.062,-0.726,0.205,-67.317,-18.11,24.39,17_6_1.csv
2018-07-12T12:01:28.739236,-0.948,-0.672,0.181,-42.927,-20.671,12.5,17_6_1.csv
2018-07-12T12:01:28.792378,-0.948,-0.672,0.181,-21.22,-18.476,8.537,17_6_1.csv
2018-07-12T12:01:28.839002,-0.789,-0.542,0.082,1.402,-15.976,6.951,17_6_1.csv
2018-07-12T12:01:28.890139,-0.789,-0.542,0.082,5.244,-9.451,0.366,17_6_1.csv
2018-07-12T12:01:28.937766,-0.781,-0.547,0.091,-6.341,-7.317,-6.28,17_6_1.csv
2018-07-12T12:01:28.985895,-0.871,-0.582,0.029,51.159,1.768,11.951,17_6_1.csv
2018-07-12T12:01:29.034525,-0.871,-0.582,0.029,58.293,8.354,16.159,17_6_1.csv
2018-07-12T12:01:29.107720,-1.066,-0.605,0.002,68.659,3.293,-1.28,17_6_1.csv
2018-07-12T12:01:29.153342,-0.89,-0.412,0.042,25.488,-3.293,-40.061,17_6_1.csv
2018-07-12T12:01:29.232053,-0.795,-0.431,0.038,-19.939,-5.976,-69.573,17_6_1.csv
2018-07-12T12:01:29.273664,-0.795,-0.431,0.038,-14.024,-4.207,-61.768,17_6_1.csv
2018-07-12T12:01:29.324800,-0.858,-0.376,0.037,-9.817,-3.78,-44.207,17_6_1.csv
2018-07-12T12:01:29.373430,-0.858,-0.376,0.037,-18.902,-6.098,-18.293,17_6_1.csv
2018-07-12T12:01:29.431085,-0.86,-0.425,0.21,-87.744,-2.683,20.976,17_6_1.csv
2018-07-12T12:01:29.481218,-0.969,-0.604,0.285,-77.378,-5.915,37.317,17_6_1.csv
2018-07-12T12:01:29.528344,-0.969,-0.604,0.285,-58.841,-27.378,58.049,17_6_1.csv
2018-07-12T12:01:29.572963,-1.038,-0.672,-0.003,-24.268,-31.098,76.768,17_6_1.csv
2018-07-12T12:01:29.623599,-1.038,-0.672,-0.003,-19.329,-28.049,74.573,17_6_1.csv
2018-07-12T12:01:29.683759,-0.99,-0.671,0.188,-48.354,-36.341,22.073,17_6_1.csv
2018-07-12T12:01:29.744923,-0.827,-0.616,0.149,-8.049,-29.329,-13.049,17_6_1.csv
2018-07-12T12:01:29.790544,-0.859,-0.498,0.022,1.646,-34.939,-25.183,17_6_1.csv
2018-07-12T12:01:29.838172,-0.859,-0.498,0.022,-7.805,-41.524,-38.659,17_6_1.csv
2018-07-12T12:01:29.885799,-1.008,-0.457,-0.001,-29.146,-45.854,-48.72,17_6_1.csv
2018-07-12T12:01:29.935432,-1.008,-0.457,-0.001,-52.866,-48.659,-52.805,17_6_1.csv
2018-07-12T12:01:29.982057,-0.892,-0.402,0.074,-70.122,-41.524,-58.659,17_6_1.csv
2018-07-12T12:01:30.025673,-0.766,-0.355,0.235,-23.476,-4.329,-34.39,17_6_1.csv
2018-07-12T12:01:30.071294,-0.766,-0.355,0.235,-3.354,14.024,2.622,17_6_1.csv
2018-07-12T12:01:30.120927,-0.824,-0.494,0.386,-74.512,2.134,16.707,17_6_1.csv
2018-07-12T12:01:30.167050,-0.824,-0.494,0.386,-132.622,-35.915,23.537,17_6_1.csv
2018-07-12T12:01:30.215680,-0.806,-0.619,0.142,-82.134,-40.061,39.207,17_6_1.csv
2018-07-12T12:01:30.269324,-0.859,-0.567,0.062,-35.915,-10.366,51.159,17_6_1.csv
2018-07-12T12:01:30.324471,-0.859,-0.567,0.062,-47.988,-3.72,40.732,17_6_1.csv
2018-07-12T12:01:30.373101,-0.935,-0.688,0.149,-45.915,-7.439,26.646,17_6_1.csv
2018-07-12T12:01:30.422734,-0.935,-0.688,0.149,-35.976,-5.976,20.488,17_6_1.csv
2018-07-12T12:01:30.471363,-0.969,-0.691,0.187,-41.646,-9.024,12.805,17_6_1.csv
2018-07-12T12:01:30.514980,-0.938,-0.694,0.071,3.049,-0.183,11.463,17_6_1.csv
2018-07-12T12:01:30.641819,-0.839,-0.527,0.091,60.061,3.11,-10.732,17_6_1.csv
2018-07-12T12:01:30.698470,-0.865,-0.504,0.032,45.122,-1.402,-18.415,17_6_1.csv
2018-07-12T12:01:30.759132,-0.953,-0.523,-0.001,37.561,-5.915,-19.085,17_6_1.csv
2018-07-12T12:01:30.811773,-0.953,-0.523,-0.001,34.939,-8.78,-13.963,17_6_1.csv
2018-07-12T12:01:30.856893,-0.975,-0.483,-0.027,24.451,-13.902,-12.073,17_6_1.csv
2018-07-12T12:01:30.904019,-0.975,-0.483,-0.027,-2.805,-18.72,-25.244,17_6_1.csv
2018-07-12T12:01:30.966186,-0.826,-0.412,-0.021,-33.415,-4.268,-50.427,17_6_1.csv
2018-07-12T12:01:31.027349,-0.786,-0.427,0.014,-22.256,7.866,-37.378,17_6_1.csv
2018-07-12T12:01:31.071467,-0.842,-0.431,0.083,-32.5,16.768,18.171,17_6_1.csv
2018-07-12T12:01:31.125110,-0.842,-0.431,0.083,-56.22,15.366,42.134,17_6_1.csv
2018-07-12T12:01:31.173239,-0.933,-0.547,0.215,-73.232,6.585,53.963,17_6_1.csv
2018-07-12T12:01:31.218860,-0.933,-0.547,0.215,-65.854,-2.744,58.841,17_6_1.csv
2018-07-12T12:01:31.287544,-0.93,-0.603,0.069,3.659,-11.159,62.012,17_6_1.csv
2018-07-12T12:01:31.338179,-1.048,-0.582,0.042,-5.976,-14.695,53.598,17_6_1.csv
2018-07-12T12:01:31.383801,-1.048,-0.582,0.042,-59.512,-26.524,42.317,17_6_1.csv
2018-07-12T12:01:31.433433,-1.095,-0.746,0.084,-97.683,-41.22,12.683,17_6_1.csv
2018-07-12T12:01:31.478554,-0.804,-0.681,0.065,-58.537,-29.329,-14.695,17_6_1.csv
2018-07-12T12:01:31.527685,-0.804,-0.681,0.065,6.646,-11.463,-34.329,17_6_1.csv
2018-07-12T12:01:31.579323,-0.794,-0.505,0.075,45.976,-6.463,-45.854,17_6_1.csv
2018-07-12T12:01:31.637479,-1.065,-0.447,0.043,41.159,-28.415,-54.695,17_6_1.csv
2018-07-12T12:01:31.684605,-1.065,-0.447,0.043,51.768,-35.976,-48.415,17_6_1.csv
2018-07-12T12:01:31.733235,-1.149,-0.263,0.049,46.707,-54.329,-50.183,17_6_1.csv
2018-07-12T12:01:31.777854,-1.149,-0.263,0.049,-66.585,-54.634,-86.402,17_6_1.csv
2018-07-12T12:01:31.824980,-0.841,-0.319,0.126,-68.049,-30.732,-93.963,17_6_1.csv
2018-07-12T12:01:31.884639,-0.677,-0.241,0.289,-17.683,-6.585,-1.951,17_6_1.csv
2018-07-12T12:01:32.014486,-0.803,-0.514,0.252,-132.622,-35.488,61.22,17_6_1.csv
2018-07-12T12:01:32.061111,-0.917,-0.864,0.123,-112.195,-42.134,46.037,17_6_1.csv
2018-07-12T12:01:32.109239,-0.917,-0.864,0.123,-83.293,-52.439,28.232,17_6_1.csv
2018-07-12T12:01:32.155864,-0.889,-0.683,0.097,-77.5,-53.476,18.11,17_6_1.csv
2018-07-12T12:01:32.205497,-0.854,-0.603,0.097,-48.049,-37.378,16.098,17_6_1.csv
2018-07-12T12:01:32.265657,-0.854,-0.603,0.097,-58.354,-36.463,12.195,17_6_1.csv
2018-07-12T12:01:32.307770,-0.955,-0.766,0.105,-60.0,-32.439,11.159,17_6_1.csv
2018-07-12T12:01:32.357402,-0.915,-0.642,0.019,39.146,-12.927,34.573,17_6_1.csv
2018-07-12T12:01:32.402523,-0.915,-0.642,0.019,40.366,-1.89,14.939,17_6_1.csv
2018-07-12T12:01:32.448144,-0.777,-0.458,-0.017,-5.671,-5.61,-16.951,17_6_1.csv
2018-07-12T12:01:32.512316,-0.777,-0.458,-0.017,-38.72,-9.512,-38.78,17_6_1.csv
2018-07-12T12:01:32.561448,-0.865,-0.6,-0.063,9.39,-9.573,-18.598,17_6_1.csv
2018-07-12T12:01:32.604562,-0.911,-0.561,-0.094,32.134,-11.402,-2.622,17_6_1.csv
2018-07-12T12:01:32.654195,-0.911,-0.561,-0.094,38.171,-6.463,-10.488,17_6_1.csv
2018-07-12T12:01:32.718366,-0.816,-0.417,-0.019,33.171,6.22,-27.073,17_6_1.csv
2018-07-12T12:01:32.776522,-0.806,-0.44,0.001,3.659,23.841,-28.049,17_6_1.csv
2018-07-12T12:01:32.840693,-0.807,-0.475,0.016,-9.878,24.39,17.378,17_6_1.csv
2018-07-12T12:01:32.905366,-0.807,-0.475,0.016,-18.902,26.707,45.305,17_6_1.csv
2018-07-12T12:01:32.948983,-0.869,-0.652,0.264,-46.402,25.366,54.573,17_6_1.csv
2018-07-12T12:01:33.011650,-0.965,-0.778,0.101,19.085,12.195,56.22,17_6_1.csv
2018-07-12T12:01:33.060783,-0.965,-0.778,0.101,87.439,20.183,52.256,17_6_1.csv
2018-07-12T12:01:33.109913,-1.061,-0.6,0.079,76.098,14.268,38.963,17_6_1.csv
2018-07-12T12:01:33.174586,-0.968,-0.687,0.183,-41.098,-22.012,8.171,17_6_1.csv
2018-07-12T12:01:33.235749,-0.968,-0.687,0.183,-35.915,-22.683,-6.28,17_6_1.csv
2018-07-12T12:01:33.318971,-0.759,-0.638,-0.011,44.207,-6.829,-30.305,17_6_1.csv
2018-07-12T12:01:33.375121,-0.859,-0.525,-0.161,49.939,2.561,-49.878,17_6_1.csv
2018-07-12T12:01:33.421748,-1.259,-0.185,0.165,125.366,8.659,-36.768,17_6_1.csv
2018-07-12T12:01:33.471378,-1.259,-0.185,0.165,135.366,-14.817,-26.463,17_6_1.csv
2018-07-12T12:01:33.535550,-0.938,-0.104,0.212,-137.134,-44.146,-42.5,17_6_1.csv
2018-07-12T12:01:33.588190,-0.676,-0.428,0.071,-150.244,-48.293,-25.061,17_6_1.csv
2018-07-12T12:01:33.636319,-0.676,-0.428,0.071,-114.329,-44.573,9.329,17_6_1.csv
2018-07-12T12:01:33.683445,-0.794,-0.547,0.026,-134.451,-36.89,27.622,17_6_1.csv
2018-07-12T12:01:33.729067,-0.839,-0.734,0.113,-111.463,-20.915,35.671,17_6_1.csv
2018-07-12T12:01:33.777196,-0.839,-0.734,0.113,-1.159,4.207,47.012,17_6_1.csv
2018-07-12T12:01:33.828834,-0.888,-0.565,0.098,44.817,21.341,50.976,17_6_1.csv
2018-07-12T12:01:33.887490,-0.923,-0.692,0.142,-67.378,-12.317,2.988,17_6_1.csv
2018-07-12T12:01:33.933614,-0.923,-0.692,0.142,-83.963,-16.707,-4.573,17_6_1.csv
2018-07-12T12:01:33.981742,-1.036,-0.872,-0.021,-10.183,-2.012,6.524,17_6_1.csv
2018-07-12T12:01:34.028366,-1.036,-0.872,-0.021,70.854,17.683,12.988,17_6_1.csv
2018-07-12T12:01:34.075492,-0.919,-0.498,0.086,139.817,15.366,13.902,17_6_1.csv
2018-07-12T12:01:34.137659,-0.83,-0.372,0.103,46.89,-9.939,-40.244,17_6_1.csv
2018-07-12T12:01:34.184784,-0.83,-0.372,0.103,-4.329,-18.354,-39.085,17_6_1.csv
2018-07-12T12:01:34.237425,-0.929,-0.569,-0.021,4.817,-23.537,-20.122,17_6_1.csv
2018-07-12T12:01:34.292573,-0.941,-0.524,-0.032,10.549,-20.61,-9.573,17_6_1.csv
2018-07-12T12:01:34.359251,-0.941,-0.524,-0.032,1.768,-16.22,-27.927,17_6_1.csv
2018-07-12T12:01:34.408382,-0.869,-0.43,-0.012,-12.256,-3.049,-53.72,17_6_1.csv
2018-07-12T12:01:34.464031,-0.803,-0.434,-0.011,-12.988,0.183,-39.207,17_6_1.csv
2018-07-12T12:01:34.525695,-0.803,-0.434,-0.011,-18.049,-3.049,-13.11,17_6_1.csv
2018-07-12T12:01:34.571819,-0.743,-0.39,0.068,-63.537,4.878,35.244,17_6_1.csv
2018-07-12T12:01:34.686626,-0.849,-0.687,0.178,-2.683,13.841,77.256,17_6_1.csv
2018-07-12T12:01:34.734754,-0.977,-0.715,0.313,139.39,31.707,66.646,17_6_1.csv
2018-07-12T12:01:34.779874,-1.048,-0.441,0.2,68.415,22.683,50.244,17_6_1.csv
2018-07-12T12:01:34.841038,-1.048,-0.441,0.2,-14.268,3.841,35.305,17_6_1.csv
2018-07-12T12:01:34.901198,-1.069,-0.546,0.247,-125.0,-36.22,-6.402,17_6_1.csv
2018-07-12T12:01:34.956346,-0.786,-0.604,0.178,-135.549,-43.293,-23.476,17_6_1.csv
2018-07-12T12:01:35.014501,-0.807,-0.586,0.048,-33.537,-24.878,-37.805,17_6_1.csv
2018-07-12T12:01:35.084689,-0.807,-0.586,0.048,24.024,-19.146,-33.841,17_6_1.csv
2018-07-12T12:01:35.142343,-1.06,-0.481,0.006,4.939,-31.768,-47.256,17_6_1.csv
2018-07-12T12:01:35.198994,-1.024,-0.345,0.099,-7.012,-34.146,-54.207,17_6_1.csv
2018-07-12T12:01:35.276201,-0.747,-0.356,0.176,-58.659,-28.963,-56.098,17_6_1.csv
2018-07-12T12:01:35.332852,-0.747,-0.356,0.176,-35.061,-13.902,-27.195,17_6_1.csv
2018-07-12T12:01:35.375967,-0.763,-0.441,0.228,-91.402,-15.427,17.5,17_6_1.csv
2018-07-12T12:01:35.431615,-0.848,-0.649,0.169,-110.732,-26.463,24.512,17_6_1.csv
2018-07-12T12:01:35.485760,-0.848,-0.649,0.169,-89.146,-30.244,30.305,17_6_1.csv
2018-07-12T12:01:35.526369,-0.835,-0.6,0.071,-47.073,-22.683,39.207,17_6_1.csv
2018-07-12T12:01:35.593047,-0.918,-0.535,0.253,-57.439,-25.549,30.732,17_6_1.csv
2018-07-12T12:01:35.651704,-0.918,-0.535,0.253,-90.915,-59.512,17.744,17_6_1.csv
2018-07-12T12:01:35.708355,-0.909,-0.652,0.202,-159.085,-91.524,11.037,17_6_1.csv
2018-07-12T12:01:35.783054,-0.941,-0.855,0.017,-120.854,-70.366,8.841,17_6_1.csv
2018-07-12T12:01:35.839204,-0.845,-0.806,-0.065,-44.634,-41.829,6.28,17_6_1.csv
2018-07-12T12:01:35.886832,-0.845,-0.806,-0.065,21.159,-9.39,-12.927,17_6_1.csv
2018-07-12T12:01:35.931952,-0.704,-0.597,-0.071,71.159,19.268,-26.037,17_6_1.csv
2018-07-12T12:01:35.979579,-0.901,-0.584,-0.096,118.598,43.293,-21.646,17_6_1.csv
2018-07-12T12:01:36.059794,-0.987,-0.511,-0.07,126.342,36.463,-12.622,17_6_1.csv
2018-07-12T12:01:36.122963,-0.987,-0.511,-0.07,88.354,25.244,-32.5,17_6_1.csv
2018-07-12T12:01:36.201675,-0.859,-0.388,-0.001,-16.707,12.256,-76.951,17_6_1.csv
2018-07-12T12:01:36.244287,-0.805,-0.429,0.041,-25.122,18.476,-71.341,17_6_1.csv
2018-07-12T12:01:36.292917,-0.805,-0.429,0.041,-16.829,27.622,-45.0,17_6_1.csv
2018-07-12T12:01:36.339541,-0.806,-0.487,0.291,-46.707,32.927,31.037,17_6_1.csv
2018-07-12T12:01:36.403211,-0.878,-0.637,0.385,-17.134,28.049,62.012,17_6_1.csv
2018-07-12T12:01:36.468887,-0.868,-0.542,-0.005,64.695,-7.561,94.329,17_6_1.csv
2018-07-12T12:01:36.545592,-1.002,-0.449,0.148,-30.61,-27.073,62.988,17_6_1.csv
2018-07-12T12:01:36.588205,-1.002,-0.449,0.148,-163.537,-56.28,25.305,17_6_1.csv
2018-07-12T12:01:36.637838,-0.963,-0.713,0.029,-247.378,-71.402,2.988,17_6_1.csv
2018-07-12T12:01:36.681455,-0.963,-0.713,0.029,-246.159,-68.476,4.146,17_6_1.csv
2018-07-12T12:01:36.729082,-0.931,-0.925,-0.089,-133.476,-43.11,25.061,17_6_1.csv
2018-07-12T12:01:36.787237,-0.876,-0.691,0.089,49.817,2.805,16.524,17_6_1.csv
2018-07-12T12:01:36.859931,-0.876,-0.691,0.089,62.622,3.72,-13.049,17_6_1.csv
2018-07-12T12:01:36.903548,-0.825,-0.487,0.097,45.793,-16.159,-58.963,17_6_1.csv
2018-07-12T12:01:36.952679,-1.06,-0.45,0.035,26.22,-32.866,-65.427,17_6_1.csv
2018-07-12T12:01:36.995293,-1.06,-0.45,0.035,19.756,-44.634,-60.244,17_6_1.csv
2018-07-12T12:01:37.043422,-0.97,-0.27,0.114,11.707,-59.329,-62.866,17_6_1.csv
2018-07-12T12:01:37.101075,-0.776,-0.302,0.132,-91.707,-59.756,-83.78,17_6_1.csv
2018-07-12T12:01:37.150207,-0.776,-0.302,0.132,-60.061,-30.854,-22.256,17_6_1.csv
2018-07-12T12:01:37.199338,-0.721,-0.502,0.205,-139.268,-30.549,1.463,17_6_1.csv
2018-07-12T12:01:37.261504,-0.721,-0.502,0.205,-164.207,-41.098,22.927,17_6_1.csv
2018-07-12T12:01:37.311639,-0.708,-0.848,0.174,-104.512,-67.683,22.012,17_6_1.csv
2018-07-12T12:01:37.408898,-0.736,-0.61,-0.016,30.61,-13.293,77.622,17_6_1.csv
2018-07-12T12:01:37.468558,-0.962,-0.61,0.012,9.085,21.22,66.89,17_6_1.csv
2018-07-12T12:01:37.526713,-1.102,-0.744,0.181,-34.451,2.317,23.841,17_6_1.csv
2018-07-12T12:01:37.579353,-1.102,-0.744,0.181,-72.683,-12.378,2.5,17_6_1.csv
2018-07-12T12:01:37.621466,-0.933,-0.767,0.063,-57.256,-18.537,-3.476,17_6_1.csv
2018-07-12T12:01:37.665083,-0.764,-0.524,0.068,74.878,-17.012,9.39,17_6_1.csv
2018-07-12T12:01:37.714716,-0.764,-0.524,0.068,67.012,-17.561,-5.183,17_6_1.csv
2018-07-12T12:01:37.766353,-0.883,-0.476,0.032,11.463,-24.085,-22.805,17_6_1.csv
2018-07-12T12:01:37.828018,-0.956,-0.548,-0.021,-13.659,-31.646,-27.317,17_6_1.csv
2018-07-12T12:01:37.868626,-0.956,-0.548,-0.021,-13.415,-32.134,-24.39,17_6_1.csv
2018-07-12T12:01:37.923774,-0.95,-0.487,-0.044,-16.159,-34.085,-22.5,17_6_1.csv
2018-07-12T12:01:37.980927,-0.95,-0.487,-0.044,-42.5,-35.183,-34.573,17_6_1.csv
2018-07-12T12:01:38.028553,-0.769,-0.413,-0.023,-52.195,-12.317,-42.683,17_6_1.csv
2018-07-12T12:01:38.084202,-0.694,-0.435,0.03,-43.963,-0.305,-13.72,17_6_1.csv
