time,accel_x_list,accel_y_list,accel_z_list,gyro_x_list,gyro_y_list,gyro_z_list,filename
2018-07-04T12:22:10.697074,-0.982,-0.451,0.225,-14.39,-31.707,-47.317,1_10_1.csv
2018-07-04T12:22:10.747710,-0.982,-0.451,0.225,-14.39,-31.707,-47.317,1_10_1.csv
2018-07-04T12:22:10.792329,-0.982,-0.451,0.225,83.354,-14.817,-56.402,1_10_1.csv
2018-07-04T12:22:10.837952,-0.895,-0.167,0.179,104.512,-17.439,-60.671,1_10_1.csv
2018-07-04T12:22:10.887084,-0.8,-0.178,0.172,-37.988,-18.049,-50.183,1_10_1.csv
2018-07-04T12:22:10.929698,-0.8,-0.178,0.172,-72.683,0.305,-26.829,1_10_1.csv
2018-07-04T12:22:10.977325,-0.899,-0.458,0.208,-59.512,16.829,11.768,1_10_1.csv
2018-07-04T12:22:11.027960,-0.899,-0.458,0.208,-35.366,39.329,49.695,1_10_1.csv
2018-07-04T12:22:11.093645,-1.239,-0.896,0.21,35.61,52.927,-9.39,1_10_1.csv
2018-07-04T12:22:11.139267,-0.954,-0.557,0.286,83.354,42.378,-86.829,1_10_1.csv
2018-07-04T12:22:11.183887,-0.954,-0.557,0.286,90.183,39.39,-123.598,1_10_1.csv
2018-07-04T12:22:11.284657,-0.189,-0.253,0.185,71.707,83.537,-22.195,1_10_1.csv
2018-07-04T12:22:11.333287,-0.189,-0.253,0.185,86.768,93.171,-11.341,1_10_1.csv
2018-07-04T12:22:11.375901,-1.433,-0.912,0.933,110.549,42.378,0.793,1_10_1.csv
2018-07-04T12:22:11.424532,-1.433,-0.912,0.933,-18.476,-32.744,29.695,1_10_1.csv
2018-07-04T12:22:11.660276,-0.233,-0.302,0.004,-51.829,-61.341,-37.317,1_10_1.csv
2018-07-04T12:22:11.738990,0.438,0.113,-0.111,86.159,26.22,-89.695,1_10_1.csv
2018-07-04T12:22:11.777596,0.109,0.157,-0.063,50.854,22.927,-41.159,1_10_1.csv
2018-07-04T12:22:11.823720,0.109,0.157,-0.063,39.146,30.915,-2.073,1_10_1.csv
2018-07-04T12:22:11.869848,-0.992,-0.615,0.155,-4.146,50.0,9.756,1_10_1.csv
2018-07-04T12:22:11.916974,-0.992,-0.615,0.155,-13.11,92.927,39.146,1_10_1.csv
2018-07-04T12:22:11.974133,-3.079,-2.244,0.461,-174.207,-113.537,-42.744,1_10_1.csv
2018-07-04T12:22:12.015244,-1.424,-1.494,0.11,-25.244,-39.329,-2.744,1_10_1.csv
2018-07-04T12:22:12.061371,-1.424,-1.494,0.11,70.122,-24.634,27.622,1_10_1.csv
2018-07-04T12:22:12.105489,0.183,0.26,-0.173,139.39,-45.793,-19.39,1_10_1.csv
2018-07-04T12:22:12.164152,0.183,0.26,-0.173,106.768,-23.171,-71.646,1_10_1.csv
2018-07-04T12:22:12.219301,0.33,0.42,-0.157,3.598,-8.78,-6.524,1_10_1.csv
2018-07-04T12:22:12.261916,0.081,-0.1,-0.024,-57.439,-9.207,13.171,1_10_1.csv
2018-07-04T12:22:12.326589,0.081,-0.1,-0.024,-112.927,1.341,7.256,1_10_1.csv
2018-07-04T12:22:12.397279,-0.487,-0.732,0.258,1.89,69.329,25.244,1_10_1.csv
2018-07-04T12:22:12.454432,-2.776,-2.335,0.395,-19.268,-62.073,-19.878,1_10_1.csv
2018-07-04T12:22:12.496043,-1.854,-1.53,0.205,-92.256,-6.829,9.878,1_10_1.csv
2018-07-04T12:22:12.573250,-0.004,-0.288,-0.051,-94.512,-50.915,27.866,1_10_1.csv
2018-07-04T12:22:12.627898,-0.004,-0.288,-0.051,2.195,-40.427,-11.098,1_10_1.csv
2018-07-04T12:22:12.668505,0.327,0.337,-0.328,47.927,18.78,-31.89,1_10_1.csv
2018-07-04T12:22:12.716133,0.327,0.337,-0.328,57.073,6.829,15.061,1_10_1.csv
2018-07-04T12:22:12.764262,0.048,0.06,-0.273,111.037,34.39,58.476,1_10_1.csv
2018-07-04T12:22:12.817906,-0.619,-0.236,0.674,94.085,51.89,-3.415,1_10_1.csv
2018-07-04T12:22:12.900127,-2.381,-1.493,0.381,-64.207,11.829,9.451,1_10_1.csv
2018-07-04T12:22:12.948756,-2.381,-1.493,0.381,-62.988,-20.366,-10.671,1_10_1.csv
2018-07-04T12:22:13.011927,-2.391,-2.071,0.265,-141.524,-18.659,-4.329,1_10_1.csv
2018-07-04T12:22:13.060054,-0.477,-0.445,0.007,105.854,1.341,11.28,1_10_1.csv
2018-07-04T12:22:13.109687,-0.477,-0.445,0.007,148.659,-34.39,-35.366,1_10_1.csv
2018-07-04T12:22:13.156312,0.365,0.545,-0.102,95.0,-11.463,-64.756,1_10_1.csv
2018-07-04T12:22:13.222991,0.074,0.153,-0.209,-47.927,9.207,15.549,1_10_1.csv
2018-07-04T12:22:13.268218,0.074,0.153,-0.209,-135.122,0.488,23.902,1_10_1.csv
2018-07-04T12:22:13.316347,-0.118,-0.174,0.042,-67.439,-8.049,13.537,1_10_1.csv
2018-07-04T12:22:13.359964,-0.118,-0.174,0.042,11.829,0.976,27.988,1_10_1.csv
2018-07-04T12:22:13.418120,-1.677,-1.05,-0.024,-11.524,-17.012,41.463,1_10_1.csv
2018-07-04T12:22:13.549973,-1.25,-1.031,0.565,4.451,-19.695,43.537,1_10_1.csv
2018-07-04T12:22:13.601109,-1.25,-1.031,0.565,162.988,-17.012,9.146,1_10_1.csv
2018-07-04T12:22:13.668791,0.367,0.231,0.089,26.89,14.573,1.524,1_10_1.csv
2018-07-04T12:22:13.719427,0.174,0.078,-0.145,10.427,15.915,26.28,1_10_1.csv
2018-07-04T12:22:13.762041,0.174,0.078,-0.145,-37.134,0.854,64.146,1_10_1.csv
2018-07-04T12:22:13.814181,-0.061,-0.068,-0.046,-62.378,-9.634,70.183,1_10_1.csv
2018-07-04T12:22:13.865819,-0.862,-0.351,0.092,-55.183,7.927,43.537,1_10_1.csv
2018-07-04T12:22:13.918961,-0.862,-0.351,0.092,-57.317,44.512,48.598,1_10_1.csv
2018-07-04T12:22:13.966589,-3.147,-1.17,-0.147,-163.171,-11.829,45.061,1_10_1.csv
2018-07-04T12:22:14.014216,-3.147,-1.17,-0.147,-233.537,-35.61,25.488,1_10_1.csv
2018-07-04T12:22:14.070868,-2.407,-1.197,0.276,119.451,17.5,-6.341,1_10_1.csv
2018-07-04T12:22:14.124010,-0.145,0.099,0.109,265.793,16.524,-13.232,1_10_1.csv
2018-07-04T12:22:14.169131,-0.145,0.099,0.109,58.598,-5.732,-39.573,1_10_1.csv
2018-07-04T12:22:14.286446,-0.017,-0.276,-0.163,85.915,29.024,35.061,1_10_1.csv
2018-07-04T12:22:14.332569,-0.017,-0.276,-0.163,13.049,20.976,32.134,1_10_1.csv
2018-07-04T12:22:14.377188,-0.557,-0.184,0.21,-27.561,16.402,-16.829,1_10_1.csv
2018-07-04T12:22:14.419302,-2.803,-0.535,0.138,-9.512,-3.11,38.171,1_10_1.csv
2018-07-04T12:22:14.469436,-2.803,-0.535,0.138,-200.305,8.415,46.28,1_10_1.csv
2018-07-04T12:22:14.544136,-3.03,-1.188,-0.288,122.134,8.415,-10.854,1_10_1.csv
2018-07-04T12:22:14.591764,-0.494,0.0,0.037,111.524,-31.22,-20.122,1_10_1.csv
2018-07-04T12:22:14.750852,0.09,-0.067,-0.06,32.5,-7.317,-2.744,1_10_1.csv
2018-07-04T12:22:14.803495,0.09,-0.067,-0.06,-19.146,-2.927,21.098,1_10_1.csv
2018-07-04T12:22:14.858641,-0.034,-0.337,-0.032,-44.634,12.256,19.268,1_10_1.csv
2018-07-04T12:22:14.906770,-1.795,-0.814,-0.083,110.366,95.671,-2.622,1_10_1.csv
2018-07-04T12:22:14.957532,-1.795,-0.814,-0.083,82.256,62.134,38.049,1_10_1.csv
2018-07-04T12:22:14.999362,-3.748,-0.832,-0.028,-83.598,-37.256,9.207,1_10_1.csv
2018-07-04T12:22:15.044982,-3.748,-0.832,-0.028,-188.659,-67.683,-37.805,1_10_1.csv
2018-07-04T12:22:15.097157,-1.17,-0.516,0.255,-37.378,-31.89,-30.0,1_10_1.csv
2018-07-04T12:22:15.147291,0.614,0.106,-0.067,78.598,-67.5,-38.293,1_10_1.csv
2018-07-04T12:22:15.201938,0.614,0.106,-0.067,1.585,-10.122,-36.89,1_10_1.csv
2018-07-04T12:22:15.248061,0.236,-0.005,-0.184,-39.817,-16.28,7.744,1_10_1.csv
2018-07-04T12:22:15.290676,0.236,-0.005,-0.184,-28.841,-9.207,37.561,1_10_1.csv
2018-07-04T12:22:15.337801,-0.031,-0.131,0.05,-15.305,3.598,30.549,1_10_1.csv
2018-07-04T12:22:15.383925,-0.031,-0.131,0.05,-15.183,21.707,9.146,1_10_1.csv
2018-07-04T12:22:15.432054,-1.191,-0.488,0.497,32.561,8.841,37.988,1_10_1.csv
2018-07-04T12:22:15.478679,-3.393,-1.178,-0.434,-117.683,-27.561,36.28,1_10_1.csv
2018-07-04T12:22:15.527309,-3.393,-1.178,-0.434,-155.671,-23.476,10.61,1_10_1.csv
2018-07-04T12:22:15.771588,0.378,0.146,-0.042,-1.89,-7.012,1.037,1_10_1.csv
2018-07-04T12:22:15.824233,0.05,-0.148,-0.148,-24.634,-9.512,52.744,1_10_1.csv
2018-07-04T12:22:15.873365,-0.418,-0.181,-0.021,-30.61,5.915,51.89,1_10_1.csv
2018-07-04T12:22:15.915483,-0.418,-0.181,-0.021,-18.537,45.549,36.646,1_10_1.csv
2018-07-04T12:22:15.965617,-3.084,-1.02,-0.32,-97.317,75.0,27.134,1_10_1.csv
2018-07-04T12:22:16.007232,-3.084,-1.02,-0.32,-213.415,-68.537,9.207,1_10_1.csv
2018-07-04T12:22:16.066894,-2.903,-0.891,0.475,-127.805,-11.341,-26.037,1_10_1.csv
2018-07-04T12:22:16.119037,-0.403,-0.195,0.281,179.207,-2.256,-6.524,1_10_1.csv
2018-07-04T12:22:16.164158,-0.403,-0.195,0.281,124.695,-17.927,-38.293,1_10_1.csv
2018-07-04T12:22:16.215299,0.523,0.109,-0.18,46.951,-25.0,-65.183,1_10_1.csv
2018-07-04T12:22:16.272454,0.096,-0.078,-0.241,30.366,1.22,-9.207,1_10_1.csv
2018-07-04T12:22:16.322592,0.096,-0.078,-0.241,32.561,-2.134,11.707,1_10_1.csv
2018-07-04T12:22:16.399301,-0.145,-0.118,-0.028,13.841,25.0,-15.305,1_10_1.csv
2018-07-04T12:22:16.447520,-2.123,-0.67,0.405,49.39,57.622,12.073,1_10_1.csv
2018-07-04T12:22:16.492139,-2.123,-0.67,0.405,-87.866,-14.085,16.463,1_10_1.csv
2018-07-04T12:22:16.541271,-3.419,-1.331,0.191,-152.866,-41.341,6.341,1_10_1.csv
2018-07-04T12:22:16.587896,-3.419,-1.331,0.191,-60.061,-12.805,-32.805,1_10_1.csv
2018-07-04T12:22:16.635524,-1.111,-0.709,0.135,128.842,-24.939,-26.159,1_10_1.csv
2018-07-04T12:22:16.701199,0.447,0.256,-0.022,84.329,-7.744,-75.793,1_10_1.csv
2018-07-04T12:22:16.743814,0.447,0.256,-0.022,34.085,24.451,-74.451,1_10_1.csv
2018-07-04T12:22:16.790438,0.27,0.061,-0.117,-17.683,6.037,-29.695,1_10_1.csv
2018-07-04T12:22:16.839571,-0.056,-0.105,0.044,30.671,18.902,23.72,1_10_1.csv
2018-07-04T12:22:16.884691,-0.056,-0.105,0.044,19.512,25.61,6.951,1_10_1.csv
2018-07-04T12:22:16.985463,-1.318,-0.586,0.506,31.707,37.256,26.951,1_10_1.csv
2018-07-04T12:22:17.033590,-3.383,-1.642,0.143,-122.866,-32.012,-28.293,1_10_1.csv
2018-07-04T12:22:17.092247,-1.583,-0.857,0.208,33.293,-7.317,-22.866,1_10_1.csv
2018-07-04T12:22:17.134862,-1.583,-0.857,0.208,78.78,-42.134,5.244,1_10_1.csv
2018-07-04T12:22:17.186500,0.394,0.201,-0.085,-6.341,-52.5,-34.817,1_10_1.csv
2018-07-04T12:22:17.234127,0.255,0.233,-0.084,37.134,19.512,-15.122,1_10_1.csv
2018-07-04T12:22:17.291391,0.255,0.233,-0.084,-12.195,-0.732,30.0,1_10_1.csv
2018-07-04T12:22:17.343533,-0.078,0.19,-0.012,-72.561,-9.756,61.341,1_10_1.csv
2018-07-04T12:22:17.387150,-0.078,0.19,-0.012,-119.939,-11.098,82.378,1_10_1.csv
2018-07-04T12:22:17.431429,-0.899,-0.196,0.066,-121.281,-4.329,95.488,1_10_1.csv
2018-07-04T12:22:17.479558,-3.419,-1.144,-0.321,-206.524,-27.805,88.902,1_10_1.csv
2018-07-04T12:22:17.522673,-3.419,-1.144,-0.321,-180.122,0.61,103.781,1_10_1.csv
2018-07-04T12:22:17.570802,-2.516,-0.987,0.283,-51.524,88.354,32.988,1_10_1.csv
2018-07-04T12:22:17.624947,-2.516,-0.987,0.283,7.622,3.11,-22.5,1_10_1.csv
2018-07-04T12:22:17.682100,-0.036,-0.202,0.252,202.683,-30.793,-40.854,1_10_1.csv
2018-07-04T12:22:17.726218,0.382,0.217,-0.011,32.317,-7.622,-66.707,1_10_1.csv
2018-07-04T12:22:17.775852,0.382,0.217,-0.011,-43.659,-12.744,-55.976,1_10_1.csv
2018-07-04T12:22:17.822476,0.085,-0.046,-0.185,18.902,-3.537,-18.11,1_10_1.csv
2018-07-04T12:22:17.869101,0.085,-0.046,-0.185,58.963,-2.439,22.317,1_10_1.csv
2018-07-04T12:22:17.922745,-0.285,0.075,-0.196,-65.854,18.659,37.012,1_10_1.csv
2018-07-04T12:22:17.966362,-2.777,-0.581,-0.618,-122.866,50.671,31.037,1_10_1.csv
2018-07-04T12:22:18.025019,-2.777,-0.581,-0.618,-192.927,7.195,16.585,1_10_1.csv
2018-07-04T12:22:18.076156,-3.128,-0.966,0.567,-345.061,-11.524,-25.0,1_10_1.csv
2018-07-04T12:22:18.123282,-0.884,-0.635,-0.083,306.89,15.427,49.451,1_10_1.csv
2018-07-04T12:22:18.167914,-0.884,-0.635,-0.083,298.598,-31.341,-6.768,1_10_1.csv
2018-07-04T12:22:18.221056,0.489,0.232,-0.126,78.598,-35.0,-43.354,1_10_1.csv
2018-07-04T12:22:18.259659,0.489,0.232,-0.126,-9.634,-0.793,-58.78,1_10_1.csv
2018-07-04T12:22:18.352408,0.172,-0.118,-0.134,71.585,1.159,-12.073,1_10_1.csv
2018-07-04T12:22:18.406051,-0.166,-0.1,-0.259,-79.268,-13.659,-42.561,1_10_1.csv
2018-07-04T12:22:18.452189,-1.553,-0.341,0.004,-26.524,36.037,-49.695,1_10_1.csv
2018-07-04T12:22:18.499817,-1.553,-0.341,0.004,-36.463,33.78,-19.756,1_10_1.csv
2018-07-04T12:22:18.550954,-3.177,-1.489,0.277,-176.037,-73.476,-12.866,1_10_1.csv
2018-07-04T12:22:18.602592,-1.664,-1.049,-0.101,133.476,38.171,15.0,1_10_1.csv
2018-07-04T12:22:18.649719,-1.664,-1.049,-0.101,174.878,-32.439,31.22,1_10_1.csv
2018-07-04T12:22:18.697848,-0.048,0.09,-0.032,53.354,-36.646,-12.439,1_10_1.csv
2018-07-04T12:22:18.741966,-0.048,0.09,-0.032,34.207,-20.0,-55.122,1_10_1.csv
2018-07-04T12:22:18.790596,0.257,0.196,-0.031,36.951,2.378,-56.768,1_10_1.csv
2018-07-04T12:22:18.841232,0.257,0.196,-0.031,29.878,10.488,-18.72,1_10_1.csv
2018-07-04T12:22:18.883345,0.0,0.027,-0.096,0.854,6.707,45.854,1_10_1.csv
2018-07-04T12:22:18.932476,-0.413,-0.173,0.018,4.756,15.854,37.439,1_10_1.csv
2018-07-04T12:22:18.978600,-0.413,-0.173,0.018,12.622,45.305,42.073,1_10_1.csv
2018-07-04T12:22:19.024723,-3.101,-1.092,-0.277,-52.744,89.146,63.537,1_10_1.csv
2018-07-04T12:22:19.071348,-3.101,-1.092,-0.277,-200.305,-11.89,30.061,1_10_1.csv
2018-07-04T12:22:19.129003,-2.825,-1.161,0.455,36.22,-3.293,-13.841,1_10_1.csv
2018-07-04T12:22:19.181142,-0.354,-0.215,0.076,153.476,0.305,-7.317,1_10_1.csv
2018-07-04T12:22:19.227266,-0.354,-0.215,0.076,84.512,-17.256,-38.232,1_10_1.csv
2018-07-04T12:22:19.274894,0.509,0.293,-0.14,94.207,7.988,-63.171,1_10_1.csv
2018-07-04T12:22:19.322521,0.509,0.293,-0.14,128.232,43.415,-38.72,1_10_1.csv
2018-07-04T12:22:19.369156,0.187,0.079,-0.061,89.207,28.78,65.305,1_10_1.csv
2018-07-04T12:22:19.419791,-0.115,-0.124,0.142,29.817,24.695,86.098,1_10_1.csv
2018-07-04T12:22:19.461402,-0.115,-0.124,0.142,22.317,33.78,81.646,1_10_1.csv
2018-07-04T12:22:19.529585,-2.36,-0.632,-0.147,-165.976,7.622,31.768,1_10_1.csv
2018-07-04T12:22:19.576210,-3.236,-0.812,0.151,-343.537,-84.085,-77.012,1_10_1.csv
2018-07-04T12:22:19.618323,-3.236,-0.812,0.151,-113.781,14.085,-96.463,1_10_1.csv
2018-07-04T12:22:19.826845,0.387,0.296,-0.164,35.915,-19.512,-73.232,1_10_1.csv
2018-07-04T12:22:19.881492,0.387,0.296,-0.164,45.976,1.22,-15.854,1_10_1.csv
2018-07-04T12:22:19.932128,0.07,0.051,-0.035,11.585,25.122,51.89,1_10_1.csv
2018-07-04T12:22:19.976749,-1.028,-0.277,-0.025,-15.61,28.78,52.805,1_10_1.csv
2018-07-04T12:22:20.025879,-1.028,-0.277,-0.025,-80.122,33.78,74.268,1_10_1.csv
2018-07-04T12:22:20.071502,-3.597,-1.153,-0.096,-221.951,-11.402,94.817,1_10_1.csv
2018-07-04T12:22:20.118126,-3.597,-1.153,-0.096,-262.805,-32.561,54.939,1_10_1.csv
2018-07-04T12:22:20.182800,-2.147,-0.785,0.624,96.524,33.598,-41.707,1_10_1.csv
2018-07-04T12:22:20.290588,0.42,0.04,-0.162,3.11,-14.695,-20.793,1_10_1.csv
2018-07-04T12:22:20.338718,0.42,0.04,-0.162,1.829,-3.11,-20.122,1_10_1.csv
2018-07-04T12:22:20.385343,0.089,-0.168,-0.186,27.5,-3.841,1.646,1_10_1.csv
2018-07-04T12:22:20.431967,0.089,-0.168,-0.186,15.793,-6.037,17.927,1_10_1.csv
2018-07-04T12:22:20.476587,-0.263,-0.269,0.074,10.366,18.232,22.317,1_10_1.csv
2018-07-04T12:22:20.531234,-2.491,-0.843,-0.176,48.415,99.512,37.195,1_10_1.csv
2018-07-04T12:22:20.571340,-2.491,-0.843,-0.176,45.183,36.463,17.683,1_10_1.csv
2018-07-04T12:22:20.617965,-3.346,-0.606,0.101,-29.573,-50.854,-64.146,1_10_1.csv
2018-07-04T12:22:20.668100,-3.346,-0.606,0.101,-47.256,-16.707,-146.159,1_10_1.csv
2018-07-04T12:22:20.712720,-1.253,-0.362,0.168,104.207,11.829,-105.366,1_10_1.csv
2018-07-04T12:22:20.759845,-1.253,-0.362,0.168,237.805,-9.268,-31.037,1_10_1.csv
2018-07-04T12:22:20.814993,0.258,0.471,0.042,1.707,-29.024,-70.0,1_10_1.csv
2018-07-04T12:22:20.869138,0.2,0.116,-0.037,-27.378,-1.707,-36.524,1_10_1.csv
2018-07-04T12:22:20.915763,0.2,0.116,-0.037,-0.671,-3.963,10.366,1_10_1.csv
2018-07-04T12:22:20.964894,-0.029,-0.018,-0.173,-12.439,-23.659,56.707,1_10_1.csv
2018-07-04T12:22:21.009013,-0.029,-0.018,-0.173,-73.963,-28.171,69.207,1_10_1.csv
2018-07-04T12:22:21.093239,-0.723,-0.243,-0.079,-102.927,21.22,63.659,1_10_1.csv
2018-07-04T12:22:21.156408,-3.472,-1.38,0.177,-468.293,-74.329,10.061,1_10_1.csv
2018-07-04T12:22:21.258180,0.043,-0.054,0.076,170.122,24.939,-18.293,1_10_1.csv
2018-07-04T12:22:21.307813,0.043,-0.054,0.076,-9.878,-24.451,-26.037,1_10_1.csv
2018-07-04T12:22:21.354438,0.287,0.119,-0.152,-14.756,0.244,-25.732,1_10_1.csv
2018-07-04T12:22:21.405575,0.287,0.119,-0.152,76.707,25.671,-12.195,1_10_1.csv
2018-07-04T12:22:21.451699,-0.118,-0.018,0.039,90.976,27.744,12.561,1_10_1.csv
2018-07-04T12:22:21.513364,-0.199,-0.115,0.199,50.854,7.012,9.146,1_10_1.csv
2018-07-04T12:22:21.571520,-0.199,-0.115,0.199,68.659,12.988,-2.012,1_10_1.csv
2018-07-04T12:22:21.619147,-1.754,-0.846,-0.145,12.439,11.646,14.146,1_10_1.csv
2018-07-04T12:22:21.668781,-3.226,-1.189,-0.129,-73.171,-24.024,2.073,1_10_1.csv
2018-07-04T12:22:21.713400,-3.226,-1.189,-0.129,-73.963,-22.317,6.707,1_10_1.csv
2018-07-04T12:22:21.773561,-1.805,-0.604,0.198,41.524,22.5,-7.744,1_10_1.csv
2018-07-04T12:22:21.828207,0.137,0.084,0.022,99.085,-42.683,-31.28,1_10_1.csv
2018-07-04T12:22:21.873329,0.137,0.084,0.022,72.622,-26.646,-69.39,1_10_1.csv
2018-07-04T12:22:21.917948,0.307,0.24,-0.014,43.72,-15.244,-58.415,1_10_1.csv
2018-07-04T12:22:21.968082,0.307,0.24,-0.014,-7.256,-19.756,-10.061,1_10_1.csv
2018-07-04T12:22:22.009192,0.001,-0.019,-0.058,-21.159,-19.39,31.585,1_10_1.csv
2018-07-04T12:22:22.055939,0.001,-0.019,-0.058,-13.11,-16.646,55.915,1_10_1.csv
2018-07-04T12:22:22.117103,-0.35,-0.086,0.125,-48.537,4.573,38.598,1_10_1.csv
2018-07-04T12:22:22.167739,-2.752,-1.226,-0.196,-51.159,60.244,58.171,1_10_1.csv
2018-07-04T12:22:22.212358,-2.752,-1.226,-0.196,-85.671,-66.829,65.549,1_10_1.csv
2018-07-04T12:22:22.264999,-2.765,-1.378,0.396,-68.902,54.085,-61.22,1_10_1.csv
2018-07-04T12:22:22.326664,-0.787,-0.436,0.335,173.232,83.11,-58.659,1_10_1.csv
2018-07-04T12:22:22.370282,-0.787,-0.436,0.335,186.342,5.0,-36.829,1_10_1.csv
2018-07-04T12:22:22.686127,-1.298,-0.546,0.147,102.744,86.159,47.561,1_10_1.csv
2018-07-04T12:22:22.786897,-2.112,-0.919,0.512,-181.524,-21.89,-36.951,1_10_1.csv
2018-07-04T12:22:22.837561,-2.112,-0.919,0.512,43.049,0.915,-12.805,1_10_1.csv
2018-07-04T12:22:22.886191,-0.192,-0.308,0.25,100.305,-21.402,6.22,1_10_1.csv
2018-07-04T12:22:22.935323,-0.192,-0.308,0.25,42.073,-50.427,-23.72,1_10_1.csv
2018-07-04T12:22:22.978940,0.461,0.106,-0.152,12.5,-25.488,-37.988,1_10_1.csv
2018-07-04T12:22:23.023559,0.073,-0.065,-0.022,29.939,2.988,13.841,1_10_1.csv
2018-07-04T12:22:23.072190,0.073,-0.065,-0.022,5.061,-1.768,29.329,1_10_1.csv
2018-07-04T12:22:23.119818,-0.143,-0.093,-0.076,-20.549,-5.061,20.305,1_10_1.csv
2018-07-04T12:22:23.168447,-0.143,-0.093,-0.076,-21.89,4.207,3.598,1_10_1.csv
2018-07-04T12:22:23.217579,-2.027,-0.723,0.113,-4.329,54.634,24.024,1_10_1.csv
2018-07-04T12:22:23.266711,-3.23,-1.79,0.574,-413.902,-124.024,-16.402,1_10_1.csv
2018-07-04T12:22:23.357454,-1.207,-0.864,0.232,109.817,45.244,22.134,1_10_1.csv
2018-07-04T12:22:23.404078,-1.207,-0.864,0.232,76.341,-1.341,27.317,1_10_1.csv
2018-07-04T12:22:23.451706,0.329,0.224,-0.109,67.866,-26.463,-16.707,1_10_1.csv
2018-07-04T12:22:23.505350,0.295,0.123,-0.163,58.72,-0.976,-45.488,1_10_1.csv
2018-07-04T12:22:23.547463,0.295,0.123,-0.163,-12.134,-1.463,27.317,1_10_1.csv
2018-07-04T12:22:23.594589,0.015,-0.078,-0.11,-13.598,18.232,53.78,1_10_1.csv
2018-07-04T12:22:23.642765,0.015,-0.078,-0.11,-31.707,36.22,46.707,1_10_1.csv
2018-07-04T12:22:23.705433,-0.704,-0.326,0.212,-67.622,42.317,21.646,1_10_1.csv
2018-07-04T12:22:23.880184,-2.346,-1.156,0.19,173.781,40.915,6.463,1_10_1.csv
2018-07-04T12:22:23.941351,-0.172,-0.221,-0.036,108.171,5.244,7.073,1_10_1.csv
2018-07-04T12:22:23.985471,-0.172,-0.221,-0.036,57.561,-25.488,-27.5,1_10_1.csv
2018-07-04T12:22:24.028587,0.333,0.105,-0.075,100.976,34.634,-40.915,1_10_1.csv
2018-07-04T12:22:24.086241,0.03,0.121,-0.018,100.244,17.134,-6.22,1_10_1.csv
2018-07-04T12:22:24.144397,0.03,0.121,-0.018,39.939,1.159,22.561,1_10_1.csv
2018-07-04T12:22:24.184004,-0.117,-0.096,-0.108,-47.134,-9.329,21.463,1_10_1.csv
2018-07-04T12:22:24.230629,-2.156,-0.943,0.162,30.61,27.378,28.841,1_10_1.csv
2018-07-04T12:22:24.278256,-2.156,-0.943,0.162,-113.293,-20.671,-1.829,1_10_1.csv
2018-07-04T12:22:24.337915,-3.236,-1.473,0.524,-66.037,3.841,9.146,1_10_1.csv
2018-07-04T12:22:24.387549,-3.236,-1.473,0.524,32.622,41.159,1.28,1_10_1.csv
2018-07-04T12:22:24.433171,-0.968,-0.578,0.064,83.476,-10.915,5.671,1_10_1.csv
2018-07-04T12:22:24.485311,0.273,-0.004,-0.066,-16.098,-18.963,-22.622,1_10_1.csv
2018-07-04T12:22:24.541461,0.273,-0.004,-0.066,18.049,11.037,-55.427,1_10_1.csv
2018-07-04T12:22:24.607137,0.187,0.062,-0.043,92.683,36.341,-0.732,1_10_1.csv
2018-07-04T12:22:24.660781,-0.013,0.037,-0.043,44.085,13.354,28.659,1_10_1.csv
2018-07-04T12:22:24.713923,-0.709,-0.204,0.382,41.829,22.378,-11.402,1_10_1.csv
2018-07-04T12:22:24.760046,-0.709,-0.204,0.382,-16.037,-4.268,-14.329,1_10_1.csv
2018-07-04T12:22:24.807173,-2.988,-1.611,0.031,-182.5,-81.402,6.768,1_10_1.csv
2018-07-04T12:22:24.854299,-2.988,-1.611,0.031,-210.488,-73.232,50.427,1_10_1.csv
2018-07-04T12:22:24.899420,-2.495,-1.027,0.143,-7.866,22.927,2.134,1_10_1.csv
2018-07-04T12:22:24.966600,-0.588,-0.074,0.211,121.463,-12.073,23.293,1_10_1.csv
2018-07-04T12:22:25.015230,-0.588,-0.074,0.211,-19.085,-43.293,-3.232,1_10_1.csv
2018-07-04T12:22:25.066367,0.348,0.071,-0.178,-55.854,-37.683,-36.22,1_10_1.csv
2018-07-04T12:22:25.342106,-1.865,-0.654,-0.056,-185.976,-1.22,54.024,1_10_1.csv
2018-07-04T12:22:25.438865,-1.442,-0.917,0.123,142.256,40.366,25.122,1_10_1.csv
2018-07-04T12:22:25.480476,-1.442,-0.917,0.123,368.049,1.22,41.463,1_10_1.csv
2018-07-04T12:22:25.587263,0.191,0.063,-0.008,-31.646,-7.561,-44.024,1_10_1.csv
2018-07-04T12:22:25.638901,0.218,-0.05,-0.146,118.476,18.049,-22.439,1_10_1.csv
2018-07-04T12:22:25.684022,-0.035,0.087,-0.118,74.024,-2.561,13.902,1_10_1.csv
2018-07-04T12:22:25.732151,-0.035,0.087,-0.118,-29.207,-4.939,14.085,1_10_1.csv
2018-07-04T12:22:25.782285,-0.584,-0.062,0.072,-27.073,6.22,-4.573,1_10_1.csv
2018-07-04T12:22:25.885924,-3.62,-1.043,-0.023,-318.232,-40.976,16.829,1_10_1.csv
2018-07-04T12:22:25.937061,-2.492,-1.245,0.293,-118.171,-1.951,-25.427,1_10_1.csv
2018-07-04T12:22:25.987195,-2.492,-1.245,0.293,302.317,28.841,-9.695,1_10_1.csv
2018-07-04T12:22:26.031314,0.185,0.176,-0.111,252.5,-32.622,-12.683,1_10_1.csv
2018-07-04T12:22:26.076936,0.185,0.176,-0.111,25.183,-27.195,-35.732,1_10_1.csv
2018-07-04T12:22:26.132585,0.349,0.121,-0.188,74.085,11.159,-28.598,1_10_1.csv
2018-07-04T12:22:26.197259,0.04,-0.076,-0.194,15.427,-3.78,16.646,1_10_1.csv
2018-07-04T12:22:26.276973,-0.221,-0.073,0.061,4.085,26.402,13.902,1_10_1.csv
2018-07-04T12:22:26.341647,-2.418,-0.727,0.236,14.939,59.329,22.134,1_10_1.csv
2018-07-04T12:22:26.388275,-2.418,-0.727,0.236,-79.207,7.195,30.427,1_10_1.csv
2018-07-04T12:22:26.437911,-3.271,-1.119,-0.081,-192.134,-22.683,-11.768,1_10_1.csv
2018-07-04T12:22:26.524145,-1.174,-0.375,0.095,126.707,-47.927,-1.402,1_10_1.csv
2018-07-04T12:22:26.575449,0.274,0.162,-0.122,19.634,-55.244,-47.134,1_10_1.csv
2018-07-04T12:22:26.624747,0.274,0.162,-0.122,43.537,-4.573,-64.695,1_10_1.csv
2018-07-04T12:22:26.669366,0.223,0.188,-0.187,46.037,2.378,-47.561,1_10_1.csv
2018-07-04T12:22:26.721005,0.223,0.188,-0.187,-21.463,0.915,6.585,1_10_1.csv
2018-07-04T12:22:26.780164,-0.069,-0.078,-0.067,-61.037,6.707,49.634,1_10_1.csv
2018-07-04T12:22:26.833306,-0.86,-0.264,0.146,-47.439,27.805,32.073,1_10_1.csv
2018-07-04T12:22:26.873413,-0.86,-0.264,0.146,-88.78,31.829,50.183,1_10_1.csv
2018-07-04T12:22:26.921041,-3.064,-1.081,-0.173,-192.622,-17.195,74.146,1_10_1.csv
2018-07-04T12:22:26.965660,-2.607,-0.867,0.191,-212.439,21.159,-32.561,1_10_1.csv
2018-07-04T12:22:27.018803,-2.607,-0.867,0.191,80.732,3.72,-24.939,1_10_1.csv
2018-07-04T12:22:27.069438,-0.56,-0.174,0.111,241.037,-16.28,12.988,1_10_1.csv
2018-07-04T12:22:27.122581,-0.56,-0.174,0.111,60.976,-46.951,-25.915,1_10_1.csv
2018-07-04T12:22:27.175222,0.372,0.099,-0.014,78.293,8.232,-50.244,1_10_1.csv
2018-07-04T12:22:27.222849,0.166,0.01,-0.14,76.707,2.866,-26.159,1_10_1.csv
2018-07-04T12:22:27.265965,0.166,0.01,-0.14,18.049,-8.902,20.0,1_10_1.csv
2018-07-04T12:22:27.311736,-0.109,-0.064,-0.14,-22.012,-9.634,39.146,1_10_1.csv
2018-07-04T12:22:27.363878,-0.109,-0.064,-0.14,-18.232,7.744,15.854,1_10_1.csv
2018-07-04T12:22:27.408999,-1.794,-0.45,-0.169,-128.476,25.427,26.341,1_10_1.csv
2018-07-04T12:22:27.461139,-3.406,-0.973,0.296,-343.354,-100.366,13.171,1_10_1.csv
2018-07-04T12:22:27.510270,-3.406,-0.973,0.296,-257.5,-27.012,-22.256,1_10_1.csv
2018-07-04T12:22:27.556896,-1.639,-0.7,0.195,80.915,46.768,-17.256,1_10_1.csv
2018-07-04T12:22:27.604021,-1.639,-0.7,0.195,253.232,-1.28,31.402,1_10_1.csv
2018-07-04T12:22:27.650145,0.238,-0.035,-0.071,43.78,1.646,12.866,1_10_1.csv
2018-07-04T12:22:27.698274,0.332,0.04,-0.014,32.134,21.22,3.171,1_10_1.csv
2018-07-04T12:22:27.749947,0.332,0.04,-0.014,64.329,17.317,0.793,1_10_1.csv
2018-07-04T12:22:27.791057,-0.042,-0.158,-0.101,29.695,5.427,20.549,1_10_1.csv
2018-07-04T12:22:28.016542,-2.915,-0.63,0.463,-139.024,-2.5,-20.305,1_10_1.csv
2018-07-04T12:22:28.058655,-2.915,-0.63,0.463,-64.512,22.927,-28.415,1_10_1.csv
2018-07-04T12:22:28.106789,-1.018,-0.547,-0.059,219.39,11.829,18.232,1_10_1.csv
2018-07-04T12:22:28.156923,-1.018,-0.547,-0.059,319.451,-31.463,21.341,1_10_1.csv
2018-07-04T12:22:28.210072,0.336,0.283,-0.089,-10.61,18.232,-75.915,1_10_1.csv
2018-07-04T12:22:28.259204,0.23,-0.043,-0.132,4.817,25.976,-44.634,1_10_1.csv
2018-07-04T12:22:28.305333,0.23,-0.043,-0.132,56.768,29.695,11.22,1_10_1.csv
2018-07-04T12:22:28.354464,-0.049,0.071,-0.217,42.683,30.549,36.22,1_10_1.csv
2018-07-04T12:22:28.399592,-0.049,0.071,-0.217,-42.073,26.646,14.268,1_10_1.csv
2018-07-04T12:22:28.447720,-0.833,-0.112,0.189,-61.646,31.707,-8.476,1_10_1.csv
2018-07-04T12:22:28.495856,-3.503,-1.036,-0.122,-189.207,-37.134,1.28,1_10_1.csv
2018-07-04T12:22:28.538971,-3.503,-1.036,-0.122,-227.866,-43.902,-33.354,1_10_1.csv
2018-07-04T12:22:28.587105,-2.387,-0.676,0.141,27.378,12.622,-24.817,1_10_1.csv
2018-07-04T12:22:28.637240,-2.387,-0.676,0.141,186.159,30.854,10.976,1_10_1.csv
2018-07-04T12:22:28.681364,-0.131,-0.117,-0.215,55.183,-47.012,-1.768,1_10_1.csv
2018-07-04T12:22:28.729493,-0.131,-0.117,-0.215,-42.866,-50.671,-42.378,1_10_1.csv
2018-07-04T12:22:28.787654,0.415,0.102,-0.039,79.512,31.951,-31.22,1_10_1.csv
2018-07-04T12:22:28.837788,0.021,-0.015,0.023,16.829,11.402,20.305,1_10_1.csv
2018-07-04T12:22:28.884415,0.021,-0.015,0.023,-30.61,6.768,36.524,1_10_1.csv
2018-07-04T12:22:28.932544,-0.239,-0.135,0.056,-22.561,7.439,21.585,1_10_1.csv
2018-07-04T12:22:28.977665,-2.244,-0.623,-0.164,-44.939,26.098,15.915,1_10_1.csv
2018-07-04T12:22:29.024290,-2.244,-0.623,-0.164,-129.085,8.598,16.341,1_10_1.csv
2018-07-04T12:22:29.107513,-3.17,-0.95,0.095,46.098,15.305,-3.72,1_10_1.csv
2018-07-04T12:22:29.152132,-1.324,-0.566,-0.216,111.829,5.793,7.195,1_10_1.csv
2018-07-04T12:22:29.197755,-1.324,-0.566,-0.216,85.061,-41.463,-7.195,1_10_1.csv
2018-07-04T12:22:29.245382,0.1,-0.069,-0.032,38.049,-42.378,-53.11,1_10_1.csv
2018-07-04T12:22:29.431882,-0.072,0.131,-0.125,-24.268,-14.085,34.634,1_10_1.csv
2018-07-04T12:22:29.478005,-0.706,-0.198,-0.272,-66.28,-6.524,42.134,1_10_1.csv
2018-07-04T12:22:29.538166,-2.995,-0.91,-0.117,-82.256,5.671,52.866,1_10_1.csv
2018-07-04T12:22:29.587298,-2.995,-0.91,-0.117,-200.976,-55.854,29.146,1_10_1.csv
2018-07-04T12:22:29.634425,-2.613,-1.296,0.354,-297.439,-21.22,13.841,1_10_1.csv
2018-07-04T12:22:29.682052,-2.613,-1.296,0.354,52.866,47.744,25.305,1_10_1.csv
2018-07-04T12:22:29.728175,-0.613,-0.228,-0.162,235.366,2.561,-5.366,1_10_1.csv
2018-07-04T12:22:29.774299,-0.613,-0.228,-0.162,159.024,-49.817,-34.939,1_10_1.csv
2018-07-04T12:22:29.825937,0.44,0.264,-0.012,3.841,5.061,-43.171,1_10_1.csv
2018-07-04T12:22:29.868551,0.108,-0.014,-0.061,33.963,0.427,-15.366,1_10_1.csv
2018-07-04T12:22:29.916179,0.108,-0.014,-0.061,26.951,-2.866,33.11,1_10_1.csv
2018-07-04T12:22:29.964308,-0.189,0.002,-0.074,-27.134,-7.866,42.317,1_10_1.csv
2018-07-04T12:22:30.008928,-0.189,0.002,-0.074,-52.012,7.683,22.256,1_10_1.csv
2018-07-04T12:22:30.055051,-1.839,-0.542,-0.174,-29.512,31.768,15.915,1_10_1.csv
2018-07-04T12:22:30.110836,-3.357,-0.967,0.109,-104.573,-37.5,14.39,1_10_1.csv
2018-07-04T12:22:30.169493,-3.357,-0.967,0.109,-161.342,10.0,-21.89,1_10_1.csv
2018-07-04T12:22:30.215617,-1.539,-0.889,0.53,28.11,40.0,-14.024,1_10_1.csv
2018-07-04T12:22:30.259233,-1.539,-0.889,0.53,227.561,-12.805,12.683,1_10_1.csv
2018-07-04T12:22:30.321400,0.076,-0.12,-0.003,-1.28,-45.305,-45.427,1_10_1.csv
2018-07-04T12:22:30.398106,0.272,0.037,-0.227,-1.524,-3.78,-59.756,1_10_1.csv
2018-07-04T12:22:30.453253,0.114,0.127,-0.213,34.939,2.317,-35.366,1_10_1.csv
2018-07-04T12:22:30.499377,0.114,0.127,-0.213,7.683,11.951,-10.793,1_10_1.csv
2018-07-04T12:22:30.554609,-0.577,-0.076,-0.02,2.683,37.012,31.585,1_10_1.csv
2018-07-04T12:22:30.603242,-3.088,-1.09,0.162,-38.171,-19.329,37.317,1_10_1.csv
2018-07-04T12:22:30.682457,-2.571,-1.353,0.589,-182.561,16.585,-7.988,1_10_1.csv
2018-07-04T12:22:30.730084,-2.571,-1.353,0.589,125.854,44.817,-0.732,1_10_1.csv
2018-07-04T12:22:30.798769,-0.514,-0.339,-0.049,17.683,-65.854,-3.476,1_10_1.csv
2018-07-04T12:22:30.838378,0.408,0.295,-0.166,-40.061,-50.305,-33.11,1_10_1.csv
2018-07-04T12:22:30.882999,0.408,0.295,-0.166,-17.378,-4.756,-33.293,1_10_1.csv
2018-07-04T12:22:30.932131,-0.008,0.01,-0.207,29.756,3.72,-5.488,1_10_1.csv
2018-07-04T12:22:30.976254,-0.008,0.01,-0.207,-16.037,3.476,42.256,1_10_1.csv
2018-07-04T12:22:31.025385,-0.148,-0.03,-0.036,-77.073,45.976,50.061,1_10_1.csv
2018-07-04T12:22:31.086554,-1.5,-0.535,0.044,-0.915,76.159,42.439,1_10_1.csv
2018-07-04T12:22:31.135686,-1.5,-0.535,0.044,0.976,75.427,45.854,1_10_1.csv
2018-07-04T12:22:31.180809,-3.407,-1.029,-0.029,-88.354,-26.28,62.622,1_10_1.csv
2018-07-04T12:22:31.229941,-2.021,-0.63,0.135,-48.537,31.829,-42.378,1_10_1.csv
2018-07-04T12:22:31.274059,-2.021,-0.63,0.135,135.244,-24.329,-32.744,1_10_1.csv
2018-07-04T12:22:31.321686,-0.066,0.071,-0.097,155.732,-51.22,-17.683,1_10_1.csv
2018-07-04T12:22:31.378839,-0.066,0.071,-0.097,34.817,-39.939,-52.256,1_10_1.csv
2018-07-04T12:22:31.481614,0.127,0.044,0.003,20.793,20.0,0.854,1_10_1.csv
2018-07-04T12:22:31.540773,0.127,0.044,0.003,16.768,15.488,34.939,1_10_1.csv
2018-07-04T12:22:31.588902,-0.201,0.033,0.021,-38.171,12.927,27.744,1_10_1.csv
2018-07-04T12:22:31.634023,-2.646,-0.888,-0.293,-95.427,-2.012,57.317,1_10_1.csv
2018-07-04T12:22:31.680648,-2.646,-0.888,-0.293,-197.805,-31.89,79.573,1_10_1.csv
2018-07-04T12:22:31.731785,-3.147,-0.896,0.059,-147.012,34.085,36.463,1_10_1.csv
2018-07-04T12:22:31.774399,-3.147,-0.896,0.059,-26.646,60.305,-11.341,1_10_1.csv
2018-07-04T12:22:31.822528,-1.173,-0.448,-0.125,239.939,-19.695,19.268,1_10_1.csv
2018-07-04T12:22:31.869152,0.255,0.255,0.085,116.098,-27.012,-33.11,1_10_1.csv
2018-07-04T12:22:31.914775,0.255,0.255,0.085,66.28,-4.817,-39.512,1_10_1.csv
2018-07-04T12:22:31.962904,0.222,0.187,-0.194,-8.476,-4.329,-51.28,1_10_1.csv
2018-07-04T12:22:32.038606,0.019,-0.049,-0.176,12.866,-15.488,17.744,1_10_1.csv
2018-07-04T12:22:32.087237,0.019,-0.049,-0.176,-42.805,-7.866,57.256,1_10_1.csv
2018-07-04T12:22:32.136369,-1.109,-0.139,-0.061,-74.146,11.159,54.756,1_10_1.csv
2018-07-04T12:22:32.186001,-1.109,-0.139,-0.061,-131.89,12.561,52.683,1_10_1.csv
2018-07-04T12:22:32.231123,-3.453,-1.077,-0.044,-224.39,-24.146,-0.915,1_10_1.csv
2018-07-04T12:22:32.290803,-2.327,-0.879,0.359,-54.085,58.232,-25.183,1_10_1.csv
2018-07-04T12:22:32.344948,-2.327,-0.879,0.359,130.0,38.598,-18.537,1_10_1.csv
2018-07-04T12:22:32.387562,-0.41,-0.425,-0.121,205.976,-31.159,-6.159,1_10_1.csv
2018-07-04T12:22:32.432342,0.529,0.326,-0.031,97.927,-0.61,-120.061,1_10_1.csv
2018-07-04T12:22:32.480972,0.529,0.326,-0.031,143.476,24.817,-96.037,1_10_1.csv
2018-07-04T12:22:32.525090,0.301,0.156,-0.137,160.854,20.061,-39.878,1_10_1.csv
2018-07-04T12:22:32.572718,0.301,0.156,-0.137,34.817,24.146,26.585,1_10_1.csv
2018-07-04T12:22:32.628367,-0.14,0.136,-0.037,-90.793,19.268,48.598,1_10_1.csv
2018-07-04T12:22:32.666971,-0.14,0.136,-0.037,-87.073,19.634,35.976,1_10_1.csv
2018-07-04T12:22:32.715121,-1.893,-0.538,0.002,-132.927,-47.256,65.732,1_10_1.csv
2018-07-04T12:22:32.759240,-3.465,-0.971,0.003,-279.878,-56.037,65.427,1_10_1.csv
2018-07-04T12:22:32.806366,-3.465,-0.971,0.003,-243.049,33.598,0.915,1_10_1.csv
2018-07-04T12:22:32.852991,-1.888,-0.892,-0.126,102.988,45.427,8.293,1_10_1.csv
2018-07-04T12:22:32.905632,-1.888,-0.892,-0.126,307.927,-13.476,42.378,1_10_1.csv
2018-07-04T12:22:32.948246,0.056,-0.242,-0.122,147.439,-28.841,-8.841,1_10_1.csv
2018-07-04T12:22:32.994871,0.502,-0.092,0.113,74.024,23.659,-52.256,1_10_1.csv
2018-07-04T12:22:33.043000,0.502,-0.092,0.113,109.207,41.524,-67.561,1_10_1.csv
2018-07-04T12:22:33.089123,-0.066,0.328,-0.013,177.561,24.878,-28.049,1_10_1.csv
2018-07-04T12:22:33.134746,-0.066,0.328,-0.013,46.28,-6.341,-11.768,1_10_1.csv
2018-07-04T12:22:33.193904,-0.438,0.185,-0.025,-24.451,-15.793,-21.402,1_10_1.csv
2018-07-04T12:22:33.244539,-2.81,-0.667,-0.276,-120.183,-20.732,38.659,1_10_1.csv
2018-07-04T12:22:33.322248,-3.107,-1.581,-0.009,-397.622,-20.244,13.476,1_10_1.csv
2018-07-04T12:22:33.369875,-3.107,-1.581,-0.009,9.695,69.085,7.134,1_10_1.csv
2018-07-04T12:22:33.636992,0.191,-0.068,-0.152,71.28,46.585,35.305,1_10_1.csv
2018-07-04T12:22:33.685125,-0.211,0.035,0.078,11.829,21.585,9.695,1_10_1.csv
2018-07-04T12:22:33.767850,-0.938,-0.019,0.111,-43.293,-25.976,20.366,1_10_1.csv
2018-07-04T12:22:33.807456,-3.019,-0.94,-0.45,-155.061,-58.841,20.793,1_10_1.csv
2018-07-04T12:22:33.853078,-3.019,-0.94,-0.45,-202.317,-36.768,-9.207,1_10_1.csv
2018-07-04T12:22:33.901708,-2.662,-0.983,0.026,-62.622,-11.402,-27.256,1_10_1.csv
2018-07-04T12:22:33.947832,-2.662,-0.983,0.026,162.317,25.732,-17.317,1_10_1.csv
2018-07-04T12:22:33.993454,-0.772,-0.275,-0.089,105.488,-11.402,-3.537,1_10_1.csv
2018-07-04T12:22:34.044591,0.274,0.192,-0.045,-10.305,-20.0,-57.744,1_10_1.csv
2018-07-04T12:22:34.087707,0.274,0.192,-0.045,35.671,23.598,-66.524,1_10_1.csv
2018-07-04T12:22:34.134833,0.231,0.21,0.07,36.707,22.195,-28.659,1_10_1.csv
2018-07-04T12:22:34.183463,0.231,0.21,0.07,22.195,2.622,38.78,1_10_1.csv
2018-07-04T12:22:34.227582,0.052,-0.036,-0.023,7.5,7.317,82.378,1_10_1.csv
2018-07-04T12:22:34.273705,0.052,-0.036,-0.023,25.732,26.768,75.732,1_10_1.csv
2018-07-04T12:22:34.329855,-1.014,-0.18,-0.057,-44.39,38.902,65.549,1_10_1.csv
2018-07-04T12:22:34.369461,-3.347,-0.912,-0.521,-188.171,-7.988,70.183,1_10_1.csv
2018-07-04T12:22:34.442156,-2.644,-0.452,0.284,-37.622,51.28,-36.829,1_10_1.csv
2018-07-04T12:22:34.487779,-2.644,-0.452,0.284,25.549,-4.634,-50.854,1_10_1.csv
2018-07-04T12:22:34.531395,-0.505,-0.253,0.006,128.842,-56.463,-22.195,1_10_1.csv
2018-07-04T12:22:34.576516,-0.505,-0.253,0.006,126.402,-75.183,-31.098,1_10_1.csv
2018-07-04T12:22:34.641190,0.422,0.19,-0.103,81.098,-41.89,-83.537,1_10_1.csv
2018-07-04T12:22:34.683302,-0.167,0.084,-0.126,16.463,4.573,-39.329,1_10_1.csv
2018-07-04T12:22:34.764018,-0.167,0.084,-0.126,-18.232,5.0,19.878,1_10_1.csv
2018-07-04T12:22:34.808638,-0.167,0.084,-0.126,-34.207,16.951,9.39,1_10_1.csv
2018-07-04T12:22:34.857268,-1.833,0.036,-0.008,-60.671,40.244,11.768,1_10_1.csv
2018-07-04T12:22:34.904394,-1.833,0.036,-0.008,-293.049,43.049,44.573,1_10_1.csv
2018-07-04T12:22:34.958539,-3.477,-1.27,-0.796,-479.268,-53.537,78.537,1_10_1.csv
2018-07-04T12:22:35.009677,-1.776,-0.886,-0.007,65.183,10.671,0.488,1_10_1.csv
2018-07-04T12:22:35.056302,-1.776,-0.886,-0.007,180.183,-32.073,-15.305,1_10_1.csv
2018-07-04T12:22:35.103428,0.168,0.003,0.05,125.976,-40.549,-32.195,1_10_1.csv
2018-07-04T12:22:35.149050,0.168,0.003,0.05,40.915,-11.402,-50.793,1_10_1.csv
2018-07-04T12:22:35.197179,0.509,-0.042,-0.042,117.988,51.646,-36.402,1_10_1.csv
2018-07-04T12:22:35.250823,0.032,0.082,-0.204,259.939,42.927,51.28,1_10_1.csv
2018-07-04T12:22:35.289928,0.032,0.082,-0.204,110.0,10.61,48.171,1_10_1.csv
2018-07-04T12:22:35.337555,-0.361,0.15,-0.105,-17.073,7.927,16.22,1_10_1.csv
2018-07-04T12:22:35.386686,-0.361,0.15,-0.105,-6.951,29.146,4.268,1_10_1.csv
2018-07-04T12:22:35.430805,-2.781,-0.431,-0.38,-156.098,-16.463,14.207,1_10_1.csv
2018-07-04T12:22:35.477931,-2.781,-0.431,-0.38,-315.061,-85.854,-30.427,1_10_1.csv
2018-07-04T12:22:35.526561,-3.128,-0.956,-0.056,-204.024,-19.573,-53.963,1_10_1.csv
2018-07-04T12:22:35.572685,-0.988,-0.498,-0.094,269.634,23.841,5.427,1_10_1.csv
2018-07-04T12:22:35.619811,-0.988,-0.498,-0.094,146.89,-26.22,-7.317,1_10_1.csv
2018-07-04T12:22:35.667940,0.333,0.019,-0.123,-49.634,-38.293,-39.817,1_10_1.csv
2018-07-04T12:22:35.712559,0.333,0.019,-0.123,6.585,21.402,-65.427,1_10_1.csv
2018-07-04T12:22:35.758683,0.2,0.146,0.004,99.085,35.183,-40.305,1_10_1.csv
2018-07-04T12:22:35.819347,-0.047,-0.017,0.122,-12.927,-14.634,29.024,1_10_1.csv
2018-07-04T12:22:35.888531,-0.047,-0.017,0.122,-22.073,-13.598,10.732,1_10_1.csv
2018-07-04T12:22:35.933652,-0.994,-0.237,0.234,-16.768,2.195,21.646,1_10_1.csv
2018-07-04T12:22:35.983786,-3.349,-0.956,-0.434,-119.695,-31.341,36.768,1_10_1.csv
2018-07-04T12:22:36.031915,-3.349,-0.956,-0.434,-126.342,-1.707,29.268,1_10_1.csv
2018-07-04T12:22:36.075031,-2.651,-0.708,0.065,-2.927,29.146,-5.488,1_10_1.csv
2018-07-04T12:22:36.243446,0.48,0.281,0.016,-28.537,-14.512,-42.622,1_10_1.csv
2018-07-04T12:22:36.290571,0.48,0.281,0.016,5.976,17.561,-25.854,1_10_1.csv
2018-07-04T12:22:36.337198,0.102,-0.2,-0.095,13.293,2.561,49.878,1_10_1.csv
2018-07-04T12:22:36.384826,0.027,-0.083,-0.001,6.89,13.598,56.28,1_10_1.csv
2018-07-04T12:22:36.440976,0.027,-0.083,-0.001,-2.866,21.159,31.524,1_10_1.csv
2018-07-04T12:22:36.481585,-1.155,-0.367,0.044,51.037,43.415,15.305,1_10_1.csv
2018-07-04T12:22:36.527208,-1.155,-0.367,0.044,67.5,77.683,48.476,1_10_1.csv
2018-07-04T12:22:36.577342,-3.629,-0.5,-0.133,-210.366,-19.39,-25.0,1_10_1.csv
2018-07-04T12:22:36.658058,-2.458,-0.598,0.076,85.122,-5.732,-6.829,1_10_1.csv
2018-07-04T12:22:36.698165,-0.275,-0.333,0.067,238.293,-54.146,31.585,1_10_1.csv
2018-07-04T12:22:36.746294,-0.275,-0.333,0.067,105.915,-61.951,-20.122,1_10_1.csv
2018-07-04T12:22:36.790412,0.3,0.117,0.261,35.671,-39.512,-64.634,1_10_1.csv
2018-07-04T12:22:36.838040,0.3,0.117,0.261,49.634,-30.244,-82.866,1_10_1.csv
2018-07-04T12:22:36.904218,0.018,0.11,0.007,-4.085,-71.037,-34.573,1_10_1.csv
2018-07-04T12:22:36.974800,-0.151,0.136,-0.099,-167.012,-133.232,-8.841,1_10_1.csv
2018-07-04T12:22:37.057521,-1.654,-0.511,-0.327,-210.122,-51.89,0.976,1_10_1.csv
2018-07-04T12:22:37.149267,-2.839,-1.351,0.046,-126.646,58.963,121.585,1_10_1.csv
2018-07-04T12:22:37.200906,-2.053,-1.213,0.597,206.159,194.329,153.659,1_10_1.csv
2018-07-04T12:22:37.243723,-2.053,-1.213,0.597,474.268,157.134,101.463,1_10_1.csv
2018-07-04T12:22:37.292353,-0.092,0.082,0.789,353.842,-15.854,18.11,1_10_1.csv
2018-07-04T12:22:37.349506,0.335,-0.004,0.341,28.476,-25.244,-23.293,1_10_1.csv
2018-07-04T12:22:37.400643,0.335,-0.004,0.341,91.646,-18.171,-7.988,1_10_1.csv
2018-07-04T12:22:37.589170,-2.059,-0.39,-0.238,100.305,62.927,-18.049,1_10_1.csv
2018-07-04T12:22:37.638803,-2.059,-0.39,-0.238,-37.256,51.524,40.122,1_10_1.csv
2018-07-04T12:22:37.680916,-2.842,-0.755,0.08,-64.207,73.354,55.976,1_10_1.csv
2018-07-04T12:22:37.729094,-2.842,-0.755,0.08,63.598,127.866,33.476,1_10_1.csv
2018-07-04T12:22:37.788913,-1.847,-0.574,0.578,45.61,64.756,4.207,1_10_1.csv
2018-07-04T12:22:37.838045,-0.144,-0.217,0.566,170.793,6.646,-4.329,1_10_1.csv
2018-07-04T12:22:37.884168,-0.144,-0.217,0.566,259.39,29.146,-58.049,1_10_1.csv
2018-07-04T12:22:37.981429,-0.022,0.031,0.136,80.183,14.207,29.817,1_10_1.csv
2018-07-04T12:22:38.029558,-0.022,0.031,0.136,-33.354,-9.268,40.061,1_10_1.csv
2018-07-04T12:22:38.074678,-0.277,-0.312,-0.027,-71.402,-34.39,21.951,1_10_1.csv
2018-07-04T12:22:38.119298,-0.277,-0.312,-0.027,-54.634,1.829,-0.61,1_10_1.csv
2018-07-04T12:22:38.192996,-3.15,-0.792,-0.262,-243.659,-34.573,-20.244,1_10_1.csv
2018-07-04T12:22:38.254661,-3.179,-0.184,0.614,-155.915,-30.244,-63.78,1_10_1.csv
2018-07-04T12:22:38.311889,-0.572,-0.254,0.294,-77.195,-17.378,-26.585,1_10_1.csv
2018-07-04T12:22:38.365031,-0.572,-0.254,0.294,20.549,-83.537,6.159,1_10_1.csv
2018-07-04T12:22:38.445246,0.476,-0.028,-0.198,-4.512,33.476,-54.268,1_10_1.csv
2018-07-04T12:22:38.494879,0.055,-0.081,-0.148,18.963,-2.134,-13.049,1_10_1.csv
2018-07-04T12:22:38.560054,-0.137,0.041,-0.015,-30.183,23.354,28.476,1_10_1.csv
2018-07-04T12:22:38.605676,-0.137,0.041,-0.015,-33.659,21.707,-2.5,1_10_1.csv
2018-07-04T12:22:38.668344,-1.156,-0.155,0.279,-34.512,12.317,24.573,1_10_1.csv
2018-07-04T12:22:38.714468,-3.494,-0.777,0.02,-149.512,-32.5,60.061,1_10_1.csv
2018-07-04T12:22:38.766607,-3.494,-0.777,0.02,-239.024,28.902,22.317,1_10_1.csv
2018-07-04T12:22:38.809723,-2.363,-1.048,-0.109,-153.781,31.524,-37.317,1_10_1.csv
2018-07-04T12:22:39.056885,-0.004,0.109,-0.056,222.805,32.012,-15.183,1_10_1.csv
2018-07-04T12:22:39.104011,-0.004,0.109,-0.056,99.146,16.22,21.768,1_10_1.csv
2018-07-04T12:22:39.181719,-0.114,-0.058,0.031,20.549,15.183,-19.207,1_10_1.csv
2018-07-04T12:22:39.228344,-1.806,-0.452,0.026,-9.268,33.78,11.28,1_10_1.csv
2018-07-04T12:22:39.291125,-3.632,-1.243,-0.145,-242.317,-50.732,-22.195,1_10_1.csv
2018-07-04T12:22:39.337750,-3.632,-1.243,-0.145,-155.061,-46.22,-59.39,1_10_1.csv
2018-07-04T12:22:39.384688,-1.363,-0.579,0.28,107.317,17.561,-58.11,1_10_1.csv
2018-07-04T12:22:39.439334,0.524,0.004,-0.068,-105.244,-55.671,-48.841,1_10_1.csv
2018-07-04T12:22:39.489468,0.524,0.004,-0.068,-70.183,1.707,-53.415,1_10_1.csv
2018-07-04T12:22:39.547123,0.151,0.081,0.052,92.927,48.659,-35.793,1_10_1.csv
2018-07-04T12:22:39.593748,-0.206,0.036,0.173,80.976,26.768,25.244,1_10_1.csv
2018-07-04T12:22:39.645386,-0.206,0.036,0.173,46.829,4.634,15.915,1_10_1.csv
2018-07-04T12:22:39.692512,-0.41,-0.265,0.114,56.159,-2.744,-3.963,1_10_1.csv
2018-07-04T12:22:39.748666,-0.41,-0.265,0.114,42.256,27.012,-0.244,1_10_1.csv
2018-07-04T12:22:39.796794,-2.892,-1.307,0.003,-233.537,-97.561,49.512,1_10_1.csv
2018-07-04T12:22:39.949711,-0.716,-0.254,0.402,103.659,-54.817,1.951,1_10_1.csv
2018-07-04T12:22:39.999845,0.514,0.342,-0.042,6.707,-74.268,-30.549,1_10_1.csv
2018-07-04T12:22:40.049981,0.514,0.342,-0.042,6.707,-20.732,-12.988,1_10_1.csv
2018-07-04T12:22:40.097608,0.313,-0.16,-0.283,80.244,8.841,29.634,1_10_1.csv
2018-07-04T12:22:40.140723,0.313,-0.16,-0.283,163.781,34.756,91.707,1_10_1.csv
2018-07-04T12:22:40.208906,-0.072,-0.101,0.041,52.256,70.671,88.171,1_10_1.csv
2018-07-04T12:22:40.255530,-1.627,-0.309,0.093,-29.207,80.0,52.988,1_10_1.csv
2018-07-04T12:22:40.304162,-1.627,-0.309,0.093,-139.634,100.976,43.415,1_10_1.csv
2018-07-04T12:22:40.356801,-3.695,-0.873,-0.198,-332.927,-14.329,-76.341,1_10_1.csv
2018-07-04T12:22:40.406936,-2.056,-0.313,0.752,33.354,12.317,-83.72,1_10_1.csv
2018-07-04T12:22:40.504698,0.177,0.156,0.407,86.463,-74.085,-33.354,1_10_1.csv
2018-07-04T12:22:40.547813,0.177,0.156,0.407,-25.732,-58.598,33.232,1_10_1.csv
2018-07-04T12:22:40.592935,0.292,-0.018,-0.452,79.817,-17.5,57.805,1_10_1.csv
2018-07-04T12:22:40.640562,-0.077,-0.206,-0.394,-18.659,-2.317,73.293,1_10_1.csv
