time,accel_x_list,accel_y_list,accel_z_list,gyro_x_list,gyro_y_list,gyro_z_list,filename
2018-07-04T12:22:47.662886,-1.15,-0.297,0.192,18.293,-125.427,-12.5,1_10_2.csv
2018-07-04T12:22:47.711516,-1.297,-0.201,0.044,-71.89,-140.427,-47.805,1_10_2.csv
2018-07-04T12:22:47.760648,-1.297,-0.201,0.044,-137.439,-138.232,-101.037,1_10_2.csv
2018-07-04T12:22:47.805769,-1.185,-0.338,-0.015,-170.671,-119.573,-147.744,1_10_2.csv
2018-07-04T12:22:47.855903,-1.185,-0.338,-0.015,-134.451,-82.439,-159.817,1_10_2.csv
2018-07-04T12:22:47.900021,-0.751,-0.39,0.026,-38.841,-37.683,-130.122,1_10_2.csv
2018-07-04T12:22:47.948150,-0.751,-0.39,0.026,60.183,1.098,-83.476,1_10_2.csv
2018-07-04T12:22:47.998284,-0.655,-0.229,0.091,39.451,33.78,-4.329,1_10_2.csv
2018-07-04T12:22:48.040399,-0.716,-0.338,0.089,-53.902,31.22,25.671,1_10_2.csv
2018-07-04T12:22:48.088025,-0.716,-0.338,0.089,-89.39,34.146,51.768,1_10_2.csv
2018-07-04T12:22:48.136154,-0.682,-0.482,0.099,-68.841,34.573,76.585,1_10_2.csv
2018-07-04T12:22:48.182277,-0.682,-0.482,0.099,-47.012,32.378,102.439,1_10_2.csv
2018-07-04T12:22:48.228401,-0.376,-0.331,0.254,-29.756,23.415,109.146,1_10_2.csv
2018-07-04T12:22:48.281564,-0.988,-1.048,0.631,-65.854,51.341,77.744,1_10_2.csv
2018-07-04T12:22:48.395371,-2.219,-1.555,-0.014,111.098,42.927,6.585,1_10_2.csv
2018-07-04T12:22:48.432470,-2.219,-1.555,-0.014,111.098,42.927,6.585,1_10_2.csv
2018-07-04T12:22:48.478594,-2.271,-0.513,-0.275,80.61,31.524,-92.988,1_10_2.csv
2018-07-04T12:22:48.524729,-0.938,-0.204,0.377,57.683,17.134,-50.122,1_10_2.csv
2018-07-04T12:22:48.572357,-0.938,-0.204,0.377,0.488,-5.976,-32.195,1_10_2.csv
2018-07-04T12:22:48.625499,0.334,0.053,0.163,-47.195,-30.488,-32.561,1_10_2.csv
2018-07-04T12:22:48.666108,0.334,0.053,0.163,-31.89,14.695,-31.524,1_10_2.csv
2018-07-04T12:22:48.714238,0.195,0.159,-0.058,116.402,85.244,-34.573,1_10_2.csv
2018-07-04T12:22:48.760862,-0.045,-0.118,-0.293,-80.061,-47.683,23.354,1_10_2.csv
2018-07-04T12:22:48.823531,-0.045,-0.118,-0.293,-141.342,-21.341,6.037,1_10_2.csv
2018-07-04T12:22:48.871660,-1.241,-0.869,0.639,61.28,54.817,22.012,1_10_2.csv
2018-07-04T12:22:48.934829,-2.687,-1.553,0.195,-60.793,-63.11,-1.28,1_10_2.csv
2018-07-04T12:22:48.978445,-2.687,-1.553,0.195,67.012,47.744,10.488,1_10_2.csv
2018-07-04T12:22:49.025070,-2.074,-0.909,0.473,8.171,-19.39,-19.939,1_10_2.csv
2018-07-04T12:22:49.074202,-2.074,-0.909,0.473,-236.098,-44.268,-19.451,1_10_2.csv
2018-07-04T12:22:49.120828,-0.419,-0.604,-0.007,54.024,-58.476,-17.866,1_10_2.csv
2018-07-04T12:22:49.165947,0.548,0.004,-0.207,89.939,16.159,-41.768,1_10_2.csv
2018-07-04T12:22:49.221634,0.548,0.004,-0.207,43.537,66.098,-16.524,1_10_2.csv
2018-07-04T12:22:49.275277,0.24,-0.106,-0.245,65.183,79.817,4.695,1_10_2.csv
2018-07-04T12:22:49.345465,-0.185,0.017,0.269,-40.732,35.549,-8.232,1_10_2.csv
2018-07-04T12:22:49.401616,-1.297,-0.954,-0.092,-92.927,14.329,-12.927,1_10_2.csv
2018-07-04T12:22:49.447739,-1.297,-0.954,-0.092,-42.744,-12.073,9.329,1_10_2.csv
2018-07-04T12:22:49.493863,-2.642,-1.773,0.037,-42.134,-37.439,-3.415,1_10_2.csv
2018-07-04T12:22:49.549512,-2.642,-1.773,0.037,-26.22,-27.927,-3.537,1_10_2.csv
2018-07-04T12:22:49.589619,-1.61,-1.239,0.111,-32.866,21.768,18.171,1_10_2.csv
2018-07-04T12:22:49.636245,-1.61,-1.239,0.111,-39.756,-32.561,33.171,1_10_2.csv
2018-07-04T12:22:49.683371,-0.408,-0.32,-0.127,102.317,-48.78,43.049,1_10_2.csv
2018-07-04T12:22:49.808706,0.098,0.177,-0.115,59.146,13.841,54.878,1_10_2.csv
2018-07-04T12:22:49.856334,0.098,0.177,-0.115,-23.049,9.268,74.939,1_10_2.csv
2018-07-04T12:22:49.910980,-0.065,0.018,-0.109,-42.866,7.5,81.28,1_10_2.csv
2018-07-04T12:22:49.963621,-2.058,-0.491,-0.368,-3.11,50.122,136.951,1_10_2.csv
2018-07-04T12:22:50.008742,-2.058,-0.491,-0.368,-123.537,43.232,160.305,1_10_2.csv
2018-07-04T12:22:50.058877,-3.521,-0.638,0.218,-285.549,-13.415,81.829,1_10_2.csv
2018-07-04T12:22:50.102494,-3.521,-0.638,0.218,-217.073,23.232,-46.646,1_10_2.csv
2018-07-04T12:22:50.150622,-1.826,-0.616,0.215,-121.524,44.756,-100.488,1_10_2.csv
2018-07-04T12:22:50.207274,0.035,-0.203,-0.009,187.561,-84.878,-12.622,1_10_2.csv
2018-07-04T12:22:50.259935,0.035,-0.203,-0.009,125.793,-57.073,-78.232,1_10_2.csv
2018-07-04T12:22:50.306559,0.343,0.158,0.004,42.561,-13.476,-90.122,1_10_2.csv
2018-07-04T12:22:50.353685,0.343,0.158,0.004,-50.549,-5.122,-45.061,1_10_2.csv
2018-07-04T12:22:50.400310,0.037,-0.118,-0.231,-18.476,14.451,-13.902,1_10_2.csv
2018-07-04T12:22:50.447436,-0.265,0.085,-0.045,60.305,20.0,-12.195,1_10_2.csv
2018-07-04T12:22:50.500578,-0.265,0.085,-0.045,55.854,40.061,-1.89,1_10_2.csv
2018-07-04T12:22:50.540186,-2.759,-0.563,-0.249,-50.976,59.756,38.049,1_10_2.csv
2018-07-04T12:22:50.586812,-2.759,-0.563,-0.249,-223.293,-12.439,33.72,1_10_2.csv
2018-07-04T12:22:50.636946,-2.986,-1.145,0.32,-275.61,-53.963,-30.427,1_10_2.csv
2018-07-04T12:22:50.681071,-2.986,-1.145,0.32,-40.549,33.537,-42.378,1_10_2.csv
2018-07-04T12:22:50.727195,-1.097,-0.776,-0.034,110.427,-40.305,24.939,1_10_2.csv
2018-07-04T12:22:50.780842,0.326,-0.015,-0.003,19.39,-39.146,-8.902,1_10_2.csv
2018-07-04T12:22:50.824458,0.326,-0.015,-0.003,64.146,8.72,-40.854,1_10_2.csv
2018-07-04T12:22:50.869078,0.206,0.031,0.02,91.22,35.732,-47.744,1_10_2.csv
2018-07-04T12:22:50.917209,0.206,0.031,0.02,67.195,22.988,-20.0,1_10_2.csv
2018-07-04T12:22:50.963331,-0.011,-0.107,-0.046,62.866,15.915,13.171,1_10_2.csv
2018-07-04T12:22:51.009955,-0.898,-0.251,0.109,99.146,34.39,25.793,1_10_2.csv
2018-07-04T12:22:51.233000,-2.462,-0.684,0.759,65.854,27.866,-50.732,1_10_2.csv
2018-07-04T12:22:51.291660,-0.235,-0.231,0.171,-37.5,-73.293,-3.841,1_10_2.csv
2018-07-04T12:22:51.337783,0.392,0.218,-0.053,-66.402,-19.817,-39.207,1_10_2.csv
2018-07-04T12:22:51.385411,0.392,0.218,-0.053,24.085,1.585,-50.244,1_10_2.csv
2018-07-04T12:22:51.432422,0.105,0.031,-0.398,-4.329,-41.28,-23.171,1_10_2.csv
2018-07-04T12:22:51.479047,0.105,0.031,-0.398,-59.573,-72.683,36.768,1_10_2.csv
2018-07-04T12:22:51.565780,-0.225,-0.075,-0.117,-171.829,-34.756,46.28,1_10_2.csv
2018-07-04T12:22:51.605887,-2.067,-0.667,-0.036,-95.488,16.585,67.866,1_10_2.csv
2018-07-04T12:22:51.649504,-2.067,-0.667,-0.036,-55.854,111.098,104.085,1_10_2.csv
2018-07-04T12:22:51.698636,-3.325,-1.133,0.264,171.585,117.744,25.366,1_10_2.csv
2018-07-04T12:22:51.743756,-1.613,-0.34,0.458,212.744,-10.854,-21.707,1_10_2.csv
2018-07-04T12:22:51.807428,-1.613,-0.34,0.458,138.72,-53.11,6.098,1_10_2.csv
2018-07-04T12:22:51.859065,0.158,0.047,0.132,13.963,-52.317,-77.073,1_10_2.csv
2018-07-04T12:22:51.901679,0.251,0.143,-0.088,-14.878,-19.39,-76.28,1_10_2.csv
2018-07-04T12:22:51.947803,0.251,0.143,-0.088,-30.793,-19.817,-46.159,1_10_2.csv
2018-07-04T12:22:51.995932,-0.004,0.133,-0.16,-1.89,-23.841,-3.659,1_10_2.csv
2018-07-04T12:22:52.057099,-0.616,-0.04,-0.131,-79.39,-19.695,26.28,1_10_2.csv
2018-07-04T12:22:52.118767,-0.616,-0.04,-0.131,-92.622,-15.122,37.5,1_10_2.csv
2018-07-04T12:22:52.176424,-3.023,-1.0,-0.457,-271.463,-94.939,45.976,1_10_2.csv
2018-07-04T12:22:52.227564,-2.715,-1.253,0.614,-155.488,60.122,50.061,1_10_2.csv
2018-07-04T12:22:52.274692,-2.715,-1.253,0.614,206.098,179.451,41.89,1_10_2.csv
2018-07-04T12:22:52.325832,-0.759,-0.337,0.519,388.232,76.037,-14.756,1_10_2.csv
2018-07-04T12:22:52.372962,-0.759,-0.337,0.519,214.451,-18.11,-3.293,1_10_2.csv
2018-07-04T12:22:52.416581,0.563,0.107,0.337,41.159,18.293,8.293,1_10_2.csv
2018-07-04T12:22:52.529383,0.16,-0.193,-0.037,57.622,-5.793,66.037,1_10_2.csv
2018-07-04T12:22:52.574504,-0.077,-0.175,-0.231,-10.244,-31.159,67.256,1_10_2.csv
2018-07-04T12:22:52.623134,-1.257,-0.208,-0.198,4.695,28.171,-17.317,1_10_2.csv
2018-07-04T12:22:52.672266,-1.257,-0.208,-0.198,-21.89,50.732,-20.732,1_10_2.csv
2018-07-04T12:22:52.734956,-3.378,-0.762,-0.367,-123.354,-24.878,-28.354,1_10_2.csv
2018-07-04T12:22:52.807150,-2.591,-0.685,0.443,-134.512,53.354,-120.732,1_10_2.csv
2018-07-04T12:22:52.865807,-0.281,-0.045,0.267,81.768,-19.024,-52.256,1_10_2.csv
2018-07-04T12:22:52.924966,-0.281,-0.045,0.267,22.195,-22.134,-29.146,1_10_2.csv
2018-07-04T12:22:52.993650,0.6,0.033,0.013,88.293,24.817,-4.634,1_10_2.csv
2018-07-04T12:22:53.048295,0.112,-0.018,-0.138,91.159,26.22,37.317,1_10_2.csv
2018-07-04T12:22:53.100435,-0.138,-0.116,-0.057,-13.049,-2.927,55.915,1_10_2.csv
2018-07-04T12:22:53.158591,-0.138,-0.116,-0.057,-16.463,14.756,28.963,1_10_2.csv
2018-07-04T12:22:53.212235,-1.585,-0.28,0.107,41.098,40.732,13.354,1_10_2.csv
2018-07-04T12:22:53.312504,-3.661,-0.851,-0.075,-158.354,-39.39,10.915,1_10_2.csv
2018-07-04T12:22:53.360633,-1.983,-0.945,0.066,-95.305,19.085,-62.256,1_10_2.csv
2018-07-04T12:22:53.407856,-1.983,-0.945,0.066,158.476,2.561,-15.366,1_10_2.csv
2018-07-04T12:22:53.461129,0.118,-0.143,0.061,30.793,-23.293,-48.537,1_10_2.csv
2018-07-04T12:22:53.521791,0.431,0.041,0.005,-96.098,5.793,-83.232,1_10_2.csv
2018-07-04T12:22:53.560395,0.431,0.041,0.005,-4.573,0.122,-91.28,1_10_2.csv
2018-07-04T12:22:53.612033,0.108,0.027,-0.07,92.805,1.098,-49.756,1_10_2.csv
2018-07-04T12:22:53.694253,-0.298,-0.017,0.108,-24.451,-9.024,-10.915,1_10_2.csv
2018-07-04T12:22:54.100818,0.257,0.3,-0.044,57.561,36.22,-29.39,1_10_2.csv
2018-07-04T12:22:54.152960,-0.002,0.005,-0.193,-11.951,12.256,74.695,1_10_2.csv
2018-07-04T12:22:54.203094,-0.002,0.005,-0.193,-74.329,18.049,69.024,1_10_2.csv
2018-07-04T12:22:54.254231,-1.081,-0.609,-0.018,-59.024,48.659,54.146,1_10_2.csv
2018-07-04T12:22:54.305869,-3.5,-1.688,0.031,-170.427,-37.622,36.341,1_10_2.csv
2018-07-04T12:22:54.387588,-1.933,-0.963,0.884,29.085,10.854,-10.122,1_10_2.csv
2018-07-04T12:22:54.439262,-1.933,-0.963,0.884,218.354,37.927,-31.951,1_10_2.csv
2018-07-04T12:22:54.502431,0.122,-0.083,-0.224,121.768,-12.744,-27.317,1_10_2.csv
2018-07-04T12:22:54.567104,0.494,0.128,-0.354,67.744,3.354,-60.793,1_10_2.csv
2018-07-04T12:22:54.605708,0.494,0.128,-0.354,71.28,36.646,-19.329,1_10_2.csv
2018-07-04T12:22:54.652834,0.036,0.034,0.018,62.012,40.732,23.476,1_10_2.csv
2018-07-04T12:22:54.702467,0.036,0.034,0.018,6.768,38.659,35.671,1_10_2.csv
2018-07-04T12:22:54.751097,-0.37,-0.169,0.244,9.268,38.049,16.037,1_10_2.csv
2018-07-04T12:22:54.792709,-2.492,-0.931,0.128,37.439,-9.329,28.72,1_10_2.csv
2018-07-04T12:22:54.842843,-2.492,-0.931,0.128,-175.366,-84.634,8.963,1_10_2.csv
2018-07-04T12:22:54.890971,-3.041,-1.309,-0.209,-233.415,-77.134,-33.78,1_10_2.csv
2018-07-04T12:22:54.947623,-1.283,-0.47,0.313,146.768,20.427,-24.695,1_10_2.csv
2018-07-04T12:22:54.996755,-1.283,-0.47,0.313,-8.841,2.622,10.671,1_10_2.csv
2018-07-04T12:22:55.044884,0.277,0.002,0.069,-33.963,-15.427,-18.171,1_10_2.csv
2018-07-04T12:22:55.094016,0.277,0.002,0.069,98.72,18.049,-41.22,1_10_2.csv
2018-07-04T12:22:55.147158,0.385,0.279,-0.107,48.841,49.39,6.89,1_10_2.csv
2018-07-04T12:22:55.370440,-3.469,-0.653,-0.802,-93.476,58.537,154.451,1_10_2.csv
2018-07-04T12:22:55.420076,-3.469,-0.653,-0.802,-402.866,-121.159,28.171,1_10_2.csv
2018-07-04T12:22:55.465698,-2.785,-0.667,0.48,-382.866,-24.329,-148.842,1_10_2.csv
2018-07-04T12:22:55.520345,-0.592,0.159,0.195,243.781,-22.805,-87.256,1_10_2.csv
2018-07-04T12:22:55.562458,-0.592,0.159,0.195,111.585,-125.061,14.695,1_10_2.csv
2018-07-04T12:22:55.607579,0.349,0.022,0.12,-127.683,-47.988,4.573,1_10_2.csv
2018-07-04T12:22:55.698823,0.011,-0.021,-0.281,61.768,-11.402,9.39,1_10_2.csv
2018-07-04T12:22:55.773523,-0.115,0.018,-0.278,-74.695,-11.524,28.659,1_10_2.csv
2018-07-04T12:22:55.826164,-0.115,0.018,-0.278,-70.915,8.415,17.195,1_10_2.csv
2018-07-04T12:22:55.874794,-1.638,-0.396,-0.277,-57.622,84.512,49.878,1_10_2.csv
2018-07-04T12:22:55.921920,-3.511,-0.734,0.149,-67.073,25.366,51.89,1_10_2.csv
2018-07-04T12:22:55.969047,-3.511,-0.734,0.149,-19.451,11.646,3.841,1_10_2.csv
2018-07-04T12:22:56.064803,-2.032,-0.285,0.462,137.012,27.5,-21.768,1_10_2.csv
2018-07-04T12:22:56.101903,0.071,-0.047,-0.072,176.463,-60.244,-18.841,1_10_2.csv
2018-07-04T12:22:56.150533,0.071,-0.047,-0.072,63.841,-51.159,-45.732,1_10_2.csv
2018-07-04T12:22:56.198794,0.53,0.008,0.009,12.439,-12.073,33.963,1_10_2.csv
2018-07-04T12:22:56.244416,0.064,-0.286,-0.169,62.073,13.171,77.683,1_10_2.csv
2018-07-04T12:22:56.323127,-0.407,-0.1,0.114,83.72,33.78,33.72,1_10_2.csv
2018-07-04T12:22:56.388803,-0.407,-0.1,0.114,33.476,33.354,-12.012,1_10_2.csv
2018-07-04T12:22:56.431974,-2.742,-0.432,-0.396,-70.0,54.512,-40.305,1_10_2.csv
2018-07-04T12:22:56.478098,-3.169,-0.521,0.212,-152.683,-39.573,-73.354,1_10_2.csv
2018-07-04T12:22:56.565833,-1.229,-0.602,0.21,39.268,15.976,-39.756,1_10_2.csv
2018-07-04T12:22:56.606441,-1.229,-0.602,0.21,87.5,-32.866,-37.317,1_10_2.csv
2018-07-04T12:22:56.653067,0.496,-0.095,-0.018,-24.512,-74.817,-60.122,1_10_2.csv
2018-07-04T12:22:56.705206,0.496,-0.095,-0.018,38.293,6.22,-95.183,1_10_2.csv
2018-07-04T12:22:56.747406,0.3,0.047,-0.083,129.329,44.878,-72.5,1_10_2.csv
2018-07-04T12:22:56.806565,-0.15,0.202,-0.445,99.878,5.366,43.476,1_10_2.csv
2018-07-04T12:22:56.855195,-0.15,0.202,-0.445,17.744,21.646,40.183,1_10_2.csv
2018-07-04T12:22:56.899814,-0.721,0.164,-0.418,22.622,46.768,12.622,1_10_2.csv
2018-07-04T12:22:56.947944,-0.721,0.164,-0.418,-38.049,77.256,19.756,1_10_2.csv
2018-07-04T12:22:57.015123,-3.209,-1.28,0.41,-453.902,-113.537,3.598,1_10_2.csv
2018-07-04T12:22:57.072778,-2.665,-1.427,-0.145,-63.963,27.256,20.488,1_10_2.csv
2018-07-04T12:22:57.121408,-0.612,-0.228,-0.326,84.634,-44.817,-29.878,1_10_2.csv
2018-07-04T12:22:57.167030,-0.612,-0.228,-0.326,-63.841,-47.927,-32.988,1_10_2.csv
2018-07-04T12:22:57.217666,0.504,-0.095,-0.018,-65.488,-19.146,-29.329,1_10_2.csv
2018-07-04T12:22:57.273816,0.504,-0.095,-0.018,43.476,36.098,-38.841,1_10_2.csv
2018-07-04T12:22:57.393638,-0.045,0.161,0.011,141.098,39.39,4.329,1_10_2.csv
2018-07-04T12:22:57.452795,-1.024,-0.137,0.053,150.0,29.817,37.439,1_10_2.csv
2018-07-04T12:22:57.496413,-1.024,-0.137,0.053,61.28,28.841,75.427,1_10_2.csv
2018-07-04T12:22:57.557576,-3.456,-1.466,-0.197,-272.134,-60.305,27.622,1_10_2.csv
2018-07-04T12:22:57.603198,-2.085,-0.996,0.018,152.805,21.646,-34.39,1_10_2.csv
2018-07-04T12:22:57.649823,-2.085,-0.996,0.018,78.476,28.049,13.354,1_10_2.csv
2018-07-04T12:22:57.713995,-0.301,-0.268,-0.073,-20.854,-20.793,-9.573,1_10_2.csv
2018-07-04T12:22:57.764131,0.38,0.196,0.105,77.012,17.744,-44.024,1_10_2.csv
2018-07-04T12:22:57.806744,0.38,0.196,0.105,122.805,39.024,-19.573,1_10_2.csv
2018-07-04T12:22:57.854884,0.073,0.038,0.031,76.28,12.073,29.39,1_10_2.csv
2018-07-04T12:22:57.935099,-0.064,-0.289,0.101,9.329,-4.268,95.549,1_10_2.csv
2018-07-04T12:22:57.977212,-0.064,-0.289,0.101,52.378,14.878,74.329,1_10_2.csv
2018-07-04T12:22:58.030354,-2.179,-0.546,-0.012,84.939,75.366,48.72,1_10_2.csv
2018-07-04T12:22:58.088008,-3.319,-0.485,-0.161,-63.598,-66.89,-26.098,1_10_2.csv
2018-07-04T12:22:58.133631,-3.319,-0.485,-0.161,-68.232,36.341,-89.939,1_10_2.csv
2018-07-04T12:22:58.185770,-1.443,-0.533,0.362,-52.256,23.232,-56.037,1_10_2.csv
2018-07-04T12:22:58.238411,-1.443,-0.533,0.362,-20.305,-52.134,-16.768,1_10_2.csv
2018-07-04T12:22:58.274508,0.31,-0.101,0.154,39.39,-59.573,-25.427,1_10_2.csv
2018-07-04T12:22:58.350712,0.219,-0.026,-0.028,2.561,20.854,-25.0,1_10_2.csv
2018-07-04T12:22:58.400846,0.219,-0.026,-0.028,67.378,20.854,-7.866,1_10_2.csv
2018-07-04T12:22:58.447973,-0.045,-0.013,-0.046,14.085,13.963,18.659,1_10_2.csv
2018-07-04T12:22:58.498107,-0.636,-0.081,0.127,26.402,22.988,10.915,1_10_2.csv
2018-07-04T12:22:58.540221,-0.636,-0.081,0.127,71.28,49.146,36.585,1_10_2.csv
2018-07-04T12:22:58.587847,-3.399,-0.796,-0.451,-33.72,38.78,60.305,1_10_2.csv
2018-07-04T12:22:58.643497,-3.399,-0.796,-0.451,-283.781,-119.146,39.817,1_10_2.csv
2018-07-04T12:22:58.692628,-2.435,-1.075,0.383,-60.976,52.195,-6.585,1_10_2.csv
2018-07-04T12:22:58.731231,-0.26,-0.886,0.271,249.329,-35.488,41.341,1_10_2.csv
2018-07-04T12:22:58.789888,-0.26,-0.886,0.271,189.329,-48.232,48.537,1_10_2.csv
2018-07-04T12:22:58.842529,0.344,-0.022,0.08,66.89,-31.28,0.244,1_10_2.csv
2018-07-04T12:22:58.898179,-0.07,0.09,-0.261,13.049,-16.524,-95.549,1_10_2.csv
2018-07-04T12:22:58.957839,-0.07,0.09,-0.261,15.122,-35.488,-80.0,1_10_2.csv
2018-07-04T12:22:59.072647,-1.73,-0.435,-0.137,50.0,67.195,21.159,1_10_2.csv
2018-07-04T12:22:59.125788,-1.73,-0.435,-0.137,18.598,129.085,64.695,1_10_2.csv
2018-07-04T12:22:59.167400,-3.411,-1.238,0.197,-151.707,-73.537,39.268,1_10_2.csv
2018-07-04T12:22:59.219539,-1.575,-1.349,0.37,28.78,70.732,-33.902,1_10_2.csv
2018-07-04T12:22:59.507065,0.03,0.194,-0.398,76.037,66.951,-35.732,1_10_2.csv
2018-07-04T12:22:59.561714,-0.411,0.011,0.157,36.707,82.073,-30.061,1_10_2.csv
2018-07-04T12:22:59.610845,-0.411,0.011,0.157,7.012,56.89,-2.5,1_10_2.csv
2018-07-04T12:22:59.656970,-2.254,-1.824,-0.238,-277.927,-12.866,-36.28,1_10_2.csv
2018-07-04T12:22:59.718133,-2.109,-2.461,-0.671,-265.305,-158.781,-56.524,1_10_2.csv
2018-07-04T12:22:59.771275,-2.109,-2.461,-0.671,44.817,-47.439,19.024,1_10_2.csv
2018-07-04T12:22:59.810380,-0.549,-0.508,0.065,193.537,-50.854,80.488,1_10_2.csv
2018-07-04T12:22:59.857006,0.291,0.275,-0.014,93.963,-25.61,14.573,1_10_2.csv
2018-07-04T12:22:59.911651,0.291,0.275,-0.014,60.427,14.207,-1.768,1_10_2.csv
2018-07-04T12:22:59.957273,0.088,0.2,-0.178,28.476,25.915,27.378,1_10_2.csv
2018-07-04T12:23:00.000389,0.088,0.2,-0.178,6.037,10.732,73.293,1_10_2.csv
2018-07-04T12:23:00.062555,-0.123,0.054,-0.168,-42.073,3.902,81.402,1_10_2.csv
2018-07-04T12:23:00.117202,-1.337,-0.362,-0.059,-9.39,24.39,100.183,1_10_2.csv
2018-07-04T12:23:00.179870,-3.347,-1.084,0.012,-184.939,-59.268,95.305,1_10_2.csv
2018-07-04T12:23:00.232511,-3.347,-1.084,0.012,-267.012,-48.963,32.561,1_10_2.csv
2018-07-04T12:23:00.329771,-2.162,-1.15,0.221,125.61,-5.427,-30.0,1_10_2.csv
2018-07-04T12:23:00.378401,-0.211,-0.208,-0.033,-31.524,-76.28,-68.293,1_10_2.csv
2018-07-04T12:23:00.419011,0.438,0.088,-0.119,-56.89,-15.0,-82.622,1_10_2.csv
2018-07-04T12:23:00.467640,0.438,0.088,-0.119,6.951,9.512,-42.073,1_10_2.csv
2018-07-04T12:23:00.513764,0.047,0.025,-0.117,89.634,24.268,-0.366,1_10_2.csv
2018-07-04T12:23:00.568912,0.047,0.025,-0.117,74.451,28.841,23.963,1_10_2.csv
2018-07-04T12:23:00.662162,-2.433,-0.547,0.098,102.744,59.146,5.244,1_10_2.csv
2018-07-04T12:23:00.703272,-2.433,-0.547,0.098,-129.817,-15.549,1.646,1_10_2.csv
2018-07-04T12:23:00.768447,-2.849,-1.248,0.132,-233.842,-70.854,-16.951,1_10_2.csv
2018-07-04T12:23:00.813066,-2.849,-1.248,0.132,-39.451,-8.293,-20.488,1_10_2.csv
2018-07-04T12:23:00.856683,-1.164,-0.55,0.246,124.268,16.707,33.354,1_10_2.csv
2018-07-04T12:23:00.947927,0.211,0.038,0.002,2.439,-12.683,-14.329,1_10_2.csv
2018-07-04T12:23:01.006584,0.241,0.12,0.078,91.585,19.268,-20.183,1_10_2.csv
2018-07-04T12:23:01.077775,-0.059,0.01,0.118,1.585,-20.122,72.988,1_10_2.csv
2018-07-04T12:23:01.122394,-0.059,0.01,0.118,-52.622,-36.646,97.744,1_10_2.csv
2018-07-04T12:23:01.181553,-1.004,-0.37,0.054,-25.183,50.122,85.366,1_10_2.csv
2018-07-04T12:23:01.235698,-3.19,-0.54,-0.351,-96.22,20.427,34.756,1_10_2.csv
2018-07-04T12:23:01.281320,-3.19,-0.54,-0.351,-178.354,-53.537,-22.683,1_10_2.csv
2018-07-04T12:23:01.326441,-2.458,-0.526,0.37,-33.354,78.902,-81.585,1_10_2.csv
2018-07-04T12:23:01.385098,-0.824,0.057,0.302,220.549,30.183,-13.72,1_10_2.csv
2018-07-04T12:23:01.440747,-0.824,0.057,0.302,50.488,-29.695,13.537,1_10_2.csv
2018-07-04T12:23:01.486370,0.328,0.055,0.087,13.415,-18.232,12.439,1_10_2.csv
2018-07-04T12:23:01.534498,0.328,0.055,0.087,244.817,51.402,10.854,1_10_2.csv
2018-07-04T12:23:01.597667,0.153,0.18,0.268,28.171,49.695,36.524,1_10_2.csv
2018-07-04T12:23:01.642287,-0.173,-0.1,0.19,-27.5,33.659,50.183,1_10_2.csv
2018-07-04T12:23:01.685904,-0.173,-0.1,0.19,-22.683,19.207,43.11,1_10_2.csv
2018-07-04T12:23:01.731025,-1.587,-0.204,-0.144,-24.695,20.793,32.805,1_10_2.csv
2018-07-04T12:23:01.792189,-3.262,-0.781,-0.294,-360.854,-119.451,-10.427,1_10_2.csv
2018-07-04T12:23:01.842824,-3.262,-0.781,-0.294,-458.598,-104.207,-94.207,1_10_2.csv
2018-07-04T12:23:01.889951,-1.903,-0.562,0.338,-150.549,79.756,-124.634,1_10_2.csv
2018-07-04T12:23:01.934570,-1.903,-0.562,0.338,189.024,76.524,-100.427,1_10_2.csv
2018-07-04T12:23:02.020300,-0.24,0.458,0.291,-8.659,-60.183,-14.207,1_10_2.csv
2018-07-04T12:23:02.065420,0.353,0.226,0.263,71.524,19.329,10.732,1_10_2.csv
2018-07-04T12:23:02.108035,-0.07,-0.02,-0.068,104.207,14.573,70.549,1_10_2.csv
2018-07-04T12:23:02.154159,-0.07,-0.02,-0.068,42.195,-12.439,99.817,1_10_2.csv
2018-07-04T12:23:02.204794,-0.596,-0.105,-0.078,-60.244,-30.793,93.354,1_10_2.csv
2018-07-04T12:23:02.260944,-0.596,-0.105,-0.078,-104.634,-7.927,74.573,1_10_2.csv
2018-07-04T12:23:02.313585,-2.633,-0.569,-0.474,-259.451,-28.171,7.5,1_10_2.csv
2018-07-04T12:23:02.358706,-2.818,-0.944,0.194,-233.842,41.768,-35.793,1_10_2.csv
2018-07-04T12:23:02.410899,-2.818,-0.944,0.194,-27.256,149.573,-63.354,1_10_2.csv
2018-07-04T12:23:02.457023,-1.037,-0.189,0.699,204.634,120.61,-95.427,1_10_2.csv
2018-07-04T12:23:02.509699,0.292,0.365,0.592,54.451,-57.805,19.573,1_10_2.csv
2018-07-04T12:23:02.560345,0.292,0.365,0.592,51.341,6.159,-33.78,1_10_2.csv
2018-07-04T12:23:02.614490,0.117,-0.171,-0.083,111.22,-0.854,-39.634,1_10_2.csv
2018-07-04T12:23:02.657605,0.117,-0.171,-0.083,50.366,-17.073,10.976,1_10_2.csv
2018-07-04T12:23:02.705233,-0.052,-0.13,-0.084,1.463,-18.659,17.927,1_10_2.csv
2018-07-04T12:23:02.750856,-1.815,-0.416,-0.052,73.902,9.146,40.366,1_10_2.csv
2018-07-04T12:23:02.795475,-1.815,-0.416,-0.052,52.073,34.634,51.22,1_10_2.csv
2018-07-04T12:23:02.847615,-3.385,-0.834,-0.052,-189.817,-99.878,45.915,1_10_2.csv
2018-07-04T12:23:02.894300,-3.385,-0.834,-0.052,-299.939,-50.488,-43.293,1_10_2.csv
2018-07-04T12:23:02.942429,-1.46,-0.642,0.443,-27.256,80.549,-75.549,1_10_2.csv
2018-07-04T12:23:02.986046,-1.46,-0.642,0.443,270.061,69.268,-48.049,1_10_2.csv
2018-07-04T12:23:03.036681,0.163,0.25,0.153,28.902,6.89,-20.305,1_10_2.csv
2018-07-04T12:23:03.075786,0.404,0.249,0.214,-40.122,24.939,-24.634,1_10_2.csv
2018-07-04T12:23:03.122411,0.404,0.249,0.214,38.11,37.256,25.671,1_10_2.csv
2018-07-04T12:23:03.173548,-0.028,-0.179,0.177,44.817,51.341,79.268,1_10_2.csv
2018-07-04T12:23:03.265294,-1.135,-0.29,0.188,-45.061,27.5,74.878,1_10_2.csv
2018-07-04T12:23:03.482459,-0.222,-0.117,-0.028,139.756,-71.768,-89.329,1_10_2.csv
2018-07-04T12:23:03.532593,-0.222,-0.117,-0.028,82.256,-56.159,-66.89,1_10_2.csv
2018-07-04T12:23:03.576212,0.367,0.236,-0.081,-17.683,1.28,-57.317,1_10_2.csv
2018-07-04T12:23:03.685505,0.006,0.17,0.037,104.329,49.939,31.951,1_10_2.csv
2018-07-04T12:23:03.733634,-0.336,-0.054,0.05,-48.171,37.378,52.561,1_10_2.csv
2018-07-04T12:23:03.780760,-0.336,-0.054,0.05,-72.256,34.756,68.78,1_10_2.csv
2018-07-04T12:23:03.829892,-2.511,-0.766,-0.082,-64.939,47.683,94.39,1_10_2.csv
2018-07-04T12:23:03.884538,-2.844,-1.077,0.401,-318.537,-56.159,25.488,1_10_2.csv
2018-07-04T12:23:03.936177,-2.844,-1.077,0.401,-128.659,55.427,-30.549,1_10_2.csv
2018-07-04T12:23:03.982801,-1.3,-0.59,0.208,156.342,87.317,-66.22,1_10_2.csv
2018-07-04T12:23:04.033938,0.341,0.076,-0.013,17.5,-57.012,-38.598,1_10_2.csv
2018-07-04T12:23:04.118164,0.341,0.076,-0.013,50.671,7.744,-1.159,1_10_2.csv
2018-07-04T12:23:04.170805,0.341,0.076,-0.013,93.72,14.573,35.793,1_10_2.csv
2018-07-04T12:23:04.220939,-0.166,-0.081,-0.036,80.427,15.183,66.768,1_10_2.csv
2018-07-04T12:23:04.270071,-0.166,-0.081,-0.036,19.695,3.049,69.817,1_10_2.csv
2018-07-04T12:23:04.313186,-1.376,-0.336,0.006,0.366,19.085,54.939,1_10_2.csv
2018-07-04T12:23:04.358809,-3.031,-0.832,-0.147,-170.061,-35.122,7.5,1_10_2.csv
2018-07-04T12:23:04.403428,-3.031,-0.832,-0.147,-266.707,-38.415,-30.854,1_10_2.csv
2018-07-04T12:23:04.454064,-2.136,-0.905,0.354,-88.72,55.61,-54.756,1_10_2.csv
2018-07-04T12:23:04.500187,-2.136,-0.905,0.354,192.073,50.732,-57.012,1_10_2.csv
2018-07-04T12:23:04.548817,-0.377,0.068,0.261,226.585,-19.146,-56.098,1_10_2.csv
2018-07-04T12:23:04.591432,-0.377,0.068,0.261,-41.037,-50.915,-44.634,1_10_2.csv
2018-07-04T12:23:04.638558,0.473,0.084,-0.034,-6.829,24.512,3.354,1_10_2.csv
2018-07-04T12:23:04.753061,0.074,-0.034,-0.025,73.171,61.585,60.244,1_10_2.csv
2018-07-04T12:23:04.810214,-0.275,-0.069,0.217,-0.793,24.451,50.0,1_10_2.csv
2018-07-04T12:23:04.865362,-2.538,-0.734,0.005,-48.049,-3.963,67.561,1_10_2.csv
2018-07-04T12:23:04.925125,-3.29,-0.541,-0.06,-168.659,-21.951,21.402,1_10_2.csv
2018-07-04T12:23:04.966736,-3.29,-0.541,-0.06,-57.439,16.585,-76.524,1_10_2.csv
2018-07-04T12:23:05.009854,-1.196,-0.214,0.102,186.524,37.561,-76.463,1_10_2.csv
2018-07-04T12:23:05.087954,0.266,0.082,0.118,-22.683,-53.049,-19.634,1_10_2.csv
2018-07-04T12:23:05.204271,0.177,0.072,-0.009,36.037,-5.976,-4.817,1_10_2.csv
2018-07-04T12:23:05.248390,-0.003,-0.003,-0.091,11.402,-10.427,43.72,1_10_2.csv
2018-07-04T12:23:05.301534,-0.003,-0.003,-0.091,-59.878,-12.012,62.012,1_10_2.csv
2018-07-04T12:23:05.401803,-3.289,-1.014,-0.497,-97.439,39.207,35.488,1_10_2.csv
2018-07-04T12:23:05.498562,-2.635,-0.794,0.659,-130.732,22.561,-24.085,1_10_2.csv
2018-07-04T12:23:05.545187,-2.635,-0.794,0.659,-15.122,46.22,-57.805,1_10_2.csv
2018-07-04T12:23:05.590809,-0.237,-0.307,0.131,203.049,-4.634,-45.61,1_10_2.csv
2018-07-04T12:23:05.641947,0.553,-0.008,0.019,28.841,0.976,-38.293,1_10_2.csv
2018-07-04T12:23:05.684561,0.553,-0.008,0.019,63.171,48.293,-59.329,1_10_2.csv
2018-07-04T12:23:05.741212,0.073,-0.046,-0.028,102.744,41.89,-28.354,1_10_2.csv
2018-07-04T12:23:05.810899,-0.413,0.097,-0.446,45.427,20.183,14.878,1_10_2.csv
2018-07-04T12:23:05.857524,-0.413,0.097,-0.446,-45.0,11.341,0.244,1_10_2.csv
2018-07-04T12:23:05.904650,-2.573,-0.397,-0.293,-84.756,-0.427,-8.598,1_10_2.csv
2018-07-04T12:23:05.952779,-2.573,-0.397,-0.293,-170.61,-48.72,16.89,1_10_2.csv
2018-07-04T12:23:06.000407,-3.279,-1.585,1.041,-289.695,-84.878,41.707,1_10_2.csv
2018-07-04T12:23:06.112206,-0.861,-0.801,0.018,181.159,-104.39,-9.207,1_10_2.csv
2018-07-04T12:23:06.167354,0.509,0.301,-0.334,16.524,-42.744,-82.5,1_10_2.csv
2018-07-04T12:23:06.226512,0.305,0.182,-0.391,-37.134,-45.915,-49.817,1_10_2.csv
2018-07-04T12:23:06.277650,0.305,0.182,-0.391,-45.305,-9.146,0.915,1_10_2.csv
2018-07-04T12:23:06.336306,-0.095,0.014,-0.226,15.549,52.805,68.232,1_10_2.csv
2018-07-04T12:23:06.389950,-1.493,-0.273,-0.292,27.317,80.427,60.671,1_10_2.csv
2018-07-04T12:23:06.435573,-1.493,-0.273,-0.292,-4.451,99.329,67.073,1_10_2.csv
2018-07-04T12:23:06.481195,-3.546,-0.887,-0.001,-100.366,53.476,71.341,1_10_2.csv
2018-07-04T12:23:06.533334,-2.155,-0.609,0.903,-16.402,70.976,-40.0,1_10_2.csv
2018-07-04T12:23:06.583970,-2.155,-0.609,0.903,61.463,-36.646,-34.695,1_10_2.csv
2018-07-04T12:23:06.668195,0.055,-0.383,0.335,58.476,-97.988,18.11,1_10_2.csv
2018-07-04T12:23:06.723845,0.229,-0.028,-0.214,-8.598,-52.195,-4.512,1_10_2.csv
2018-07-04T12:23:06.773574,-0.014,-0.08,-0.369,-76.585,-74.817,-40.732,1_10_2.csv
2018-07-04T12:23:06.824712,-0.014,-0.08,-0.369,-0.366,-48.415,-48.171,1_10_2.csv
2018-07-04T12:23:06.877854,-0.419,0.025,0.033,77.012,-15.0,-28.598,1_10_2.csv
2018-07-04T12:23:06.924980,-0.419,0.025,0.033,-0.061,17.561,4.329,1_10_2.csv
2018-07-04T12:23:06.980630,-2.847,-0.642,-0.433,-214.512,7.5,23.476,1_10_2.csv
2018-07-04T12:23:07.030763,-2.67,-1.129,0.626,-169.878,45.0,11.22,1_10_2.csv
2018-07-04T12:23:07.074380,-2.67,-1.129,0.626,117.134,118.598,-0.183,1_10_2.csv
2018-07-04T12:23:07.124013,-0.799,-0.361,0.709,258.598,35.0,-16.22,1_10_2.csv
2018-07-04T12:23:07.168132,-0.799,-0.361,0.709,62.134,-47.561,-6.22,1_10_2.csv
2018-07-04T12:23:07.285946,0.115,-0.119,0.126,146.098,25.854,-21.951,1_10_2.csv
2018-07-04T12:23:07.327057,0.115,-0.119,0.126,130.122,17.683,-2.5,1_10_2.csv
2018-07-04T12:23:07.382205,-0.293,-0.009,0.021,1.463,-43.293,33.171,1_10_2.csv
2018-07-04T12:23:07.620290,-1.321,-0.612,0.5,276.585,17.622,20.854,1_10_2.csv
2018-07-04T12:23:07.671929,0.358,-0.049,0.406,17.073,-48.659,15.0,1_10_2.csv
2018-07-04T12:23:07.719557,0.358,-0.049,0.406,-175.122,-26.707,24.329,1_10_2.csv
2018-07-04T12:23:07.776209,0.391,-0.31,0.188,165.244,46.402,42.927,1_10_2.csv
2018-07-04T12:23:07.825841,-0.207,-0.232,0.127,208.049,27.134,51.28,1_10_2.csv
2018-07-04T12:23:07.874472,-0.207,-0.232,0.127,120.488,8.72,41.829,1_10_2.csv
2018-07-04T12:23:07.923604,-1.317,-0.05,0.037,10.366,-20.366,-1.768,1_10_2.csv
2018-07-04T12:23:07.974740,-3.255,-0.742,-0.294,-205.793,-30.0,-78.293,1_10_2.csv
2018-07-04T12:23:08.042422,-3.255,-0.742,-0.294,-260.854,-72.622,-76.159,1_10_2.csv
2018-07-04T12:23:08.088545,-2.107,-0.898,0.282,-77.805,45.488,-65.244,1_10_2.csv
2018-07-04T12:23:08.139682,0.067,0.057,0.216,223.781,-21.524,-27.195,1_10_2.csv
2018-07-04T12:23:08.186307,0.067,0.057,0.216,7.195,1.829,-8.354,1_10_2.csv
2018-07-04T12:23:08.232932,0.408,-0.029,0.295,-23.232,56.768,26.098,1_10_2.csv
2018-07-04T12:23:08.280560,0.408,-0.029,0.295,126.037,61.829,37.073,1_10_2.csv
2018-07-04T12:23:08.333702,-0.085,-0.065,0.104,163.171,49.268,55.122,1_10_2.csv
2018-07-04T12:23:08.385842,-0.467,0.072,0.205,79.878,14.39,45.915,1_10_2.csv
2018-07-04T12:23:08.432467,-0.467,0.072,0.205,-12.988,10.61,34.451,1_10_2.csv
2018-07-04T12:23:08.480094,-3.015,-0.637,-0.452,-135.854,45.915,26.098,1_10_2.csv
2018-07-04T12:23:08.526218,-3.015,-0.637,-0.452,-338.72,-106.524,5.793,1_10_2.csv
2018-07-04T12:23:08.572341,-2.802,-1.041,0.197,-348.72,-96.585,-20.366,1_10_2.csv
2018-07-04T12:23:08.631714,-0.559,-0.241,0.231,255.671,66.28,-51.829,1_10_2.csv
2018-07-04T12:23:08.701903,0.542,0.354,0.311,22.256,13.537,0.915,1_10_2.csv
2018-07-04T12:23:08.752538,0.542,0.354,0.311,-53.963,26.341,-3.598,1_10_2.csv
2018-07-04T12:23:08.846289,0.265,-0.025,0.037,86.159,32.134,52.195,1_10_2.csv
2018-07-04T12:23:08.891534,-0.284,-0.07,0.086,58.537,15.305,54.451,1_10_2.csv
2018-07-04T12:23:09.030738,-3.15,-1.153,0.057,-308.842,-101.281,-42.012,1_10_2.csv
2018-07-04T12:23:09.083379,-3.15,-1.153,0.057,-111.22,60.0,-39.634,1_10_2.csv
2018-07-04T12:23:09.135518,-1.502,-0.441,0.372,301.646,132.317,-22.561,1_10_2.csv
2018-07-04T12:23:09.181642,0.416,0.162,0.173,5.0,-90.732,-37.317,1_10_2.csv
2018-07-04T12:23:09.245619,0.416,0.162,0.173,12.012,-31.585,-36.28,1_10_2.csv
2018-07-04T12:23:09.313802,0.492,-0.071,-0.218,148.72,35.732,28.171,1_10_2.csv
2018-07-04T12:23:09.365941,-0.048,-0.08,-0.133,194.085,42.561,63.171,1_10_2.csv
2018-07-04T12:23:09.411564,-0.048,-0.08,-0.133,235.793,40.305,68.902,1_10_2.csv
2018-07-04T12:23:09.473730,-0.928,-0.001,0.165,-10.244,113.293,28.232,1_10_2.csv
2018-07-04T12:23:09.537902,-3.517,-0.544,-0.167,-220.549,103.232,38.232,1_10_2.csv
2018-07-04T12:23:09.638171,-2.627,-0.562,0.534,89.573,-22.927,-62.927,1_10_2.csv
2018-07-04T12:23:09.696829,-0.279,-0.169,0.283,142.988,-44.268,-8.598,1_10_2.csv
2018-07-04T12:23:09.764008,0.55,-0.064,-0.125,29.451,-22.805,-23.963,1_10_2.csv
2018-07-04T12:23:09.815145,0.55,-0.064,-0.125,52.073,34.878,-0.427,1_10_2.csv
2018-07-04T12:23:09.867786,-0.036,-0.064,0.031,-77.5,21.829,22.378,1_10_2.csv
2018-07-04T12:23:09.943147,-0.199,-0.026,0.033,-92.561,19.268,15.793,1_10_2.csv
2018-07-04T12:23:09.990897,-1.901,-0.254,0.095,13.78,45.122,42.073,1_10_2.csv
2018-07-04T12:23:10.073618,-3.53,-0.857,0.076,-212.378,-20.488,64.024,1_10_2.csv
2018-07-04T12:23:10.128331,-3.53,-0.857,0.076,-123.842,-27.195,-62.073,1_10_2.csv
2018-07-04T12:23:10.223085,-1.495,-0.351,0.155,271.951,-25.305,-79.451,1_10_2.csv
2018-07-04T12:23:10.306809,0.087,0.028,-0.071,-35.671,29.939,-7.866,1_10_2.csv
2018-07-04T12:23:10.353935,0.087,0.028,-0.071,-2.256,58.841,6.768,1_10_2.csv
2018-07-04T12:23:10.443175,-0.271,0.094,-0.046,14.024,12.561,4.329,1_10_2.csv
2018-07-04T12:23:10.500342,-0.767,0.104,0.191,-6.524,26.768,2.073,1_10_2.csv
2018-07-04T12:23:10.573524,-2.8,-1.07,-0.084,-182.744,-57.378,45.0,1_10_2.csv
2018-07-04T12:23:10.669403,-2.807,-1.069,-0.241,40.976,2.927,-10.061,1_10_2.csv
2018-07-04T12:23:10.725553,-0.792,-0.253,0.138,170.976,8.902,-11.89,1_10_2.csv
2018-07-04T12:23:10.794269,0.704,0.147,0.078,31.037,-40.976,-42.5,1_10_2.csv
2018-07-04T12:23:10.848915,0.704,0.147,0.078,47.256,37.683,-21.341,1_10_2.csv
2018-07-04T12:23:10.891529,0.229,-0.054,0.006,86.341,46.89,10.793,1_10_2.csv
2018-07-04T12:23:10.935647,0.229,-0.054,0.006,56.28,7.073,49.146,1_10_2.csv
2018-07-04T12:23:10.996310,-0.142,-0.044,-0.12,53.11,37.317,67.256,1_10_2.csv
2018-07-04T12:23:11.041431,-2.209,-0.357,-0.174,-26.524,65.244,72.622,1_10_2.csv
2018-07-04T12:23:11.089058,-2.209,-0.357,-0.174,-134.817,-0.183,65.61,1_10_2.csv
2018-07-04T12:23:11.138190,-3.381,-0.505,-0.042,-193.049,-28.293,-0.61,1_10_2.csv
2018-07-04T12:23:11.184313,-3.381,-0.505,-0.042,-231.463,11.402,-67.256,1_10_2.csv
2018-07-04T12:23:11.233946,-1.278,-0.681,0.042,275.244,-32.622,-24.329,1_10_2.csv
2018-07-04T12:23:11.314663,0.467,-0.054,0.068,-49.878,-9.024,-78.232,1_10_2.csv
2018-07-04T12:23:11.354770,0.165,0.083,-0.053,16.402,49.817,-92.195,1_10_2.csv
2018-07-04T12:23:11.400893,0.165,0.083,-0.053,109.39,39.268,-47.5,1_10_2.csv
2018-07-04T12:23:11.450025,-0.056,0.187,-0.064,103.11,15.0,5.488,1_10_2.csv
2018-07-04T12:23:11.495648,-0.056,0.187,-0.064,19.207,10.183,21.037,1_10_2.csv
2018-07-04T12:23:11.567341,-0.983,-0.107,-0.166,-41.037,8.537,51.585,1_10_2.csv
2018-07-04T12:23:11.620481,-3.289,-0.939,0.011,-250.061,-57.988,42.988,1_10_2.csv
2018-07-04T12:23:11.666605,-3.289,-0.939,0.011,-387.805,-65.244,-17.012,1_10_2.csv
2018-07-04T12:23:11.714233,-2.321,-0.991,0.063,219.024,48.293,14.268,1_10_2.csv
2018-07-04T12:23:11.762864,-0.459,-0.27,-0.147,89.512,-11.707,2.134,1_10_2.csv
2018-07-04T12:23:11.823024,-0.459,-0.27,-0.147,-26.22,-22.622,-13.72,1_10_2.csv
2018-07-04T12:23:11.869148,0.258,0.07,0.159,38.598,25.061,-24.207,1_10_2.csv
2018-07-04T12:23:11.920786,0.135,0.259,0.034,16.585,0.305,-15.488,1_10_2.csv
2018-07-04T12:23:11.962899,0.135,0.259,0.034,-19.573,1.22,5.61,1_10_2.csv
2018-07-04T12:23:12.011553,-0.169,0.069,-0.045,-17.378,3.049,32.927,1_10_2.csv
2018-07-04T12:23:12.061186,-0.169,0.069,-0.045,-9.329,6.951,68.598,1_10_2.csv
2018-07-04T12:23:12.105807,-2.371,-0.399,-0.557,-51.28,37.683,102.012,1_10_2.csv
2018-07-04T12:23:12.150425,-2.371,-0.399,-0.557,-220.793,-46.768,71.646,1_10_2.csv
2018-07-04T12:23:12.203567,-3.188,-0.802,0.071,-288.049,6.89,-40.0,1_10_2.csv
2018-07-04T12:23:12.246181,-1.216,-0.667,0.21,-3.476,5.366,-19.634,1_10_2.csv
2018-07-04T12:23:12.308348,-1.216,-0.667,0.21,291.281,-10.305,-1.463,1_10_2.csv
2018-07-04T12:23:12.356979,0.333,-0.044,-0.029,30.122,-11.341,-44.024,1_10_2.csv
2018-07-04T12:23:12.406110,0.26,-0.086,-0.06,41.585,39.634,-35.976,1_10_2.csv
2018-07-04T12:23:12.453738,0.26,-0.086,-0.06,90.61,43.415,-10.976,1_10_2.csv
2018-07-04T12:23:12.518411,-0.029,0.047,0.138,71.463,-5.427,3.902,1_10_2.csv
2018-07-04T12:23:12.574561,-1.41,-0.228,-0.008,28.841,3.902,10.488,1_10_2.csv
2018-07-04T12:23:12.620685,-1.41,-0.228,-0.008,-38.902,17.317,35.122,1_10_2.csv
2018-07-04T12:23:12.668312,-3.665,-0.898,-0.256,-224.451,-82.378,21.28,1_10_2.csv
2018-07-04T12:23:12.713935,-3.665,-0.898,-0.256,-275.0,-45.732,-62.744,1_10_2.csv
2018-07-04T12:23:12.760058,-1.754,-0.796,0.44,284.695,0.0,-11.22,1_10_2.csv
2018-07-04T12:23:12.817211,0.381,0.054,0.234,185.488,-28.537,-18.476,1_10_2.csv
2018-07-04T12:23:12.857820,0.381,0.054,0.234,-11.463,-5.793,-32.744,1_10_2.csv
2018-07-04T12:23:12.935029,0.244,-0.08,-0.146,37.988,37.5,-31.951,1_10_2.csv
2018-07-04T12:23:12.980649,-0.083,0.189,-0.104,150.366,-0.854,-18.72,1_10_2.csv
2018-07-04T12:23:13.024768,-0.083,0.189,-0.104,13.72,-1.646,21.524,1_10_2.csv
2018-07-04T12:23:13.072896,-0.692,-0.292,0.063,-61.768,7.988,47.5,1_10_2.csv
2018-07-04T12:23:13.133057,-3.015,-1.031,-0.13,11.463,48.598,56.524,1_10_2.csv
2018-07-04T12:23:13.182690,-3.015,-1.031,-0.13,-157.866,-83.232,-25.305,1_10_2.csv
2018-07-04T12:23:13.229315,-2.394,-1.345,0.114,-206.829,-25.549,-95.793,1_10_2.csv
2018-07-04T12:23:13.276441,-2.394,-1.345,0.114,69.146,26.22,-57.866,1_10_2.csv
2018-07-04T12:23:13.323568,-0.568,-0.159,0.331,-13.232,-68.659,-76.402,1_10_2.csv
2018-07-04T12:23:13.370193,0.489,0.327,0.072,-1.28,-57.439,-77.317,1_10_2.csv
2018-07-04T12:23:13.432861,0.489,0.327,0.072,147.683,25.244,-47.561,1_10_2.csv
2018-07-04T12:23:13.479485,0.037,0.336,-0.138,99.268,17.744,27.622,1_10_2.csv
2018-07-04T12:23:13.525609,-0.502,-0.246,-0.029,-36.037,-17.5,98.537,1_10_2.csv
2018-07-04T12:23:13.574239,-0.502,-0.246,-0.029,14.451,15.122,89.146,1_10_2.csv
2018-07-04T12:23:13.620864,-2.327,-0.864,0.031,-5.915,32.805,79.39,1_10_2.csv
2018-07-04T12:23:13.669496,-2.327,-0.864,0.031,-146.098,-40.427,34.329,1_10_2.csv
2018-07-04T12:23:13.727149,-2.744,-1.232,0.216,-160.366,32.622,0.244,1_10_2.csv
2018-07-04T12:23:13.780291,-1.139,-0.311,0.513,242.5,79.024,38.537,1_10_2.csv
2018-07-04T12:23:13.826916,-1.139,-0.311,0.513,302.317,6.585,-1.341,1_10_2.csv
2018-07-04T12:23:13.872037,0.414,0.414,0.135,-50.732,-47.561,-3.232,1_10_2.csv
2018-07-04T12:23:13.925681,0.304,-0.238,-0.137,55.0,10.793,98.841,1_10_2.csv
2018-07-04T12:23:13.966791,0.304,-0.238,-0.137,88.171,18.598,161.89,1_10_2.csv
2018-07-04T12:23:14.013917,-0.285,-0.331,0.093,32.744,44.085,165.854,1_10_2.csv
2018-07-04T12:23:14.065556,-0.285,-0.331,0.093,48.659,46.646,117.195,1_10_2.csv
2018-07-04T12:23:14.107167,-1.752,-0.443,0.028,99.817,87.866,62.622,1_10_2.csv
2018-07-04T12:23:14.156800,-1.752,-0.443,0.028,14.39,47.012,-29.268,1_10_2.csv
2018-07-04T12:23:14.201419,-3.12,-0.356,-0.119,-321.098,-75.61,-144.939,1_10_2.csv
2018-07-04T12:23:14.431045,0.413,0.0,-0.09,72.927,22.012,-19.817,1_10_2.csv
2018-07-04T12:23:14.481682,0.413,0.0,-0.09,170.671,59.207,4.39,1_10_2.csv
2018-07-04T12:23:14.530316,-0.039,0.134,0.028,69.268,47.927,48.902,1_10_2.csv
2018-07-04T12:23:14.581456,-0.478,-0.125,0.205,61.098,29.268,54.878,1_10_2.csv
2018-07-04T12:23:14.626579,-0.478,-0.125,0.205,63.841,45.305,84.268,1_10_2.csv
2018-07-04T12:23:14.670700,-3.2,-0.657,-0.51,-30.671,70.915,102.866,1_10_2.csv
2018-07-04T12:23:14.721840,-3.2,-0.657,-0.51,-309.451,-67.622,57.744,1_10_2.csv
2018-07-04T12:23:14.775486,-2.811,-0.96,0.008,125.671,95.244,-130.915,1_10_2.csv
2018-07-04T12:23:14.826121,-0.339,0.316,0.145,494.817,-10.793,-79.268,1_10_2.csv
2018-07-04T12:23:14.874251,-0.339,0.316,0.145,267.988,-114.329,-21.159,1_10_2.csv
2018-07-04T12:23:14.918369,0.693,0.377,0.094,-141.524,-54.024,-37.073,1_10_2.csv
2018-07-04T12:23:14.975021,0.045,-0.138,-0.156,37.5,16.098,13.354,1_10_2.csv
2018-07-04T12:23:15.033177,0.045,-0.138,-0.156,-0.122,2.317,56.89,1_10_2.csv
2018-07-04T12:23:15.077796,-0.485,-0.075,0.082,-52.561,5.0,65.061,1_10_2.csv
2018-07-04T12:23:15.122916,-0.485,-0.075,0.082,-12.378,36.951,63.78,1_10_2.csv
2018-07-04T12:23:15.182075,-3.18,-0.615,-0.118,-160.183,-0.488,32.195,1_10_2.csv
2018-07-04T12:23:15.232209,-2.904,-0.927,0.125,-230.915,-71.585,-36.829,1_10_2.csv
2018-07-04T12:23:15.296883,-0.339,-0.56,0.232,103.842,-20.793,-87.744,1_10_2.csv
2018-07-04T12:23:15.349524,-0.339,-0.56,0.232,70.305,-59.756,-52.683,1_10_2.csv
2018-07-04T12:23:15.401663,0.935,0.218,0.078,-19.939,-3.415,-52.195,1_10_2.csv
2018-07-04T12:23:15.452800,0.11,0.179,0.056,198.598,113.72,-21.585,1_10_2.csv
2018-07-04T12:23:15.499425,0.11,0.179,0.056,119.878,80.0,40.732,1_10_2.csv
2018-07-04T12:23:15.546051,-0.48,0.019,0.181,12.073,12.195,75.488,1_10_2.csv
2018-07-04T12:23:15.590173,-0.48,0.019,0.181,61.89,20.244,62.073,1_10_2.csv
2018-07-04T12:23:15.699465,-3.023,-0.976,0.065,-165.366,-50.0,8.354,1_10_2.csv
2018-07-04T12:23:15.757621,-3.023,-0.976,0.065,-66.159,18.72,-86.707,1_10_2.csv
2018-07-04T12:23:15.807254,-1.085,-0.64,0.39,106.646,11.89,-71.524,1_10_2.csv
2018-07-04T12:23:15.854380,0.363,0.015,0.254,89.024,-50.549,-96.037,1_10_2.csv
2018-07-04T12:23:15.901507,0.363,0.015,0.254,85.427,5.732,-114.939,1_10_2.csv
2018-07-04T12:23:15.947129,0.505,0.284,-0.159,77.683,21.646,-64.634,1_10_2.csv
2018-07-04T12:23:15.995258,0.505,0.284,-0.159,41.098,35.366,-3.598,1_10_2.csv
2018-07-04T12:23:16.068454,0.063,-0.057,-0.287,42.805,61.098,62.439,1_10_2.csv
2018-07-04T12:23:16.119591,-1.686,-0.339,0.082,78.902,102.866,77.988,1_10_2.csv
2018-07-04T12:23:16.248937,-3.489,-1.081,0.044,-273.781,-80.488,-51.28,1_10_2.csv
2018-07-04T12:23:16.293055,-1.721,-0.641,0.277,7.683,34.756,-122.744,1_10_2.csv
2018-07-04T12:23:16.352715,-0.072,-0.031,0.153,-0.366,-84.146,-34.878,1_10_2.csv
2018-07-04T12:23:16.401345,-0.072,-0.031,0.153,-169.512,-52.134,-56.22,1_10_2.csv
2018-07-04T12:23:16.467021,0.233,0.001,-0.003,10.732,-1.28,-63.293,1_10_2.csv
2018-07-04T12:23:16.509635,0.188,0.124,-0.036,32.5,35.549,-17.744,1_10_2.csv
2018-07-04T12:23:16.557263,0.188,0.124,-0.036,46.951,47.805,24.695,1_10_2.csv
2018-07-04T12:23:16.604891,-0.505,-0.229,0.18,54.329,40.183,50.793,1_10_2.csv
2018-07-04T12:23:16.651515,-0.505,-0.229,0.18,15.488,25.366,80.915,1_10_2.csv
2018-07-04T12:23:16.696636,-3.135,-1.65,0.026,-180.732,-39.146,111.585,1_10_2.csv
2018-07-04T12:23:16.750280,-2.375,-1.4,0.325,-155.183,-3.78,-47.622,1_10_2.csv
2018-07-04T12:23:16.794399,-2.375,-1.4,0.325,189.207,61.707,-60.0,1_10_2.csv
2018-07-04T12:23:16.839519,-0.183,-0.04,0.19,113.72,-67.744,-17.317,1_10_2.csv
2018-07-04T12:23:16.888150,-0.183,-0.04,0.19,-78.232,-66.524,-12.378,1_10_2.csv
2018-07-04T12:23:16.932798,0.581,0.187,-0.155,-7.744,-12.195,-31.829,1_10_2.csv
2018-07-04T12:23:17.034069,0.042,0.166,-0.062,0.793,26.037,86.22,1_10_2.csv
2018-07-04T12:23:17.107766,-0.247,0.079,0.067,-67.5,-12.195,81.829,1_10_2.csv
2018-07-04T12:23:17.186978,-1.948,-0.337,-0.211,-118.476,28.78,114.39,1_10_2.csv
2018-07-04T12:23:17.232601,-3.551,-1.132,-0.324,-284.451,-17.317,51.646,1_10_2.csv
2018-07-04T12:23:17.292261,-3.551,-1.132,-0.324,-98.659,85.671,-37.134,1_10_2.csv
2018-07-04T12:23:17.352116,-2.006,-0.517,-0.041,126.159,-39.085,-67.256,1_10_2.csv
2018-07-04T12:23:17.401248,0.113,-0.132,0.109,-76.098,-75.793,-67.683,1_10_2.csv
2018-07-04T12:23:17.447893,0.113,-0.132,0.109,44.451,20.244,-78.902,1_10_2.csv
2018-07-04T12:23:17.496022,0.368,0.299,0.27,177.683,63.11,-36.037,1_10_2.csv
2018-07-04T12:23:17.547159,-0.188,-0.172,-0.022,51.829,21.098,95.732,1_10_2.csv
2018-07-04T12:23:17.588771,-0.188,-0.172,-0.022,98.659,25.549,67.317,1_10_2.csv
