time,accel_x_list,accel_y_list,accel_z_list,gyro_x_list,gyro_y_list,gyro_z_list,filename
2018-07-04T12:12:34.164278,-0.94,-0.255,0.252,-28.049,27.012,83.293,1_6_3.csv
2018-07-04T12:12:34.212411,-0.94,-0.255,0.252,-28.049,27.012,83.293,1_6_3.csv
2018-07-04T12:12:34.259538,-1.317,-0.407,0.464,-33.841,73.537,204.573,1_6_3.csv
2018-07-04T12:12:34.304162,-1.317,-0.407,0.464,7.317,61.524,221.159,1_6_3.csv
2018-07-04T12:12:34.352293,-1.229,-0.29,0.444,21.22,40.793,186.707,1_6_3.csv
2018-07-04T12:12:34.407442,-1.229,-0.29,0.444,-1.402,23.598,119.756,1_6_3.csv
2018-07-04T12:12:34.466101,-1.034,-0.123,0.208,-168.415,-52.927,-12.561,1_6_3.csv
2018-07-04T12:12:34.510221,-0.788,-0.35,0.099,-244.268,-64.268,-52.073,1_6_3.csv
2018-07-04T12:12:34.555343,-0.788,-0.35,0.099,-263.11,-62.622,-61.22,1_6_3.csv
2018-07-04T12:12:34.602972,-0.621,-0.469,0.123,-203.72,-47.012,-39.207,1_6_3.csv
2018-07-04T12:12:34.652607,-0.621,-0.469,0.123,-112.378,-20.427,-6.22,1_6_3.csv
2018-07-04T12:12:34.762906,-1.217,-0.491,0.43,12.073,70.915,76.22,1_6_3.csv
2018-07-04T12:12:34.807025,-1.217,-0.491,0.43,50.183,82.744,85.488,1_6_3.csv
2018-07-04T12:12:34.850644,-1.515,-0.554,0.509,87.439,67.927,67.256,1_6_3.csv
2018-07-04T12:12:34.899777,-1.076,-0.188,0.369,105.61,-17.378,-44.085,1_6_3.csv
2018-07-04T12:12:34.944899,-1.076,-0.188,0.369,48.293,-31.098,-86.829,1_6_3.csv
2018-07-04T12:12:34.991525,-1.052,-0.316,0.275,35.366,-49.573,-86.159,1_6_3.csv
2018-07-04T12:12:35.046675,-1.052,-0.316,0.275,39.695,-80.61,-62.378,1_6_3.csv
2018-07-04T12:12:35.086858,-0.946,-0.294,0.178,15.854,-87.805,-45.427,1_6_3.csv
2018-07-04T12:12:35.133484,-0.946,-0.294,0.178,-18.72,-79.268,-47.195,1_6_3.csv
2018-07-04T12:12:35.181615,-0.934,-0.292,0.078,-49.573,-65.0,-64.268,1_6_3.csv
2018-07-04T12:12:35.226738,-0.883,-0.301,0.026,-39.939,-55.061,-68.902,1_6_3.csv
2018-07-04T12:12:35.273865,-0.883,-0.301,0.026,-32.256,-40.671,-70.427,1_6_3.csv
2018-07-04T12:12:35.341047,-0.915,-0.274,0.093,-19.085,-0.183,-21.829,1_6_3.csv
2018-07-04T12:12:35.382158,-0.987,-0.277,0.236,-5.183,18.171,30.61,1_6_3.csv
2018-07-04T12:12:35.432294,-0.987,-0.277,0.236,-11.707,38.049,87.073,1_6_3.csv
2018-07-04T12:12:35.516522,-1.011,-0.308,0.482,17.134,57.561,139.756,1_6_3.csv
2018-07-04T12:12:35.554124,-1.14,-0.216,0.445,43.78,61.402,118.72,1_6_3.csv
2018-07-04T12:12:35.601252,-1.14,-0.216,0.445,27.5,45.061,86.463,1_6_3.csv
2018-07-04T12:12:35.652390,-1.07,-0.181,0.272,-25.488,3.902,53.902,1_6_3.csv
2018-07-04T12:12:35.695507,-1.07,-0.181,0.272,-86.829,-20.0,23.232,1_6_3.csv
2018-07-04T12:12:35.742636,-0.807,-0.302,0.205,-140.793,-18.476,-6.159,1_6_3.csv
2018-07-04T12:12:35.791267,-0.739,-0.398,0.187,-111.524,-7.683,2.866,1_6_3.csv
2018-07-04T12:12:35.835387,-0.739,-0.398,0.187,-64.207,6.037,19.878,1_6_3.csv
2018-07-04T12:12:35.883016,-0.841,-0.391,0.227,-25.305,25.732,35.122,1_6_3.csv
2018-07-04T12:12:35.937163,-0.841,-0.391,0.227,8.415,47.012,48.659,1_6_3.csv
2018-07-04T12:12:35.977773,-1.125,-0.416,0.416,44.085,59.024,55.671,1_6_3.csv
2018-07-04T12:12:36.022895,-1.125,-0.416,0.416,57.256,50.732,39.268,1_6_3.csv
2018-07-04T12:12:36.087069,-1.354,-0.434,0.491,47.195,23.354,-13.902,1_6_3.csv
2018-07-04T12:12:36.134698,-1.189,-0.34,0.406,57.683,-26.28,-26.098,1_6_3.csv
2018-07-04T12:12:36.182327,-1.189,-0.34,0.406,52.439,-43.354,-43.598,1_6_3.csv
2018-07-04T12:12:36.230458,-1.128,-0.323,0.312,70.549,-68.293,-43.963,1_6_3.csv
2018-07-04T12:12:36.273574,-1.055,-0.296,0.193,54.085,-88.72,-45.244,1_6_3.csv
2018-07-04T12:12:36.319699,-1.055,-0.296,0.193,11.707,-91.22,-64.207,1_6_3.csv
2018-07-04T12:12:36.368832,-1.026,-0.296,0.089,-26.829,-97.744,-86.585,1_6_3.csv
2018-07-04T12:12:36.440527,-0.962,-0.311,0.026,-68.902,-86.402,-117.561,1_6_3.csv
2018-07-04T12:12:36.477126,-0.962,-0.311,0.026,-63.78,-65.061,-125.0,1_6_3.csv
2018-07-04T12:12:36.532777,-0.875,-0.285,0.11,-43.72,-38.476,-117.683,1_6_3.csv
2018-07-04T12:12:36.575393,-0.875,-0.285,0.11,-5.488,-12.073,-88.659,1_6_3.csv
2018-07-04T12:12:36.620013,-0.737,-0.187,0.271,46.951,12.805,-38.476,1_6_3.csv
2018-07-04T12:12:36.669650,-0.949,-0.095,0.44,46.768,72.012,108.72,1_6_3.csv
2018-07-04T12:12:36.713769,-0.949,-0.095,0.44,-10.488,97.988,175.366,1_6_3.csv
2018-07-04T12:12:36.776943,-1.206,-0.145,0.616,-37.195,93.11,199.268,1_6_3.csv
2018-07-04T12:12:36.882228,-1.352,-0.221,0.311,-24.878,-0.427,96.159,1_6_3.csv
2018-07-04T12:12:36.930359,-1.112,-0.165,0.198,-97.073,-30.854,51.768,1_6_3.csv
2018-07-04T12:12:36.976985,-1.112,-0.165,0.198,-195.915,-45.122,20.671,1_6_3.csv
2018-07-04T12:12:37.024810,-0.76,-0.397,0.162,-260.854,-49.634,7.439,1_6_3.csv
2018-07-04T12:12:37.085474,-0.601,-0.454,0.146,-139.39,-16.951,33.902,1_6_3.csv
2018-07-04T12:12:37.133103,-0.601,-0.454,0.146,-62.561,3.841,43.537,1_6_3.csv
2018-07-04T12:12:37.187751,-0.734,-0.387,0.231,-34.695,20.0,49.024,1_6_3.csv
2018-07-04T12:12:37.255435,-1.169,-0.554,0.365,-28.659,60.61,54.268,1_6_3.csv
2018-07-04T12:12:37.306072,-1.169,-0.554,0.365,0.183,69.939,31.22,1_6_3.csv
2018-07-04T12:12:37.353199,-1.656,-0.541,0.449,121.646,31.646,-57.866,1_6_3.csv
2018-07-04T12:12:37.407848,-1.306,-0.092,0.408,106.646,-30.305,-116.89,1_6_3.csv
2018-07-04T12:12:37.461995,-1.306,-0.092,0.408,31.768,-58.415,-156.585,1_6_3.csv
2018-07-04T12:12:37.513133,-1.026,-0.155,0.287,2.012,-95.671,-117.988,1_6_3.csv
2018-07-04T12:12:37.562268,-0.772,-0.227,0.27,-4.756,-98.78,-71.585,1_6_3.csv
2018-07-04T12:12:37.604882,-0.772,-0.227,0.27,-19.207,-83.598,-37.5,1_6_3.csv
2018-07-04T12:12:37.650004,-0.833,-0.198,0.182,-16.402,-70.488,-16.402,1_6_3.csv
2018-07-04T12:12:37.708663,-0.833,-0.198,0.182,-17.378,-64.451,2.805,1_6_3.csv
2018-07-04T12:12:37.757296,-0.949,-0.182,0.117,-97.866,-69.451,28.537,1_6_3.csv
2018-07-04T12:12:37.805927,-0.872,-0.224,0.083,-133.537,-54.695,33.537,1_6_3.csv
2018-07-04T12:12:37.853556,-0.872,-0.224,0.083,-133.171,-31.768,57.256,1_6_3.csv
2018-07-04T12:12:37.898678,-1.052,-0.335,0.081,-109.817,-10.671,106.768,1_6_3.csv
2018-07-04T12:12:37.945806,-1.052,-0.335,0.081,-98.232,12.805,175.488,1_6_3.csv
2018-07-04T12:12:38.000454,-1.493,-0.596,0.133,-78.11,21.098,268.781,1_6_3.csv
2018-07-04T12:12:38.054100,-1.115,-0.479,0.291,-18.476,7.439,199.756,1_6_3.csv
2018-07-04T12:12:38.101227,-1.115,-0.479,0.291,21.524,25.488,72.073,1_6_3.csv
2018-07-04T12:12:38.150361,-1.131,-0.001,0.085,-27.317,0.244,-32.317,1_6_3.csv
2018-07-04T12:12:38.243614,-0.771,-0.368,-0.013,-335.671,-71.159,-88.354,1_6_3.csv
2018-07-04T12:12:38.289738,-0.492,-0.495,0.075,-227.439,-48.11,-36.463,1_6_3.csv
2018-07-04T12:12:38.347896,-0.492,-0.495,0.075,-49.512,-17.378,29.39,1_6_3.csv
2018-07-04T12:12:38.403547,-0.647,-0.198,0.259,-25.122,60.915,93.11,1_6_3.csv
2018-07-04T12:12:38.449171,-1.219,-0.361,0.47,-55.549,88.598,121.829,1_6_3.csv
2018-07-04T12:12:38.498805,-1.219,-0.361,0.47,-65.671,96.463,125.061,1_6_3.csv
2018-07-04T12:12:38.544429,-1.462,-0.622,0.539,-6.22,82.622,93.78,1_6_3.csv
2018-07-04T12:12:38.586543,-1.462,-0.622,0.539,93.72,68.293,49.085,1_6_3.csv
2018-07-04T12:12:38.652221,-1.444,-0.334,0.493,58.72,-71.037,-51.341,1_6_3.csv
2018-07-04T12:12:38.697343,-1.185,-0.306,0.312,-53.72,-99.817,-102.683,1_6_3.csv
2018-07-04T12:12:38.743970,-1.185,-0.306,0.312,-61.463,-112.256,-137.317,1_6_3.csv
2018-07-04T12:12:38.792100,-1.177,-0.525,0.16,-31.524,-139.268,-147.317,1_6_3.csv
2018-07-04T12:12:38.836721,-1.177,-0.525,0.16,-14.39,-139.939,-144.39,1_6_3.csv
2018-07-04T12:12:38.883848,-1.057,-0.353,0.107,-21.829,-104.939,-140.183,1_6_3.csv
2018-07-04T12:12:38.943009,-0.888,-0.313,-0.008,-26.829,-87.439,-131.281,1_6_3.csv
2018-07-04T12:12:38.993646,-0.888,-0.313,-0.008,-15.61,-66.463,-115.854,1_6_3.csv
2018-07-04T12:12:39.040342,-0.679,-0.219,0.061,6.768,-16.098,-65.061,1_6_3.csv
2018-07-04T12:12:39.087470,-0.62,-0.166,0.184,7.622,13.476,-15.854,1_6_3.csv
2018-07-04T12:12:39.133093,-0.62,-0.166,0.184,7.744,41.829,51.585,1_6_3.csv
2018-07-04T12:12:39.182227,-0.988,-0.158,0.268,-2.866,66.585,132.927,1_6_3.csv
2018-07-04T12:12:39.236374,-0.988,-0.158,0.268,-35.183,95.061,220.366,1_6_3.csv
2018-07-04T12:12:39.295032,-1.67,-0.347,0.519,-52.134,89.146,299.451,1_6_3.csv
2018-07-04T12:12:39.336645,-1.476,-0.52,0.461,-26.463,48.841,236.768,1_6_3.csv
2018-07-04T12:12:39.383272,-1.476,-0.52,0.461,16.707,2.378,126.707,1_6_3.csv
2018-07-04T12:12:39.443435,-0.991,-0.048,0.153,-191.281,-64.512,-42.378,1_6_3.csv
2018-07-04T12:12:39.493571,-0.726,-0.459,0.01,-300.549,-81.341,-69.756,1_6_3.csv
2018-07-04T12:12:39.539696,-0.726,-0.459,0.01,-294.207,-83.415,-58.72,1_6_3.csv
2018-07-04T12:12:39.671052,-0.684,-0.352,0.174,-48.598,8.902,30.732,1_6_3.csv
2018-07-04T12:12:39.718681,-0.684,-0.352,0.174,-29.39,44.878,53.293,1_6_3.csv
2018-07-04T12:12:39.763302,-1.116,-0.566,0.383,95.976,91.646,69.695,1_6_3.csv
2018-07-04T12:12:39.815944,-1.419,-0.529,0.434,138.963,91.585,38.049,1_6_3.csv
2018-07-04T12:12:39.867083,-1.419,-0.529,0.434,157.927,84.695,-3.11,1_6_3.csv
2018-07-04T12:12:39.915214,-1.276,-0.178,0.432,198.476,31.707,-37.439,1_6_3.csv
2018-07-04T12:12:39.963344,-1.276,-0.178,0.432,119.146,-31.28,-66.159,1_6_3.csv
2018-07-04T12:12:40.023507,-1.066,-0.194,0.356,14.329,-56.098,-66.341,1_6_3.csv
2018-07-04T12:12:40.071136,-1.028,-0.352,0.209,36.22,-87.744,-50.427,1_6_3.csv
2018-07-04T12:12:40.117762,-1.028,-0.352,0.209,29.268,-93.293,-45.488,1_6_3.csv
2018-07-04T12:12:40.166532,-0.968,-0.243,0.141,-25.549,-81.951,-61.402,1_6_3.csv
2018-07-04T12:12:40.211152,-0.888,-0.291,0.026,-43.11,-75.305,-62.195,1_6_3.csv
2018-07-04T12:12:40.258280,-0.888,-0.291,0.026,-43.72,-63.476,-58.232,1_6_3.csv
2018-07-04T12:12:40.316939,-0.871,-0.263,0.016,-43.598,-49.939,-51.524,1_6_3.csv
2018-07-04T12:12:40.369582,-0.944,-0.282,0.205,-48.598,-11.829,1.463,1_6_3.csv
2018-07-04T12:12:40.417334,-0.944,-0.282,0.205,-25.671,10.549,52.5,1_6_3.csv
2018-07-04T12:12:40.465507,-1.076,-0.257,0.366,-8.415,18.171,108.476,1_6_3.csv
2018-07-04T12:12:40.510628,-1.076,-0.257,0.366,-52.805,43.171,155.61,1_6_3.csv
2018-07-04T12:12:40.561266,-1.061,-0.335,0.63,-48.11,49.817,171.768,1_6_3.csv
2018-07-04T12:12:40.623936,-1.16,-0.253,0.386,16.524,27.561,104.939,1_6_3.csv
2018-07-04T12:12:40.669560,-1.16,-0.253,0.386,-10.183,-27.439,40.549,1_6_3.csv
2018-07-04T12:12:40.711173,-0.872,-0.202,0.22,-65.488,-47.073,-9.756,1_6_3.csv
2018-07-04T12:12:40.759303,-0.872,-0.202,0.22,-78.902,-50.366,-37.256,1_6_3.csv
2018-07-04T12:12:40.829493,-0.734,-0.305,0.297,-131.707,-42.073,-24.451,1_6_3.csv
2018-07-04T12:12:40.869101,-0.604,-0.301,0.259,-147.622,-20.244,-2.073,1_6_3.csv
2018-07-04T12:12:40.915225,-0.604,-0.301,0.259,-114.268,6.402,23.11,1_6_3.csv
2018-07-04T12:12:41.056378,-1.311,-0.581,0.374,3.841,58.476,62.988,1_6_3.csv
2018-07-04T12:12:41.100999,-1.315,-0.562,0.441,54.634,41.829,29.207,1_6_3.csv
2018-07-04T12:12:41.148628,-1.315,-0.562,0.441,98.963,16.768,-17.256,1_6_3.csv
2018-07-04T12:12:41.211799,-1.085,-0.285,0.409,70.183,-8.354,-76.463,1_6_3.csv
2018-07-04T12:12:41.257924,-1.014,-0.28,0.289,62.744,-46.098,-71.098,1_6_3.csv
2018-07-04T12:12:41.309564,-1.014,-0.28,0.289,21.89,-66.89,-74.939,1_6_3.csv
2018-07-04T12:12:41.356190,-0.891,-0.242,0.249,-6.768,-56.098,-89.39,1_6_3.csv
2018-07-04T12:12:41.403819,-0.891,-0.242,0.249,-8.78,-52.256,-92.195,1_6_3.csv
2018-07-04T12:12:41.448942,-0.924,-0.315,0.118,-4.573,-56.89,-75.671,1_6_3.csv
2018-07-04T12:12:41.504592,-0.946,-0.218,0.085,-25.915,-55.732,-41.098,1_6_3.csv
2018-07-04T12:12:41.555731,-0.946,-0.218,0.085,-71.524,-47.256,-35.0,1_6_3.csv
2018-07-04T12:12:41.602859,-0.954,-0.275,0.137,-90.122,-33.72,-24.085,1_6_3.csv
2018-07-04T12:12:41.665529,-0.998,-0.318,0.234,-32.195,8.78,39.878,1_6_3.csv
2018-07-04T12:12:41.711653,-0.998,-0.318,0.234,-17.5,29.695,94.085,1_6_3.csv
2018-07-04T12:12:41.765299,-1.08,-0.396,0.375,-22.5,39.268,147.622,1_6_3.csv
2018-07-04T12:12:41.839506,-1.088,-0.355,0.337,-29.451,17.683,157.927,1_6_3.csv
2018-07-04T12:12:41.887637,-1.088,-0.355,0.337,-60.854,-2.5,106.707,1_6_3.csv
2018-07-04T12:12:41.930754,-1.074,-0.069,0.19,-87.744,-39.451,50.366,1_6_3.csv
2018-07-04T12:12:41.977380,-0.836,-0.223,0.063,-273.415,-70.915,-25.549,1_6_3.csv
2018-07-04T12:12:42.024508,-0.836,-0.223,0.063,-300.488,-72.439,-14.695,1_6_3.csv
2018-07-04T12:12:42.085674,-0.666,-0.555,0.019,-254.146,-63.598,28.537,1_6_3.csv
2018-07-04T12:12:42.133303,-0.666,-0.555,0.019,-146.281,-38.963,69.573,1_6_3.csv
2018-07-04T12:12:42.180932,-0.784,-0.491,0.128,-13.841,26.829,118.72,1_6_3.csv
2018-07-04T12:12:42.227057,-1.183,-0.778,0.334,4.512,51.951,129.085,1_6_3.csv
2018-07-04T12:12:42.288724,-1.183,-0.778,0.334,27.378,57.622,101.707,1_6_3.csv
2018-07-04T12:12:42.336854,-1.449,-0.68,0.385,103.963,35.854,-54.39,1_6_3.csv
2018-07-04T12:12:42.414064,-1.117,-0.328,0.47,89.085,-8.841,-116.463,1_6_3.csv
2018-07-04T12:12:42.463197,-1.168,-0.471,0.253,27.927,-20.244,-143.476,1_6_3.csv
2018-07-04T12:12:42.507316,-1.168,-0.471,0.253,105.183,-33.659,-119.024,1_6_3.csv
2018-07-04T12:12:42.554946,-1.091,-0.238,0.203,166.829,-51.22,-95.976,1_6_3.csv
2018-07-04T12:12:42.607087,-1.091,-0.238,0.203,140.976,-53.659,-83.293,1_6_3.csv
2018-07-04T12:12:42.651207,-0.948,-0.117,0.191,73.293,-64.39,-78.171,1_6_3.csv
2018-07-04T12:12:42.697331,-0.9,-0.174,0.052,11.829,-77.439,-67.378,1_6_3.csv
2018-07-04T12:12:42.744962,-0.9,-0.174,0.052,-66.098,-94.512,-41.829,1_6_3.csv
2018-07-04T12:12:42.788579,-0.825,-0.178,0.024,-112.744,-86.402,-27.683,1_6_3.csv
2018-07-04T12:12:42.836709,-0.825,-0.178,0.024,-146.342,-70.671,0.061,1_6_3.csv
2018-07-04T12:12:42.901886,-0.753,-0.294,0.184,-94.451,-10.366,129.451,1_6_3.csv
2018-07-04T12:12:42.963052,-1.199,-0.404,0.232,-56.951,23.171,212.317,1_6_3.csv
2018-07-04T12:12:43.017198,-1.199,-0.404,0.232,-46.159,45.976,274.085,1_6_3.csv
2018-07-04T12:12:43.071345,-1.474,-0.593,0.387,-49.207,20.061,214.329,1_6_3.csv
2018-07-04T12:12:43.127999,-1.156,-0.26,0.295,-14.634,0.244,95.488,1_6_3.csv
2018-07-04T12:12:43.185655,-0.814,-0.266,0.174,-122.866,-33.354,-62.744,1_6_3.csv
2018-07-04T12:12:43.232783,-0.814,-0.266,0.174,-194.817,-46.89,-74.634,1_6_3.csv
2018-07-04T12:12:43.278406,-0.678,-0.463,0.147,-197.256,-52.317,-54.451,1_6_3.csv
2018-07-04T12:12:43.319518,-0.678,-0.463,0.147,-143.72,-38.232,-25.244,1_6_3.csv
2018-07-04T12:12:43.367147,-0.651,-0.344,0.242,-84.451,-14.512,1.646,1_6_3.csv
2018-07-04T12:12:43.423800,-0.951,-0.414,0.422,-33.476,41.402,49.634,1_6_3.csv
2018-07-04T12:12:43.463909,-0.951,-0.414,0.422,2.256,60.305,63.659,1_6_3.csv
2018-07-04T12:12:43.514546,-1.3,-0.494,0.548,41.768,60.854,61.829,1_6_3.csv
2018-07-04T12:12:43.563688,-1.3,-0.494,0.548,64.878,47.988,43.049,1_6_3.csv
2018-07-04T12:12:43.604298,-1.35,-0.365,0.51,69.634,12.622,9.878,1_6_3.csv
2018-07-04T12:12:43.649922,-1.35,-0.365,0.51,48.659,-31.037,-39.512,1_6_3.csv
2018-07-04T12:12:43.704570,-1.143,-0.256,0.374,-14.207,-70.671,-88.049,1_6_3.csv
2018-07-04T12:12:43.837430,-0.873,-0.223,0.184,-18.963,-82.317,-81.28,1_6_3.csv
2018-07-04T12:12:43.887065,-0.873,-0.223,0.184,-40.427,-74.451,-84.573,1_6_3.csv
2018-07-04T12:12:43.948230,-0.806,-0.258,0.128,-36.707,-52.988,-53.659,1_6_3.csv
2018-07-04T12:12:44.015412,-0.794,-0.237,0.153,-28.232,-39.512,-25.183,1_6_3.csv
2018-07-04T12:12:44.088110,-0.899,-0.24,0.249,-43.476,-1.402,42.622,1_6_3.csv
2018-07-04T12:12:44.133733,-0.899,-0.24,0.249,-34.39,16.829,84.451,1_6_3.csv
2018-07-04T12:12:44.180359,-1.186,-0.292,0.29,-28.841,36.768,130.488,1_6_3.csv
2018-07-04T12:12:44.228991,-1.362,-0.354,0.42,-36.28,59.329,201.585,1_6_3.csv
2018-07-04T12:12:44.274114,-1.362,-0.354,0.42,-48.354,27.866,185.61,1_6_3.csv
2018-07-04T12:12:44.335780,-1.067,-0.369,0.326,-64.39,19.817,136.829,1_6_3.csv
2018-07-04T12:12:44.463627,-0.938,-0.227,0.186,-129.878,-46.402,-30.549,1_6_3.csv
2018-07-04T12:12:44.508749,-0.759,-0.291,0.105,-229.756,-43.659,-58.537,1_6_3.csv
2018-07-04T12:12:44.554373,-0.583,-0.419,0.177,-175.122,-22.256,-33.049,1_6_3.csv
2018-07-04T12:12:44.603005,-0.583,-0.419,0.177,-89.573,4.024,4.451,1_6_3.csv
2018-07-04T12:12:44.649631,-0.758,-0.366,0.353,-31.646,33.78,38.659,1_6_3.csv
2018-07-04T12:12:44.695927,-0.758,-0.366,0.353,-4.756,66.951,67.317,1_6_3.csv
2018-07-04T12:12:44.814248,-1.515,-0.472,0.591,84.817,61.098,43.902,1_6_3.csv
2018-07-04T12:12:44.929560,-1.18,-0.229,0.417,5.061,-70.732,-79.939,1_6_3.csv
2018-07-04T12:12:44.988720,-1.116,-0.38,0.241,-11.951,-76.707,-90.854,1_6_3.csv
2018-07-04T12:12:45.039358,-1.076,-0.361,0.091,13.963,-105.732,-66.524,1_6_3.csv
2018-07-04T12:12:45.196283,-0.807,-0.334,0.061,-37.927,-47.561,-108.232,1_6_3.csv
2018-07-04T12:12:45.244915,-0.807,-0.334,0.061,13.841,-26.463,-88.476,1_6_3.csv
2018-07-04T12:12:45.318113,-0.824,-0.237,0.183,61.524,2.378,-9.39,1_6_3.csv
2018-07-04T12:12:45.388805,-0.868,-0.124,0.333,31.524,22.805,36.524,1_6_3.csv
2018-07-04T12:12:45.461502,-1.09,-0.202,0.425,-20.915,65.0,125.366,1_6_3.csv
2018-07-04T12:12:45.540717,-1.2,-0.244,0.458,-21.646,73.049,167.5,1_6_3.csv
2018-07-04T12:12:45.585839,-1.2,-0.244,0.458,-38.415,66.707,152.317,1_6_3.csv
2018-07-04T12:12:45.685610,-0.893,-0.301,0.26,-86.585,-1.524,33.171,1_6_3.csv
2018-07-04T12:12:45.727222,-0.893,-0.301,0.26,-105.854,-3.902,3.72,1_6_3.csv
2018-07-04T12:12:45.775854,-0.788,-0.401,0.274,-105.061,-4.024,0.793,1_6_3.csv
2018-07-04T12:12:45.833009,-0.788,-0.401,0.274,-76.463,-1.037,12.683,1_6_3.csv
2018-07-04T12:12:45.868605,-0.849,-0.431,0.335,-39.695,16.28,26.646,1_6_3.csv
2018-07-04T12:12:45.916235,-1.111,-0.438,0.506,36.28,41.402,35.0,1_6_3.csv
2018-07-04T12:12:46.014501,-1.366,-0.376,0.588,69.39,30.671,-14.878,1_6_3.csv
2018-07-04T12:12:46.084691,-1.235,-0.253,0.461,82.134,-47.683,-52.988,1_6_3.csv
2018-07-04T12:12:46.134326,-1.235,-0.253,0.461,55.671,-65.732,-70.976,1_6_3.csv
2018-07-04T12:12:46.184963,-1.149,-0.296,0.305,66.098,-73.11,-74.695,1_6_3.csv
2018-07-04T12:12:46.233093,-1.149,-0.296,0.305,88.537,-85.671,-62.073,1_6_3.csv
2018-07-04T12:12:46.277213,-0.987,-0.222,0.221,30.671,-86.707,-69.39,1_6_3.csv
2018-07-04T12:12:46.335872,-0.907,-0.245,0.179,1.341,-77.439,-80.732,1_6_3.csv
2018-07-04T12:12:46.395534,-0.907,-0.245,0.179,-8.841,-71.951,-85.915,1_6_3.csv
2018-07-04T12:12:46.447174,-0.896,-0.249,0.162,-6.951,-52.378,-95.305,1_6_3.csv
2018-07-04T12:12:46.518367,-0.875,-0.205,0.189,-4.024,-13.72,-83.354,1_6_3.csv
2018-07-04T12:12:46.579139,-0.771,-0.125,0.298,21.707,12.805,-48.963,1_6_3.csv
2018-07-04T12:12:46.616741,-0.771,-0.125,0.298,28.659,45.305,8.171,1_6_3.csv
2018-07-04T12:12:46.664871,-0.926,-0.101,0.479,6.524,82.622,79.695,1_6_3.csv
2018-07-04T12:12:46.731383,-1.215,-0.057,0.571,-13.963,117.073,151.524,1_6_3.csv
2018-07-04T12:12:46.837169,-1.333,-0.099,0.337,-52.561,71.951,125.915,1_6_3.csv
2018-07-04T12:12:46.887306,-1.029,-0.238,0.256,-172.988,-18.841,74.146,1_6_3.csv
2018-07-04T12:12:47.060776,-0.714,-0.386,0.167,-146.22,-25.732,15.671,1_6_3.csv
2018-07-04T12:12:47.119435,-0.714,-0.386,0.167,-106.037,-9.878,21.037,1_6_3.csv
2018-07-04T12:12:47.169571,-0.821,-0.357,0.245,-73.049,29.512,40.915,1_6_3.csv
2018-07-04T12:12:47.217701,-1.041,-0.41,0.335,-70.366,36.768,47.744,1_6_3.csv
2018-07-04T12:12:47.265699,-1.041,-0.41,0.335,-67.134,42.561,39.39,1_6_3.csv
2018-07-04T12:12:47.305808,-1.254,-0.511,0.456,-62.988,47.134,20.976,1_6_3.csv
2018-07-04T12:12:47.351933,-1.254,-0.511,0.456,-30.976,51.22,8.354,1_6_3.csv
2018-07-04T12:12:47.398559,-1.247,-0.43,0.542,25.61,18.841,-9.817,1_6_3.csv
2018-07-04T12:12:47.450701,-1.153,-0.281,0.421,-6.098,-29.268,-73.476,1_6_3.csv
2018-07-04T12:12:47.498831,-1.153,-0.281,0.421,-7.5,-48.598,-80.244,1_6_3.csv
2018-07-04T12:12:47.555986,-1.12,-0.282,0.282,-4.39,-83.11,-75.976,1_6_3.csv
2018-07-04T12:12:47.601610,-1.12,-0.282,0.282,-24.207,-91.951,-79.634,1_6_3.csv
2018-07-04T12:12:47.655756,-0.947,-0.239,0.231,-49.634,-78.476,-90.0,1_6_3.csv
2018-07-04T12:12:47.711913,-0.841,-0.254,0.171,-32.988,-70.793,-75.854,1_6_3.csv
2018-07-04T12:12:47.761046,-0.841,-0.254,0.171,-19.451,-65.61,-53.354,1_6_3.csv
2018-07-04T12:12:47.805667,-0.731,-0.186,0.152,-52.622,-40.061,1.098,1_6_3.csv
2018-07-04T12:12:47.883879,-0.795,-0.245,0.17,-60.122,-20.61,43.049,1_6_3.csv
2018-07-04T12:12:47.932009,-1.16,-0.33,0.214,-63.232,22.439,150.061,1_6_3.csv
2018-07-04T12:12:47.988663,-1.16,-0.33,0.214,-72.683,41.037,197.805,1_6_3.csv
2018-07-04T12:12:48.040804,-1.45,-0.524,0.343,-73.902,42.561,221.342,1_6_3.csv
2018-07-04T12:12:48.087431,-1.129,-0.316,0.313,-49.939,-3.11,112.988,1_6_3.csv
2018-07-04T12:12:48.135345,-1.129,-0.316,0.313,-56.524,-7.195,18.841,1_6_3.csv
2018-07-04T12:12:48.181971,-0.961,-0.178,0.158,-113.659,-45.915,-46.524,1_6_3.csv
2018-07-04T12:12:48.228096,-0.961,-0.178,0.158,-191.768,-70.122,-71.951,1_6_3.csv
2018-07-04T12:12:48.282243,-0.688,-0.381,0.08,-226.951,-75.976,-69.39,1_6_3.csv
2018-07-04T12:12:48.337392,-0.603,-0.34,0.158,-132.5,-44.695,-10.854,1_6_3.csv
2018-07-04T12:12:48.387645,-0.603,-0.34,0.158,-90.549,-23.354,27.805,1_6_3.csv
2018-07-04T12:12:48.436277,-0.752,-0.313,0.232,-85.793,3.049,60.915,1_6_3.csv
2018-07-04T12:12:48.481399,-0.752,-0.313,0.232,-83.049,33.902,85.549,1_6_3.csv
2018-07-04T12:12:48.529028,-1.165,-0.507,0.369,13.78,78.963,122.988,1_6_3.csv
2018-07-04T12:12:48.599720,-1.4,-0.545,0.435,55.793,72.683,106.951,1_6_3.csv
2018-07-04T12:12:48.650389,-1.305,-0.363,0.508,90.183,28.72,18.963,1_6_3.csv
2018-07-04T12:12:48.696013,-1.305,-0.363,0.508,66.463,-20.366,-36.524,1_6_3.csv
2018-07-04T12:12:48.744644,-1.048,-0.253,0.403,20.671,-41.951,-76.037,1_6_3.csv
2018-07-04T12:12:48.789767,-1.048,-0.253,0.403,8.476,-58.537,-83.476,1_6_3.csv
2018-07-04T12:12:48.836393,-1.108,-0.326,0.246,20.488,-96.707,-75.732,1_6_3.csv
2018-07-04T12:12:48.890038,-1.016,-0.244,0.17,-38.232,-112.744,-78.476,1_6_3.csv
2018-07-04T12:12:48.950201,-1.016,-0.244,0.17,-68.293,-104.939,-94.634,1_6_3.csv
2018-07-04T12:12:49.007858,-0.903,-0.296,0.05,-71.951,-91.524,-106.22,1_6_3.csv
2018-07-04T12:12:49.059081,-0.796,-0.254,0.038,-21.829,-52.256,-93.476,1_6_3.csv
2018-07-04T12:12:49.108715,-0.796,-0.254,0.038,-8.049,-28.415,-63.11,1_6_3.csv
2018-07-04T12:12:49.150328,-0.75,-0.217,0.183,-23.293,-7.866,-20.183,1_6_3.csv
2018-07-04T12:12:49.249173,-0.908,-0.291,0.282,-45.915,29.939,92.988,1_6_3.csv
2018-07-04T12:12:49.306329,-1.299,-0.425,0.495,-3.293,75.488,204.268,1_6_3.csv
2018-07-04T12:12:49.354459,-1.299,-0.425,0.495,45.183,66.707,216.524,1_6_3.csv
2018-07-04T12:12:49.400583,-1.271,-0.333,0.547,54.207,62.317,176.403,1_6_3.csv
2018-07-04T12:12:49.446207,-1.271,-0.333,0.547,52.5,32.439,97.988,1_6_3.csv
2018-07-04T12:12:49.493335,-0.974,-0.065,0.243,-133.415,-47.622,-28.415,1_6_3.csv
2018-07-04T12:12:49.548986,-0.741,-0.359,0.158,-205.549,-57.5,-58.476,1_6_3.csv
2018-07-04T12:12:49.591099,-0.741,-0.359,0.158,-208.232,-55.671,-63.659,1_6_3.csv
2018-07-04T12:12:49.635220,-0.687,-0.452,0.214,-150.305,-41.768,-42.683,1_6_3.csv
2018-07-04T12:12:49.699895,-0.78,-0.333,0.296,-37.561,8.11,2.195,1_6_3.csv
2018-07-04T12:12:49.742009,-0.78,-0.333,0.296,-19.695,38.354,16.402,1_6_3.csv
2018-07-04T12:12:49.795153,-1.132,-0.411,0.45,18.293,57.683,31.585,1_6_3.csv
2018-07-04T12:12:49.853310,-1.132,-0.411,0.45,59.695,63.963,39.146,1_6_3.csv
2018-07-04T12:12:49.910465,-1.34,-0.384,0.474,68.841,39.085,27.378,1_6_3.csv
2018-07-04T12:12:49.962607,-1.145,-0.363,0.381,71.951,2.988,8.11,1_6_3.csv
2018-07-04T12:12:50.009233,-1.145,-0.363,0.381,71.341,-15.61,-19.512,1_6_3.csv
2018-07-04T12:12:50.059369,-1.118,-0.309,0.278,53.293,-54.268,-32.927,1_6_3.csv
2018-07-04T12:12:50.102987,-0.952,-0.268,0.195,22.073,-75.122,-32.622,1_6_3.csv
2018-07-04T12:12:50.149112,-0.952,-0.268,0.195,-19.085,-74.39,-46.037,1_6_3.csv
2018-07-04T12:12:50.212785,-0.887,-0.275,0.113,-46.829,-72.622,-62.5,1_6_3.csv
2018-07-04T12:12:50.263924,-0.831,-0.287,0.076,-53.72,-59.085,-68.78,1_6_3.csv
2018-07-04T12:12:50.312054,-0.831,-0.287,0.076,-47.988,-49.512,-58.78,1_6_3.csv
2018-07-04T12:12:50.354168,-0.828,-0.262,0.132,-47.683,-30.488,-40.366,1_6_3.csv
2018-07-04T12:12:50.402298,-0.828,-0.262,0.132,-43.598,-9.756,-9.817,1_6_3.csv
2018-07-04T12:12:50.451432,-0.946,-0.279,0.252,-32.622,9.451,30.0,1_6_3.csv
2018-07-04T12:12:50.506658,-1.144,-0.332,0.408,-16.951,46.524,116.402,1_6_3.csv
2018-07-04T12:12:50.610877,-1.109,-0.351,0.548,35.488,59.146,152.378,1_6_3.csv
2018-07-04T12:12:50.648479,-1.109,-0.351,0.548,47.622,36.037,123.232,1_6_3.csv
2018-07-04T12:12:50.713154,-1.038,-0.225,0.328,-19.634,-7.561,16.22,1_6_3.csv
2018-07-04T12:12:50.767802,-0.907,-0.197,0.229,-72.073,-42.439,-29.878,1_6_3.csv
2018-07-04T12:12:50.821447,-0.738,-0.352,0.231,-165.366,-45.427,-68.476,1_6_3.csv
2018-07-04T12:12:50.871584,-0.738,-0.352,0.231,-131.707,-30.976,-59.817,1_6_3.csv
2018-07-04T12:12:50.917207,-0.679,-0.304,0.266,-70.488,-13.11,-39.024,1_6_3.csv
2018-07-04T12:12:50.967844,-0.679,-0.304,0.266,-35.732,2.439,-17.866,1_6_3.csv
2018-07-04T12:12:51.013468,-0.865,-0.31,0.36,-32.744,27.5,1.646,1_6_3.csv
2018-07-04T12:12:51.066612,-1.225,-0.403,0.441,26.524,59.634,46.585,1_6_3.csv
2018-07-04T12:12:51.118252,-1.225,-0.403,0.441,41.402,63.049,60.122,1_6_3.csv
2018-07-04T12:12:51.164879,-1.395,-0.459,0.473,48.415,42.073,58.659,1_6_3.csv
2018-07-04T12:12:51.213511,-1.395,-0.459,0.473,57.134,6.037,38.171,1_6_3.csv
2018-07-04T12:12:51.258633,-1.144,-0.29,0.341,48.476,-27.561,-6.768,1_6_3.csv
2018-07-04T12:12:51.305259,-1.113,-0.321,0.224,-8.415,-69.024,-54.085,1_6_3.csv
2018-07-04T12:12:51.361912,-1.113,-0.321,0.224,-38.537,-97.5,-56.22,1_6_3.csv
2018-07-04T12:12:51.400517,-0.938,-0.309,0.194,-65.427,-94.573,-68.841,1_6_3.csv
2018-07-04T12:12:51.447645,-0.938,-0.309,0.194,-70.0,-84.451,-83.598,1_6_3.csv
2018-07-04T12:12:51.495775,-0.931,-0.316,0.107,-60.61,-76.707,-89.329,1_6_3.csv
2018-07-04T12:12:51.539895,-0.931,-0.316,0.107,-37.134,-68.11,-85.061,1_6_3.csv
2018-07-04T12:12:51.586020,-0.821,-0.225,0.136,-21.28,-54.573,-52.561,1_6_3.csv
2018-07-04T12:12:51.641169,-0.736,-0.247,0.265,-39.817,-40.305,-19.695,1_6_3.csv
2018-07-04T12:12:51.697321,-0.736,-0.247,0.265,-39.573,-19.451,32.439,1_6_3.csv
2018-07-04T12:12:51.743949,-0.861,-0.233,0.152,-11.22,8.78,104.024,1_6_3.csv
2018-07-04T12:12:51.813135,-1.396,-0.272,0.182,-36.585,72.561,214.573,1_6_3.csv
2018-07-04T12:12:51.869293,-1.312,-0.38,0.403,-75.915,35.183,181.22,1_6_3.csv
2018-07-04T12:12:51.977122,-1.039,-0.262,0.231,-86.402,0.854,39.634,1_6_3.csv
2018-07-04T12:12:52.023748,-1.039,-0.262,0.231,-134.39,-27.439,-10.305,1_6_3.csv
2018-07-04T12:12:52.071878,-0.808,-0.295,0.061,-228.72,-51.098,-33.171,1_6_3.csv
2018-07-04T12:12:52.131540,-0.673,-0.424,0.08,-223.72,-41.646,-17.5,1_6_3.csv
2018-07-04T12:12:52.201826,-0.686,-0.413,0.187,-130.366,-2.927,42.744,1_6_3.csv
2018-07-04T12:12:52.248087,-0.686,-0.413,0.187,-95.183,25.122,64.573,1_6_3.csv
2018-07-04T12:12:52.296218,-1.015,-0.542,0.417,-58.659,58.11,78.841,1_6_3.csv
2018-07-04T12:12:52.336828,-1.015,-0.542,0.417,8.78,80.915,87.927,1_6_3.csv
2018-07-04T12:12:52.384457,-1.391,-0.605,0.52,74.146,74.329,74.085,1_6_3.csv
2018-07-04T12:12:52.432587,-1.413,-0.354,0.533,58.232,11.89,-23.476,1_6_3.csv
2018-07-04T12:12:52.478712,-1.413,-0.354,0.533,11.28,-44.024,-80.061,1_6_3.csv
2018-07-04T12:12:52.524838,-1.101,-0.35,0.357,-17.561,-61.098,-119.024,1_6_3.csv
2018-07-04T12:12:52.583998,-1.101,-0.35,0.357,13.537,-60.366,-127.073,1_6_3.csv
2018-07-04T12:12:52.633633,-1.211,-0.396,0.177,81.524,-96.768,-86.951,1_6_3.csv
2018-07-04T12:12:52.679759,-0.991,-0.206,0.159,41.159,-90.183,-78.354,1_6_3.csv
2018-07-04T12:12:52.727888,-0.991,-0.206,0.159,-6.463,-78.415,-80.0,1_6_3.csv
2018-07-04T12:12:52.795070,-0.897,-0.29,0.042,-22.927,-66.159,-72.317,1_6_3.csv
2018-07-04T12:12:52.852726,-0.813,-0.243,0.031,-10.183,-58.415,-63.232,1_6_3.csv
2018-07-04T12:12:52.899854,-0.813,-0.243,0.031,-18.171,-43.598,-50.549,1_6_3.csv
2018-07-04T12:12:52.946981,-0.773,-0.196,0.105,-35.0,-25.488,-27.683,1_6_3.csv
2018-07-04T12:12:52.994611,-0.854,-0.229,0.183,-56.341,21.341,62.134,1_6_3.csv
2018-07-04T12:12:53.044747,-0.854,-0.229,0.183,-59.39,46.89,127.744,1_6_3.csv
2018-07-04T12:12:53.095885,-1.411,-0.45,0.34,-58.232,84.146,204.085,1_6_3.csv
2018-07-04T12:12:53.213203,-1.394,-0.507,0.521,97.744,49.939,165.366,1_6_3.csv
2018-07-04T12:12:53.259328,-1.165,0.037,0.189,67.012,20.793,59.024,1_6_3.csv
2018-07-04T12:12:53.335535,-0.856,-0.222,0.052,-231.951,-72.073,-65.671,1_6_3.csv
2018-07-04T12:12:53.383164,-0.856,-0.222,0.052,-319.878,-87.988,-86.646,1_6_3.csv
2018-07-04T12:12:53.433802,-0.626,-0.498,0.014,-201.646,-54.146,-37.134,1_6_3.csv
2018-07-04T12:12:53.487447,-0.59,-0.292,0.009,-119.756,-17.744,-5.427,1_6_3.csv
2018-07-04T12:12:53.529561,-0.59,-0.292,0.009,-70.671,20.732,23.049,1_6_3.csv
2018-07-04T12:12:53.572176,-0.874,-0.365,0.198,-26.098,52.439,52.866,1_6_3.csv
2018-07-04T12:12:53.623315,-0.874,-0.365,0.198,20.976,88.354,84.573,1_6_3.csv
2018-07-04T12:12:53.686987,-1.248,-0.391,0.36,50.549,103.354,95.854,1_6_3.csv
2018-07-04T12:12:53.742638,-1.449,-0.365,0.608,32.134,107.012,74.939,1_6_3.csv
2018-07-04T12:12:53.795281,-1.297,-0.329,0.54,-61.341,-11.646,-5.244,1_6_3.csv
2018-07-04T12:12:53.837395,-1.297,-0.329,0.54,-149.878,-65.915,-67.561,1_6_3.csv
2018-07-04T12:12:53.884022,-1.365,-0.557,0.148,-95.854,-110.061,-123.415,1_6_3.csv
2018-07-04T12:12:53.932152,-1.365,-0.557,0.148,-47.317,-142.378,-150.793,1_6_3.csv
2018-07-04T12:12:53.977274,-1.331,-0.373,0.109,-36.768,-151.463,-165.488,1_6_3.csv
2018-07-04T12:12:54.024903,-1.331,-0.373,0.109,-48.78,-139.817,-175.671,1_6_3.csv
2018-07-04T12:12:54.081240,-1.075,-0.277,-0.038,-43.598,-77.134,-181.037,1_6_3.csv
2018-07-04T12:12:54.133882,-0.824,-0.271,-0.046,28.293,-50.793,-161.159,1_6_3.csv
2018-07-04T12:12:54.180509,-0.824,-0.271,-0.046,86.28,-31.829,-126.342,1_6_3.csv
2018-07-04T12:12:54.230645,-0.648,-0.093,0.061,88.659,-16.585,-75.915,1_6_3.csv
2018-07-04T12:12:54.274263,-0.648,-0.093,0.061,45.793,4.146,-10.732,1_6_3.csv
2018-07-04T12:12:54.320388,-0.653,-0.205,0.097,-12.439,84.329,162.195,1_6_3.csv
2018-07-04T12:12:54.386066,-1.202,-0.518,0.2,95.854,142.866,252.744,1_6_3.csv
2018-07-04T12:12:54.435701,-1.202,-0.518,0.2,292.561,209.817,284.756,1_6_3.csv
2018-07-04T12:12:54.486338,-1.567,0.006,0.6,176.463,157.683,82.378,1_6_3.csv
2018-07-04T12:12:54.525945,-1.209,0.283,0.253,-101.22,62.195,24.695,1_6_3.csv
2018-07-04T12:12:54.570065,-1.209,0.283,0.253,-278.842,-21.646,2.866,1_6_3.csv
2018-07-04T12:12:54.618697,-0.858,-0.211,-0.063,-349.329,-74.085,-27.317,1_6_3.csv
2018-07-04T12:12:54.708440,-0.699,-0.57,-0.103,-419.085,-127.012,-51.037,1_6_3.csv
2018-07-04T12:12:54.761082,-0.632,-0.501,0.009,-275.854,-80.854,-0.61,1_6_3.csv
2018-07-04T12:12:54.804701,-0.632,-0.501,0.009,-168.781,-22.683,38.171,1_6_3.csv
2018-07-04T12:12:54.854837,-0.958,-0.622,0.307,-39.085,40.976,88.659,1_6_3.csv
2018-07-04T12:12:54.899959,-0.958,-0.622,0.307,84.512,101.159,123.781,1_6_3.csv
2018-07-04T12:12:54.951600,-1.499,-0.775,0.37,216.159,123.72,111.89,1_6_3.csv
2018-07-04T12:12:55.000966,-1.499,-0.775,0.37,313.171,111.463,57.195,1_6_3.csv
2018-07-04T12:12:55.042579,-1.379,-0.14,0.21,266.951,-17.866,-66.098,1_6_3.csv
2018-07-04T12:12:55.101741,-1.148,0.117,0.28,117.561,-74.39,-67.378,1_6_3.csv
2018-07-04T12:12:55.150875,-1.148,0.117,0.28,-8.841,-123.11,-51.402,1_6_3.csv
2018-07-04T12:12:55.196000,-1.014,-0.306,0.27,-83.415,-150.122,-42.195,1_6_3.csv
2018-07-04T12:12:55.242627,-0.852,-0.328,0.035,-82.195,-155.671,-43.354,1_6_3.csv
2018-07-04T12:12:55.295771,-0.852,-0.328,0.035,-60.122,-131.829,-50.61,1_6_3.csv
2018-07-04T12:12:55.352982,-0.721,-0.249,0.042,-53.11,-95.549,-53.11,1_6_3.csv
2018-07-04T12:12:55.400110,-0.721,-0.249,0.042,-63.293,-57.256,-43.598,1_6_3.csv
2018-07-04T12:12:55.448241,-0.818,-0.283,0.146,-53.049,10.854,24.329,1_6_3.csv
2018-07-04T12:12:55.492360,-1.029,-0.331,0.247,-21.707,43.171,71.098,1_6_3.csv
2018-07-04T12:12:55.541494,-1.029,-0.331,0.247,15.793,63.415,115.122,1_6_3.csv
2018-07-04T12:12:55.601657,-1.147,-0.322,0.433,18.598,80.366,144.085,1_6_3.csv
2018-07-04T12:12:55.648785,-1.199,-0.373,0.54,61.22,85.244,114.024,1_6_3.csv
2018-07-04T12:12:55.702432,-1.199,-0.373,0.54,125.732,72.5,65.244,1_6_3.csv
2018-07-04T12:12:55.749560,-1.164,-0.083,0.3,133.171,22.927,9.939,1_6_3.csv
2018-07-04T12:12:55.789672,-1.164,-0.083,0.3,50.976,-13.415,-32.683,1_6_3.csv
2018-07-04T12:12:55.860366,-0.866,-0.1,0.3,-85.488,-26.22,-65.732,1_6_3.csv
2018-07-04T12:12:55.904987,-0.743,-0.199,0.604,-53.049,-14.817,-42.195,1_6_3.csv
2018-07-04T12:12:55.948606,-0.743,-0.199,0.604,36.22,-13.78,9.329,1_6_3.csv
2018-07-04T12:12:55.992224,-0.798,-0.093,0.543,68.049,-11.89,53.902,1_6_3.csv
2018-07-04T12:12:56.063918,-1.097,-0.139,0.401,44.146,3.476,65.244,1_6_3.csv
2018-07-04T12:12:56.103025,-1.097,-0.139,0.401,41.402,-41.768,30.183,1_6_3.csv
2018-07-04T12:12:56.149651,-0.92,-0.079,0.221,-16.829,-69.207,-7.866,1_6_3.csv
2018-07-04T12:12:56.204800,-0.92,-0.079,0.221,-102.012,-73.171,-43.963,1_6_3.csv
2018-07-04T12:12:56.262456,-1.104,-0.429,0.195,-170.488,-4.268,-53.78,1_6_3.csv
2018-07-04T12:12:56.311088,-1.341,-0.613,0.242,-86.768,-7.317,-51.829,1_6_3.csv
2018-07-04T12:12:56.369747,-1.181,-0.238,0.349,125.793,25.854,-127.134,1_6_3.csv
2018-07-04T12:12:56.416875,-1.181,-0.238,0.349,154.817,-5.549,-139.39,1_6_3.csv
2018-07-04T12:12:56.460994,-0.92,-0.054,0.452,103.354,-35.305,-111.159,1_6_3.csv
2018-07-04T12:12:56.512133,-0.92,-0.054,0.452,28.78,-50.183,-81.098,1_6_3.csv
2018-07-04T12:12:56.557256,-0.729,-0.062,0.375,-74.451,-52.744,-70.183,1_6_3.csv
2018-07-04T12:12:56.602442,-0.729,-0.062,0.375,-186.707,-39.939,-62.988,1_6_3.csv
2018-07-04T12:12:56.653581,-0.76,-0.425,0.217,-106.951,-46.829,1.402,1_6_3.csv
2018-07-04T12:12:56.696697,-0.714,-0.355,0.118,-45.305,-52.134,39.085,1_6_3.csv
2018-07-04T12:12:56.745329,-0.714,-0.355,0.118,-31.646,-56.89,70.793,1_6_3.csv
2018-07-04T12:12:56.806002,-0.832,-0.241,0.188,-61.402,-63.11,106.646,1_6_3.csv
2018-07-04T12:12:56.861653,-1.506,-0.35,0.19,-93.598,-65.549,218.781,1_6_3.csv
2018-07-04T12:12:56.901260,-1.506,-0.35,0.19,-98.963,-51.28,291.281,1_6_3.csv
2018-07-04T12:12:56.947886,-1.773,-0.423,0.306,-203.598,-67.378,307.378,1_6_3.csv
2018-07-04T12:12:56.996017,-1.773,-0.423,0.306,-311.281,-65.61,250.244,1_6_3.csv
2018-07-04T12:12:57.039133,-1.251,-0.541,0.194,-297.256,-71.341,160.915,1_6_3.csv
2018-07-04T12:12:57.085760,-1.251,-0.541,0.194,-184.024,-79.756,87.866,1_6_3.csv
2018-07-04T12:12:57.134392,-0.743,-0.426,-0.07,-78.476,-67.256,-16.951,1_6_3.csv
2018-07-04T12:12:57.181520,-0.591,-0.296,-0.039,-142.805,-63.659,-32.744,1_6_3.csv
2018-07-04T12:12:57.228146,-0.591,-0.296,-0.039,-197.439,-51.646,-34.024,1_6_3.csv
2018-07-04T12:12:57.280789,-0.528,-0.365,-0.096,-213.354,-25.427,-14.268,1_6_3.csv
2018-07-04T12:12:57.321900,-0.528,-0.365,-0.096,-187.622,16.28,22.317,1_6_3.csv
2018-07-04T12:12:57.368526,-0.863,-0.578,0.068,-126.22,69.817,70.732,1_6_3.csv
2018-07-04T12:12:57.509408,-1.59,0.061,0.724,245.305,161.402,16.524,1_6_3.csv
2018-07-04T12:12:57.559545,-1.59,0.061,0.724,42.378,74.268,-13.78,1_6_3.csv
2018-07-04T12:12:57.603163,-1.106,-0.039,0.657,-81.829,-18.232,-25.488,1_6_3.csv
2018-07-04T12:12:57.649789,-1.106,-0.039,0.657,-76.646,-54.451,-39.573,1_6_3.csv
2018-07-04T12:12:57.700426,-1.031,-0.413,0.418,-4.085,-103.842,-2.744,1_6_3.csv
2018-07-04T12:12:57.743543,-1.138,-0.259,0.24,-46.22,-131.707,4.817,1_6_3.csv
2018-07-04T12:12:57.789167,-1.138,-0.259,0.24,-124.817,-134.085,-29.207,1_6_3.csv
2018-07-04T12:12:57.856350,-1.059,-0.253,0.137,-188.842,-101.829,-123.781,1_6_3.csv
2018-07-04T12:12:57.916518,-0.881,-0.355,-0.01,-127.256,-72.744,-137.256,1_6_3.csv
2018-07-04T12:12:57.961641,-0.881,-0.355,-0.01,-31.402,-44.329,-123.476,1_6_3.csv
2018-07-04T12:12:58.009774,-0.788,-0.252,0.08,33.171,-35.305,-82.134,1_6_3.csv
2018-07-04T12:12:58.056400,-0.859,-0.191,0.264,0.366,-4.146,51.037,1_6_3.csv
2018-07-04T12:12:58.102526,-0.859,-0.191,0.264,-44.939,17.561,107.073,1_6_3.csv
2018-07-04T12:12:58.164694,-1.142,-0.333,0.333,-62.744,39.085,146.342,1_6_3.csv
2018-07-04T12:12:58.212323,-1.142,-0.333,0.333,-40.915,43.963,159.39,1_6_3.csv
2018-07-04T12:12:58.257947,-1.125,-0.308,0.339,29.024,52.744,102.927,1_6_3.csv
2018-07-04T12:12:58.306589,-1.088,-0.214,0.298,14.878,38.476,70.488,1_6_3.csv
2018-07-04T12:12:58.353717,-1.088,-0.214,0.298,-36.89,3.415,56.22,1_6_3.csv
2018-07-04T12:12:58.398839,-0.839,-0.26,0.26,-106.037,-12.927,42.012,1_6_3.csv
2018-07-04T12:12:58.452985,-0.839,-0.26,0.26,-141.585,-14.268,19.207,1_6_3.csv
2018-07-04T12:12:58.493596,-0.784,-0.354,0.196,-141.707,-18.598,2.622,1_6_3.csv
2018-07-04T12:12:58.542227,-0.87,-0.425,0.185,-108.11,-5.0,9.329,1_6_3.csv
2018-07-04T12:12:58.588854,-0.87,-0.425,0.185,-81.341,16.768,19.39,1_6_3.csv
2018-07-04T12:12:58.635055,-1.094,-0.474,0.355,-48.293,35.488,32.5,1_6_3.csv
2018-07-04T12:12:58.680679,-1.094,-0.474,0.355,-24.817,50.122,39.085,1_6_3.csv
2018-07-04T12:12:58.735828,-1.37,-0.59,0.511,17.317,60.366,33.78,1_6_3.csv
2018-07-04T12:12:58.852645,-1.176,-0.33,0.38,89.207,-34.756,-64.268,1_6_3.csv
2018-07-04T12:12:58.900776,-1.152,-0.251,0.252,66.707,-91.585,-74.634,1_6_3.csv
2018-07-04T12:12:58.945897,-0.994,-0.226,0.222,9.695,-109.085,-76.585,1_6_3.csv
2018-07-04T12:12:59.005058,-0.994,-0.226,0.222,-42.317,-101.707,-86.463,1_6_3.csv
2018-07-04T12:12:59.056699,-0.91,-0.279,0.066,-68.963,-96.707,-94.329,1_6_3.csv
2018-07-04T12:12:59.103324,-0.869,-0.295,0.01,-43.11,-68.902,-74.024,1_6_3.csv
2018-07-04T12:12:59.150452,-0.869,-0.295,0.01,-29.085,-58.659,-58.78,1_6_3.csv
2018-07-04T12:12:59.198081,-0.851,-0.247,0.066,-45.671,-36.098,-36.768,1_6_3.csv
2018-07-04T12:12:59.244206,-0.851,-0.247,0.066,-47.988,-16.463,-4.939,1_6_3.csv
2018-07-04T12:12:59.296849,-0.945,-0.277,0.211,-38.232,10.732,42.195,1_6_3.csv
2018-07-04T12:12:59.337470,-0.945,-0.277,0.211,-22.256,33.171,103.232,1_6_3.csv
2018-07-04T12:12:59.383595,-1.119,-0.349,0.349,-24.878,62.256,194.817,1_6_3.csv
2018-07-04T12:12:59.431725,-1.225,-0.374,0.475,3.659,59.939,178.354,1_6_3.csv
2018-07-04T12:12:59.477851,-1.225,-0.374,0.475,25.793,51.585,127.5,1_6_3.csv
2018-07-04T12:12:59.525479,-1.079,-0.22,0.259,25.366,20.0,61.098,1_6_3.csv
2018-07-04T12:12:59.583138,-1.079,-0.22,0.259,-11.768,-0.976,5.488,1_6_3.csv
2018-07-04T12:12:59.651828,-0.847,-0.185,0.217,-150.427,-32.439,-34.268,1_6_3.csv
2018-07-04T12:12:59.697452,-0.709,-0.375,0.198,-178.659,-32.134,-21.951,1_6_3.csv
2018-07-04T12:12:59.746083,-0.775,-0.436,0.202,-101.342,2.988,36.89,1_6_3.csv
2018-07-04T12:12:59.794715,-0.775,-0.436,0.202,-44.085,27.561,61.707,1_6_3.csv
2018-07-04T12:12:59.836328,-1.135,-0.554,0.367,-3.476,54.695,79.512,1_6_3.csv
2018-07-04T12:12:59.894987,-1.135,-0.554,0.367,56.22,71.585,75.61,1_6_3.csv
2018-07-04T12:12:59.949635,-1.412,-0.549,0.474,176.768,45.305,0.305,1_6_3.csv
2018-07-04T12:12:59.993253,-1.216,-0.252,0.329,173.293,-5.671,-42.927,1_6_3.csv
2018-07-04T12:13:00.041384,-1.216,-0.252,0.329,116.281,-36.524,-70.854,1_6_3.csv
2018-07-04T12:13:00.086005,-1.125,-0.224,0.266,90.488,-62.988,-74.817,1_6_3.csv
2018-07-04T12:13:00.218870,-1.012,-0.266,0.19,-22.073,-101.281,-59.268,1_6_3.csv
2018-07-04T12:13:00.262989,-0.986,-0.31,0.053,-47.073,-99.207,-61.22,1_6_3.csv
2018-07-04T12:13:00.306231,-0.986,-0.31,0.053,-54.878,-91.768,-62.5,1_6_3.csv
2018-07-04T12:13:00.351854,-0.893,-0.286,0.012,-51.098,-74.634,-74.573,1_6_3.csv
2018-07-04T12:13:00.399484,-0.871,-0.264,0.063,-62.378,-53.598,-75.854,1_6_3.csv
2018-07-04T12:13:00.446110,-0.871,-0.264,0.063,-56.89,-34.39,-62.378,1_6_3.csv
2018-07-04T12:13:00.494240,-0.826,-0.234,0.219,-35.061,-3.659,-23.11,1_6_3.csv
2018-07-04T12:13:00.547385,-0.826,-0.234,0.219,-15.732,19.634,36.22,1_6_3.csv
2018-07-04T12:13:00.587493,-0.927,-0.26,0.364,-34.512,52.927,110.244,1_6_3.csv
2018-07-04T12:13:00.635122,-1.164,-0.402,0.512,-17.561,87.195,207.988,1_6_3.csv
2018-07-04T12:13:00.683755,-1.164,-0.402,0.512,8.841,87.256,188.598,1_6_3.csv
2018-07-04T12:13:00.729377,-1.265,-0.3,0.303,77.744,51.402,123.049,1_6_3.csv
2018-07-04T12:13:00.773998,-1.265,-0.3,0.303,75.366,5.671,44.512,1_6_3.csv
2018-07-04T12:13:00.828145,-0.998,-0.049,0.23,-49.756,-14.939,-17.744,1_6_3.csv
2018-07-04T12:13:00.904853,-0.783,-0.418,0.197,-230.427,-47.622,-55.244,1_6_3.csv
2018-07-04T12:13:00.948471,-0.783,-0.418,0.197,-213.903,-39.085,-26.89,1_6_3.csv
2018-07-04T12:13:01.014149,-0.667,-0.446,0.146,-46.585,7.683,30.0,1_6_3.csv
2018-07-04T12:13:01.071806,-0.86,-0.385,0.259,-2.317,36.037,47.744,1_6_3.csv
2018-07-04T12:13:01.117780,-1.332,-0.485,0.479,32.683,72.012,61.402,1_6_3.csv
2018-07-04T12:13:01.219618,-1.366,-0.37,0.528,87.988,19.634,30.427,1_6_3.csv
2018-07-04T12:13:01.285296,-1.263,-0.26,0.263,-8.049,-59.268,-57.012,1_6_3.csv
2018-07-04T12:13:01.325905,-1.263,-0.26,0.263,-9.695,-99.329,-90.061,1_6_3.csv
2018-07-04T12:13:01.368658,-1.137,-0.292,0.232,-33.841,-129.756,-106.646,1_6_3.csv
2018-07-04T12:13:01.420800,-1.137,-0.292,0.232,-75.244,-131.951,-123.171,1_6_3.csv
2018-07-04T12:13:01.466423,-1.0,-0.297,0.194,-95.061,-119.695,-135.671,1_6_3.csv
2018-07-04T12:13:01.565243,-0.896,-0.242,0.187,14.268,-87.195,-93.354,1_6_3.csv
2018-07-04T12:13:01.649471,-0.75,-0.1,0.204,-35.122,-72.622,-12.805,1_6_3.csv
2018-07-04T12:13:01.702615,-0.648,-0.135,0.246,-61.829,-48.354,40.183,1_6_3.csv
2018-07-04T12:13:01.748239,-0.648,-0.135,0.246,-69.085,-17.5,110.915,1_6_3.csv
2018-07-04T12:13:01.799403,-1.103,-0.282,0.285,-87.805,20.488,277.927,1_6_3.csv
2018-07-04T12:13:01.854552,-1.61,-0.597,0.262,-116.585,8.841,315.061,1_6_3.csv
2018-07-04T12:13:01.900175,-1.61,-0.597,0.262,-185.854,-12.317,275.732,1_6_3.csv
2018-07-04T12:13:01.956328,-1.26,-0.518,0.3,-52.988,-34.146,22.317,1_6_3.csv
2018-07-04T12:13:02.031531,-0.855,-0.201,0.122,-68.902,-33.476,-57.073,1_6_3.csv
2018-07-04T12:13:02.072141,-0.855,-0.201,0.122,-143.049,-46.22,-76.524,1_6_3.csv
2018-07-04T12:13:02.128795,-0.669,-0.493,0.021,-174.39,-64.451,15.732,1_6_3.csv
2018-07-04T12:13:02.180936,-0.571,-0.335,0.12,-135.671,-39.878,50.61,1_6_3.csv
2018-07-04T12:13:02.229067,-0.571,-0.335,0.12,-118.842,-10.244,82.683,1_6_3.csv
2018-07-04T12:13:02.282712,-0.893,-0.555,0.237,-52.256,61.524,153.049,1_6_3.csv
2018-07-04T12:13:02.355409,-1.301,-0.887,0.375,26.037,80.305,149.451,1_6_3.csv
2018-07-04T12:13:02.406047,-1.395,-0.499,0.559,195.549,83.11,14.329,1_6_3.csv
2018-07-04T12:13:02.450166,-1.395,-0.499,0.559,177.561,34.268,-56.951,1_6_3.csv
2018-07-04T12:13:02.497294,-1.165,-0.328,0.488,92.5,-5.732,-99.146,1_6_3.csv
2018-07-04T12:13:02.542918,-1.165,-0.328,0.488,97.256,-21.463,-106.159,1_6_3.csv
2018-07-04T12:13:02.602579,-1.291,-0.248,0.25,91.951,-113.72,-96.829,1_6_3.csv
2018-07-04T12:13:02.650209,-1.084,-0.132,0.243,30.305,-112.256,-106.098,1_6_3.csv
2018-07-04T12:13:02.696333,-1.084,-0.132,0.243,-26.341,-110.976,-115.976,1_6_3.csv
2018-07-04T12:13:02.745969,-0.926,-0.26,0.087,-55.366,-106.037,-115.671,1_6_3.csv
2018-07-04T12:13:02.800616,-0.926,-0.26,0.087,-44.756,-94.329,-103.781,1_6_3.csv
2018-07-04T12:13:02.939996,-0.703,-0.163,0.081,-81.951,-28.354,30.976,1_6_3.csv
2018-07-04T12:13:02.978103,-0.818,-0.281,0.186,-82.256,4.817,103.415,1_6_3.csv
2018-07-04T12:13:03.043280,-1.309,-0.458,0.458,-42.744,81.707,252.866,1_6_3.csv
2018-07-04T12:13:03.103445,-1.309,-0.458,0.458,8.72,93.78,267.073,1_6_3.csv
2018-07-04T12:13:03.152078,-1.341,-0.473,0.477,68.659,81.768,215.366,1_6_3.csv
2018-07-04T12:13:03.208229,-0.979,0.046,0.206,50.244,12.439,18.354,1_6_3.csv
2018-07-04T12:13:03.260371,-0.979,0.046,0.206,-95.366,-17.744,-39.207,1_6_3.csv
2018-07-04T12:13:03.307499,-0.857,-0.338,0.168,-222.622,-42.866,-58.963,1_6_3.csv
2018-07-04T12:13:03.354664,-0.857,-0.338,0.168,-276.829,-56.829,-54.207,1_6_3.csv
2018-07-04T12:13:03.408310,-0.697,-0.508,0.177,-136.402,-20.305,5.793,1_6_3.csv
2018-07-04T12:13:03.451928,-0.798,-0.359,0.215,-78.537,7.927,18.963,1_6_3.csv
2018-07-04T12:13:03.501061,-0.798,-0.359,0.215,-48.78,30.854,26.524,1_6_3.csv
2018-07-04T12:13:03.541671,-1.194,-0.447,0.341,-29.573,45.122,34.39,1_6_3.csv
2018-07-04T12:13:03.586794,-1.194,-0.447,0.341,-6.28,60.488,40.671,1_6_3.csv
2018-07-04T12:13:03.636428,-1.393,-0.478,0.493,39.878,48.11,37.622,1_6_3.csv
2018-07-04T12:13:03.682051,-1.393,-0.478,0.493,68.659,14.39,19.207,1_6_3.csv
2018-07-04T12:13:03.729681,-1.153,-0.295,0.455,64.329,-23.293,-49.573,1_6_3.csv
2018-07-04T12:13:03.852013,-0.955,-0.195,0.203,-61.585,-118.781,-67.683,1_6_3.csv
2018-07-04T12:13:03.904154,-0.955,-0.195,0.203,-100.915,-111.707,-88.354,1_6_3.csv
2018-07-04T12:13:03.953788,-0.815,-0.307,0.078,-88.232,-100.122,-96.646,1_6_3.csv
2018-07-04T12:13:03.999913,-0.815,-0.307,0.078,-58.841,-84.573,-85.061,1_6_3.csv
2018-07-04T12:13:04.044534,-0.762,-0.233,0.104,-32.805,-70.549,-61.951,1_6_3.csv
2018-07-04T12:13:04.091162,-0.788,-0.199,0.16,-50.549,-44.329,7.927,1_6_3.csv
2018-07-04T12:13:04.145308,-0.788,-0.199,0.16,-75.488,-21.768,53.78,1_6_3.csv
2018-07-04T12:13:04.197449,-1.012,-0.308,0.239,-72.439,9.939,107.195,1_6_3.csv
2018-07-04T12:13:04.270647,-1.376,-0.479,0.41,-24.329,68.902,213.842,1_6_3.csv
2018-07-04T12:13:04.323290,-1.376,-0.479,0.41,23.72,61.341,220.61,1_6_3.csv
2018-07-04T12:13:04.369916,-1.116,-0.428,0.434,46.037,28.476,82.927,1_6_3.csv
2018-07-04T12:13:04.420053,-0.947,-0.081,0.246,18.659,0.549,-1.098,1_6_3.csv
2018-07-04T12:13:04.473698,-0.947,-0.081,0.246,-72.744,-34.756,-55.854,1_6_3.csv
2018-07-04T12:13:04.526418,-0.786,-0.272,0.189,-177.195,-51.341,-74.939,1_6_3.csv
2018-07-04T12:13:04.571039,-0.7,-0.461,0.189,-194.329,-41.585,-42.622,1_6_3.csv
2018-07-04T12:13:04.681839,-0.73,-0.414,0.308,-59.207,7.195,15.427,1_6_3.csv
2018-07-04T12:13:04.735485,-1.136,-0.397,0.425,42.805,63.72,20.793,1_6_3.csv
2018-07-04T12:13:04.778602,-1.136,-0.397,0.425,84.634,67.134,15.061,1_6_3.csv
2018-07-04T12:13:04.827236,-1.355,-0.374,0.406,76.098,51.829,18.293,1_6_3.csv
2018-07-04T12:13:04.872358,-1.355,-0.374,0.406,50.366,32.622,33.354,1_6_3.csv
2018-07-04T12:13:04.922500,-1.142,-0.462,0.434,62.073,7.988,40.427,1_6_3.csv
2018-07-04T12:13:04.965617,-1.142,-0.462,0.434,84.329,-14.085,16.524,1_6_3.csv
2018-07-04T12:13:05.011747,-1.129,-0.354,0.276,70.915,-61.829,-42.256,1_6_3.csv
2018-07-04T12:13:05.060880,-1.057,-0.294,0.175,26.037,-82.744,-52.805,1_6_3.csv
2018-07-04T12:13:05.121048,-1.057,-0.294,0.175,-17.988,-88.11,-66.463,1_6_3.csv
2018-07-04T12:13:05.228341,-0.825,-0.321,0.023,-69.939,-66.463,-90.915,1_6_3.csv
2018-07-04T12:13:05.287501,-0.825,-0.321,0.023,-43.476,-50.915,-83.78,1_6_3.csv
2018-07-04T12:13:05.447434,-0.888,-0.259,0.209,-9.451,31.341,55.793,1_6_3.csv
2018-07-04T12:13:05.510104,-1.039,-0.298,0.345,-12.927,62.5,146.524,1_6_3.csv
2018-07-04T12:13:05.561745,-1.097,-0.331,0.544,9.207,61.585,164.817,1_6_3.csv
2018-07-04T12:13:05.703172,-0.933,-0.217,0.31,-18.598,-7.378,14.817,1_6_3.csv
2018-07-04T12:13:05.762329,-0.933,-0.217,0.31,-68.232,-18.049,-10.61,1_6_3.csv
2018-07-04T12:13:05.812473,-0.824,-0.359,0.309,-97.134,-21.037,-16.768,1_6_3.csv
2018-07-04T12:13:05.872636,-0.75,-0.415,0.344,-48.72,-6.402,5.305,1_6_3.csv
2018-07-04T12:13:05.927284,-0.75,-0.415,0.344,-1.524,11.829,12.866,1_6_3.csv
2018-07-04T12:13:05.972908,-0.873,-0.357,0.427,39.817,21.463,9.878,1_6_3.csv
2018-07-04T12:13:06.018030,-1.089,-0.301,0.398,36.22,8.476,-5.854,1_6_3.csv
2018-07-04T12:13:06.064155,-1.089,-0.301,0.398,-2.561,-3.049,-27.134,1_6_3.csv
2018-07-04T12:13:06.127828,-1.399,-0.413,0.359,-23.72,-1.768,-46.768,1_6_3.csv
2018-07-04T12:13:06.172449,-1.399,-0.413,0.359,-2.988,-10.549,-55.549,1_6_3.csv
2018-07-04T12:13:06.250159,-1.156,-0.354,0.387,19.207,-42.195,-87.805,1_6_3.csv
2018-07-04T12:13:06.294279,-1.116,-0.3,0.286,26.341,-43.963,-93.659,1_6_3.csv
2018-07-04T12:13:06.356447,-1.021,-0.232,0.196,-12.805,-81.28,-85.0,1_6_3.csv
2018-07-04T12:13:06.403575,-1.021,-0.232,0.196,-62.683,-76.28,-92.073,1_6_3.csv
2018-07-04T12:13:06.450703,-0.89,-0.3,0.175,-68.841,-61.89,-99.512,1_6_3.csv
2018-07-04T12:13:06.496326,-0.89,-0.3,0.175,-28.902,-46.524,-93.963,1_6_3.csv
2018-07-04T12:13:06.567520,-0.834,-0.218,0.177,3.598,-22.073,-44.329,1_6_3.csv
2018-07-04T12:13:06.618658,-0.791,-0.116,0.308,-12.195,-10.976,-6.463,1_6_3.csv
2018-07-04T12:13:06.671301,-0.849,-0.116,0.263,-45.915,-3.232,99.756,1_6_3.csv
2018-07-04T12:13:06.722440,-0.849,-0.116,0.263,-99.268,11.341,170.671,1_6_3.csv
2018-07-04T12:13:06.777589,-1.472,-0.353,0.15,-137.012,17.317,249.756,1_6_3.csv
2018-07-04T12:13:06.821207,-1.663,-0.802,0.126,-180.671,11.646,314.146,1_6_3.csv
2018-07-04T12:13:06.879866,-1.663,-0.802,0.126,-216.342,-65.122,219.085,1_6_3.csv
2018-07-04T12:13:06.931509,-1.104,-0.39,0.118,-152.073,-56.463,73.476,1_6_3.csv
2018-07-04T12:13:07.042311,-0.728,-0.395,-0.001,-154.39,-28.598,-54.634,1_6_3.csv
2018-07-04T12:13:07.088437,-0.59,-0.365,-0.022,-127.134,-31.524,-22.5,1_6_3.csv
2018-07-04T12:13:07.151607,-0.706,-0.35,0.104,-108.476,-11.341,38.354,1_6_3.csv
2018-07-04T12:13:07.197732,-0.706,-0.35,0.104,-101.342,5.183,70.427,1_6_3.csv
2018-07-04T12:13:07.248370,-1.077,-0.504,0.489,-58.841,18.963,85.061,1_6_3.csv
2018-07-04T12:13:07.290986,-1.077,-0.504,0.489,-51.28,53.659,69.146,1_6_3.csv
2018-07-04T12:13:07.337611,-1.202,-0.573,0.667,-20.305,81.89,34.634,1_6_3.csv
2018-07-04T12:13:07.386244,-1.257,-0.417,0.652,146.281,85.366,25.122,1_6_3.csv
2018-07-04T12:13:07.430864,-1.257,-0.417,0.652,124.939,27.622,5.0,1_6_3.csv
2018-07-04T12:13:07.479496,-1.3,-0.134,0.43,7.927,-34.573,-31.28,1_6_3.csv
2018-07-04T12:13:07.533643,-1.3,-0.134,0.43,-65.671,-70.976,-67.683,1_6_3.csv
2018-07-04T12:13:07.587288,-1.199,-0.272,0.251,-91.829,-139.329,-127.439,1_6_3.csv
2018-07-04T12:13:07.633414,-0.863,-0.3,0.225,-89.329,-122.378,-139.085,1_6_3.csv
2018-07-04T12:13:07.683048,-0.863,-0.3,0.225,-61.159,-96.646,-133.415,1_6_3.csv
2018-07-04T12:13:07.727671,-0.841,-0.285,0.143,-8.415,-73.049,-101.768,1_6_3.csv
2018-07-04T12:13:07.774800,-0.841,-0.285,0.143,19.329,-72.134,-62.073,1_6_3.csv
2018-07-04T12:13:07.828447,-0.832,-0.171,0.098,-63.902,-54.817,-1.829,1_6_3.csv
2018-07-04T12:13:07.869058,-0.762,-0.229,0.118,-90.732,-36.341,14.268,1_6_3.csv
2018-07-04T12:13:07.916185,-0.762,-0.229,0.118,-61.159,-1.341,54.939,1_6_3.csv
2018-07-04T12:13:07.964817,-1.036,-0.341,0.217,-12.988,33.415,121.585,1_6_3.csv
2018-07-04T12:13:08.008937,-1.036,-0.341,0.217,-6.341,69.573,196.89,1_6_3.csv
2018-07-04T12:13:08.056064,-1.326,-0.481,0.45,-7.805,82.622,243.781,1_6_3.csv
2018-07-04T12:13:08.123246,-1.167,-0.255,0.391,82.012,66.463,146.951,1_6_3.csv
2018-07-04T12:13:08.168870,-1.167,-0.255,0.391,81.341,41.159,51.768,1_6_3.csv
2018-07-04T12:13:08.217502,-0.985,0.029,0.227,-46.037,-6.829,-13.354,1_6_3.csv
2018-07-04T12:13:08.263627,-0.985,0.029,0.227,-204.329,-44.024,-39.451,1_6_3.csv
2018-07-04T12:13:08.312760,-0.74,-0.4,0.13,-270.244,-53.354,-13.841,1_6_3.csv
2018-07-04T12:13:08.396989,-0.619,-0.57,0.206,-59.512,5.122,56.768,1_6_3.csv
2018-07-04T12:13:08.447626,-0.941,-0.468,0.362,21.098,43.902,66.951,1_6_3.csv
2018-07-04T12:13:08.496759,-0.941,-0.468,0.362,83.171,68.476,61.463,1_6_3.csv
2018-07-04T12:13:08.542886,-1.279,-0.266,0.396,79.878,60.915,34.573,1_6_3.csv
2018-07-04T12:13:08.589011,-1.279,-0.266,0.396,20.0,34.268,-22.378,1_6_3.csv
2018-07-04T12:13:08.637146,-1.323,-0.349,0.44,-1.037,12.561,-69.085,1_6_3.csv
2018-07-04T12:13:08.686279,-1.235,-0.307,0.467,46.22,-28.232,-62.988,1_6_3.csv
2018-07-04T12:13:08.740930,-1.235,-0.307,0.467,52.012,-54.512,-71.707,1_6_3.csv
2018-07-04T12:13:08.792068,-1.169,-0.188,0.264,-2.5,-86.768,-70.549,1_6_3.csv
2018-07-04T12:13:08.838695,-1.042,-0.199,0.108,-21.707,-120.732,-63.659,1_6_3.csv
2018-07-04T12:13:08.886324,-1.042,-0.199,0.108,-67.134,-115.244,-70.305,1_6_3.csv
2018-07-04T12:13:08.930945,-0.924,-0.291,0.1,-102.5,-102.622,-72.744,1_6_3.csv
2018-07-04T12:13:08.979075,-0.924,-0.291,0.1,-89.085,-88.659,-61.768,1_6_3.csv
2018-07-04T12:13:09.035227,-0.697,-0.306,0.056,-4.634,-33.415,-24.573,1_6_3.csv
2018-07-04T12:13:09.104415,-0.657,-0.244,0.089,1.22,-11.951,1.951,1_6_3.csv
2018-07-04T12:13:09.149742,-0.657,-0.244,0.089,-8.902,6.707,43.293,1_6_3.csv
2018-07-04T12:13:09.204892,-0.912,-0.309,0.125,-63.72,48.415,158.659,1_6_3.csv
2018-07-04T12:13:09.245000,-1.287,-0.559,0.318,-76.829,70.793,199.695,1_6_3.csv
2018-07-04T12:13:09.295637,-1.287,-0.559,0.318,4.634,96.098,204.146,1_6_3.csv
2018-07-04T12:13:09.349283,-1.257,-0.633,0.522,131.89,93.11,142.805,1_6_3.csv
2018-07-04T12:13:09.400422,-1.107,0.003,0.286,109.817,9.268,-37.012,1_6_3.csv
2018-07-04T12:13:09.447048,-1.107,0.003,0.286,-38.171,-49.146,-78.354,1_6_3.csv
2018-07-04T12:13:09.494182,-0.824,-0.12,0.255,-128.72,-78.537,-96.098,1_6_3.csv
2018-07-04T12:13:09.541310,-0.824,-0.12,0.255,-167.195,-87.378,-97.988,1_6_3.csv
2018-07-04T12:13:09.587435,-0.675,-0.284,0.2,-166.646,-82.683,-81.22,1_6_3.csv
2018-07-04T12:13:09.640579,-0.72,-0.272,0.199,-111.707,-47.927,-18.963,1_6_3.csv
2018-07-04T12:13:09.683696,-0.72,-0.272,0.199,-100.915,-19.573,18.415,1_6_3.csv
2018-07-04T12:13:09.790485,-1.054,-0.348,0.336,-87.134,25.915,81.402,1_6_3.csv
2018-07-04T12:13:09.838616,-1.367,-0.619,0.411,103.049,48.72,118.293,1_6_3.csv
2018-07-04T12:13:09.886245,-1.206,-0.356,0.493,137.073,32.683,100.122,1_6_3.csv
2018-07-04T12:13:09.931869,-1.206,-0.356,0.493,30.183,0.549,43.415,1_6_3.csv
2018-07-04T12:13:09.984010,-1.044,-0.444,0.296,-6.402,-2.012,-0.61,1_6_3.csv
2018-07-04T12:13:10.024620,-1.044,-0.444,0.296,59.024,-18.293,-8.476,1_6_3.csv
2018-07-04T12:13:10.073252,-0.955,-0.333,0.167,95.366,-50.549,-5.305,1_6_3.csv
2018-07-04T12:13:10.138428,-0.799,-0.261,0.172,-23.049,-58.537,-32.683,1_6_3.csv
2018-07-04T12:13:10.186559,-0.799,-0.261,0.172,-52.134,-57.073,-45.122,1_6_3.csv
2018-07-04T12:13:10.232684,-0.846,-0.386,0.085,-33.537,-48.049,-43.476,1_6_3.csv
2018-07-04T12:13:10.289839,-1.03,-0.294,0.032,6.402,-34.207,-23.72,1_6_3.csv
2018-07-04T12:13:10.336967,-1.03,-0.294,0.032,-41.402,-34.39,-24.756,1_6_3.csv
2018-07-04T12:13:10.384596,-1.118,-0.355,0.076,-89.085,-18.476,-28.415,1_6_3.csv
2018-07-04T12:13:10.432225,-1.118,-0.355,0.076,-81.463,5.305,-28.476,1_6_3.csv
2018-07-04T12:13:10.478350,-1.049,-0.483,0.279,-9.817,35.915,-20.854,1_6_3.csv
2018-07-04T12:13:10.526480,-1.075,-0.133,0.454,204.817,58.963,-40.549,1_6_3.csv
2018-07-04T12:13:10.634774,-0.985,0.207,0.386,53.415,-17.927,-60.732,1_6_3.csv
2018-07-04T12:13:10.681423,-0.732,-0.15,0.304,-149.024,-31.463,-25.427,1_6_3.csv
2018-07-04T12:13:10.731560,-0.732,-0.15,0.304,-92.012,-17.744,6.585,1_6_3.csv
2018-07-04T12:13:10.778689,-0.745,-0.264,0.252,-24.451,-6.341,44.085,1_6_3.csv
2018-07-04T12:13:10.821304,-0.745,-0.264,0.252,-13.354,10.0,68.415,1_6_3.csv
2018-07-04T12:13:10.868433,-0.896,-0.243,0.269,-35.976,26.89,85.549,1_6_3.csv
2018-07-04T12:13:10.927092,-1.186,-0.419,0.282,-49.756,54.939,110.244,1_6_3.csv
2018-07-04T12:13:10.983244,-1.186,-0.419,0.282,-23.171,57.012,107.683,1_6_3.csv
2018-07-04T12:13:11.028365,-1.352,-0.523,0.301,7.439,52.683,87.439,1_6_3.csv
2018-07-04T12:13:11.116604,-1.217,-0.385,0.338,63.598,9.695,17.439,1_6_3.csv
2018-07-04T12:13:11.166740,-1.134,-0.273,0.265,-20.488,-41.768,-48.78,1_6_3.csv
2018-07-04T12:13:11.217881,-1.134,-0.273,0.265,-53.659,-71.22,-61.159,1_6_3.csv
2018-07-04T12:13:11.269020,-0.931,-0.315,0.19,-58.232,-78.232,-69.024,1_6_3.csv
2018-07-04T12:13:11.313142,-0.931,-0.315,0.19,-44.085,-77.683,-77.378,1_6_3.csv
2018-07-04T12:13:11.369294,-0.84,-0.301,0.181,11.585,-67.012,-77.012,1_6_3.csv
2018-07-04T12:13:11.417925,-0.832,-0.214,0.226,19.817,-58.476,-62.317,1_6_3.csv
2018-07-04T12:13:11.461544,-0.832,-0.214,0.226,11.28,-47.012,-40.671,1_6_3.csv
2018-07-04T12:13:11.511179,-0.914,-0.193,0.2,-24.512,-37.256,-19.634,1_6_3.csv
2018-07-04T12:13:11.563319,-0.914,-0.193,0.2,-54.695,-21.524,4.756,1_6_3.csv
2018-07-04T12:13:11.604933,-0.978,-0.273,0.205,-45.366,-6.768,30.915,1_6_3.csv
2018-07-04T12:13:11.651558,-1.125,-0.254,0.309,-0.732,38.902,87.5,1_6_3.csv
2018-07-04T12:13:11.698700,-1.125,-0.254,0.309,6.037,41.037,105.549,1_6_3.csv
2018-07-04T12:13:11.744825,-1.098,-0.167,0.373,-31.463,19.939,93.902,1_6_3.csv
2018-07-04T12:13:11.792955,-1.098,-0.167,0.373,-99.329,10.305,65.305,1_6_3.csv
2018-07-04T12:13:11.844596,-1.105,-0.241,0.202,-136.22,-4.39,34.39,1_6_3.csv
2018-07-04T12:13:11.886208,-1.105,-0.241,0.202,-116.342,-26.646,11.28,1_6_3.csv
2018-07-04T12:13:11.930829,-0.851,-0.206,0.1,-161.524,-38.659,-7.439,1_6_3.csv
2018-07-04T12:13:11.980464,-0.671,-0.299,0.122,-204.329,-30.305,-0.549,1_6_3.csv
2018-07-04T12:13:12.027591,-0.671,-0.299,0.122,-162.683,-7.5,33.476,1_6_3.csv
2018-07-04T12:13:12.071711,-0.715,-0.448,0.168,-102.805,22.439,81.037,1_6_3.csv
2018-07-04T12:13:12.131372,-1.163,-0.502,0.413,21.707,85.122,135.976,1_6_3.csv
2018-07-04T12:13:12.183514,-1.163,-0.502,0.413,76.463,91.22,119.024,1_6_3.csv
2018-07-04T12:13:12.229137,-1.483,-0.396,0.492,87.744,83.659,70.061,1_6_3.csv
2018-07-04T12:13:12.277268,-1.483,-0.396,0.492,57.744,42.866,6.22,1_6_3.csv
2018-07-04T12:13:12.323393,-1.293,-0.258,0.467,17.622,-26.89,-42.378,1_6_3.csv
2018-07-04T12:13:12.369531,-1.147,-0.302,0.171,-47.5,-89.756,-101.037,1_6_3.csv
2018-07-04T12:13:12.482337,-1.147,-0.302,0.171,-24.329,-140.732,-85.61,1_6_3.csv
2018-07-04T12:13:12.529966,-1.147,-0.302,0.171,-44.268,-133.354,-88.72,1_6_3.csv
2018-07-04T12:13:12.576592,-1.099,-0.274,0.136,-45.61,-105.488,-116.159,1_6_3.csv
2018-07-04T12:13:12.622717,-1.013,-0.268,0.059,-24.39,-89.268,-120.305,1_6_3.csv
2018-07-04T12:13:12.677866,-1.013,-0.268,0.059,-2.744,-80.976,-116.585,1_6_3.csv
2018-07-04T12:13:12.729065,-0.803,-0.153,0.079,-2.866,-65.305,-98.963,1_6_3.csv
2018-07-04T12:13:12.788727,-0.619,-0.122,0.203,-24.268,-17.073,-13.841,1_6_3.csv
2018-07-04T12:13:12.839365,-0.619,-0.122,0.203,-28.11,18.598,59.878,1_6_3.csv
2018-07-04T12:13:12.884487,-0.997,-0.159,0.202,-53.476,52.073,147.195,1_6_3.csv
2018-07-04T12:13:12.933119,-1.546,-0.364,0.223,-111.524,75.488,284.39,1_6_3.csv
2018-07-04T12:13:12.996290,-1.546,-0.364,0.223,-92.195,68.354,281.22,1_6_3.csv
2018-07-04T12:13:13.039908,-1.539,-0.404,0.308,-75.793,23.659,220.976,1_6_3.csv
2018-07-04T12:13:13.088039,-1.539,-0.404,0.308,-106.037,-21.524,134.695,1_6_3.csv
2018-07-04T12:13:13.136169,-0.991,-0.19,0.146,-289.878,-61.829,-14.207,1_6_3.csv
2018-07-04T12:13:13.185804,-0.722,-0.464,-0.082,-307.744,-75.061,-31.098,1_6_3.csv
2018-07-04T12:13:13.232931,-0.722,-0.464,-0.082,-254.634,-73.415,-17.866,1_6_3.csv
2018-07-04T12:13:13.282566,-0.608,-0.433,-0.037,-180.976,-59.085,4.634,1_6_3.csv
2018-07-04T12:13:13.322674,-0.608,-0.433,-0.037,-153.476,-33.72,27.012,1_6_3.csv
2018-07-04T12:13:13.369302,-0.788,-0.424,0.049,-173.903,-6.402,47.073,1_6_3.csv
2018-07-04T12:13:13.422445,-1.157,-0.832,0.161,-135.061,45.183,90.671,1_6_3.csv
2018-07-04T12:13:13.468570,-1.157,-0.832,0.161,-45.976,69.207,89.146,1_6_3.csv
2018-07-04T12:13:13.515698,-1.444,-0.922,0.451,55.854,82.378,46.28,1_6_3.csv
2018-07-04T12:13:13.570346,-1.444,-0.922,0.451,121.524,73.11,-32.622,1_6_3.csv
2018-07-04T12:13:13.620482,-1.251,-0.575,0.596,212.439,39.085,-133.171,1_6_3.csv
2018-07-04T12:13:13.666106,-1.317,-0.285,0.282,255.488,-17.683,-120.0,1_6_3.csv
2018-07-04T12:13:13.715239,-1.317,-0.285,0.282,171.646,-73.841,-100.122,1_6_3.csv
2018-07-04T12:13:13.760862,-1.087,-0.123,0.189,66.341,-90.549,-97.744,1_6_3.csv
2018-07-04T12:13:13.841582,-0.916,-0.248,0.077,5.61,-100.0,-87.805,1_6_3.csv
2018-07-04T12:13:13.909265,-0.804,-0.186,0.003,-33.293,-89.329,-59.512,1_6_3.csv
2018-07-04T12:13:13.948370,-0.804,-0.186,0.003,-64.756,-76.89,-45.732,1_6_3.csv
2018-07-04T12:13:13.994495,-0.659,-0.199,0.003,-86.646,-54.512,-17.012,1_6_3.csv
2018-07-04T12:13:14.043127,-0.659,-0.199,0.003,-84.878,-23.049,36.646,1_6_3.csv
2018-07-04T12:13:14.103795,-0.831,-0.292,0.109,-54.634,55.305,201.707,1_6_3.csv
2018-07-04T12:13:14.149919,-1.581,-0.535,0.38,-40.0,99.939,283.049,1_6_3.csv
2018-07-04T12:13:14.203070,-1.581,-0.535,0.38,27.439,118.293,321.768,1_6_3.csv
2018-07-04T12:13:14.245183,-1.383,-0.654,0.608,115.0,81.951,275.671,1_6_3.csv
2018-07-04T12:13:14.291313,-1.383,-0.654,0.608,174.146,41.159,142.073,1_6_3.csv
2018-07-04T12:13:14.338440,-0.99,0.112,0.215,112.5,24.451,15.244,1_6_3.csv
2018-07-04T12:13:14.384066,-0.779,-0.233,0.203,-179.878,-69.634,-77.378,1_6_3.csv
2018-07-04T12:13:14.432196,-0.779,-0.233,0.203,-272.317,-96.951,-82.073,1_6_3.csv
2018-07-04T12:13:14.484378,-0.643,-0.469,0.166,-284.085,-95.793,-69.817,1_6_3.csv
2018-07-04T12:13:14.526493,-0.643,-0.469,0.166,-228.598,-70.61,-47.317,1_6_3.csv
2018-07-04T12:13:14.572116,-0.642,-0.405,0.128,-165.366,-34.085,-27.561,1_6_3.csv
2018-07-04T12:13:14.620748,-0.642,-0.405,0.128,-103.232,7.744,-10.305,1_6_3.csv
2018-07-04T12:13:14.665369,-1.012,-0.595,0.397,123.902,85.244,21.768,1_6_3.csv
2018-07-04T12:13:14.712998,-1.41,-0.425,0.471,212.073,87.744,5.122,1_6_3.csv
2018-07-04T12:13:14.768317,-1.41,-0.425,0.471,203.232,63.537,-9.085,1_6_3.csv
2018-07-04T12:13:14.826475,-1.311,-0.293,0.382,100.671,-3.78,-26.524,1_6_3.csv
2018-07-04T12:13:14.884131,-1.097,-0.323,0.301,68.232,-18.963,-47.5,1_6_3.csv
2018-07-04T12:13:14.932764,-1.097,-0.323,0.301,59.695,-40.915,-46.768,1_6_3.csv
2018-07-04T12:13:14.979389,-0.878,-0.269,0.274,43.963,-65.732,-39.756,1_6_3.csv
2018-07-04T12:13:15.025515,-0.792,-0.373,0.141,-74.451,-87.134,-44.451,1_6_3.csv
2018-07-04T12:13:15.077154,-0.792,-0.373,0.141,-82.195,-83.659,-37.866,1_6_3.csv
2018-07-04T12:13:15.120772,-0.787,-0.39,0.073,-60.793,-73.72,-30.0,1_6_3.csv
2018-07-04T12:13:15.207006,-0.855,-0.348,0.04,-44.939,-43.78,-15.549,1_6_3.csv
2018-07-04T12:13:15.251126,-0.855,-0.348,0.04,-54.085,-23.049,4.146,1_6_3.csv
2018-07-04T12:13:15.295746,-0.906,-0.389,0.15,-43.476,3.049,32.012,1_6_3.csv
2018-07-04T12:13:15.339365,-0.906,-0.389,0.15,-18.415,33.049,67.317,1_6_3.csv
2018-07-04T12:13:15.404355,-1.046,-0.447,0.356,75.549,84.024,126.829,1_6_3.csv
2018-07-04T12:13:15.447605,-1.092,-0.342,0.561,102.683,80.488,112.683,1_6_3.csv
2018-07-04T12:13:15.494733,-1.092,-0.342,0.561,98.11,78.841,71.341,1_6_3.csv
2018-07-04T12:13:15.543866,-1.135,-0.152,0.366,92.012,51.524,14.878,1_6_3.csv
2018-07-04T12:13:15.588487,-0.876,-0.055,0.296,0.427,-18.841,-60.61,1_6_3.csv
2018-07-04T12:13:15.634612,-0.876,-0.055,0.296,-65.976,-35.488,-68.049,1_6_3.csv
2018-07-04T12:13:15.687255,-0.698,-0.21,0.297,-116.951,-42.622,-58.476,1_6_3.csv
2018-07-04T12:13:15.745412,-0.698,-0.21,0.297,-128.354,-37.744,-33.293,1_6_3.csv
2018-07-04T12:13:15.790535,-0.694,-0.34,0.247,-62.378,6.646,20.0,1_6_3.csv
2018-07-04T12:13:15.839167,-1.027,-0.413,0.343,-14.268,31.89,44.39,1_6_3.csv
2018-07-04T12:13:15.884289,-1.027,-0.413,0.343,27.073,47.805,64.939,1_6_3.csv
2018-07-04T12:13:15.933007,-1.408,-0.434,0.375,53.963,47.012,68.049,1_6_3.csv
2018-07-04T12:13:15.986652,-1.408,-0.434,0.375,56.098,31.037,58.049,1_6_3.csv
2018-07-04T12:13:16.044309,-1.246,-0.336,0.331,0.976,-32.866,-15.061,1_6_3.csv
2018-07-04T12:13:16.138062,-1.046,-0.331,0.269,-1.951,-57.012,-53.841,1_6_3.csv
2018-07-04T12:13:16.188700,-0.917,-0.29,0.212,-23.78,-67.5,-51.829,1_6_3.csv
2018-07-04T12:13:16.232821,-0.91,-0.275,0.176,-45.305,-70.366,-52.378,1_6_3.csv
2018-07-04T12:13:16.276939,-0.91,-0.275,0.176,-51.951,-69.39,-48.354,1_6_3.csv
2018-07-04T12:13:16.330584,-0.871,-0.262,0.158,-49.939,-66.22,-44.329,1_6_3.csv
2018-07-04T12:13:16.372197,-0.871,-0.262,0.158,-55.0,-58.049,-39.146,1_6_3.csv
2018-07-04T12:13:16.420327,-0.817,-0.246,0.191,-53.841,-43.11,-26.22,1_6_3.csv
2018-07-04T12:13:16.474474,-0.864,-0.369,0.221,-53.72,1.463,41.341,1_6_3.csv
2018-07-04T12:13:16.575305,-1.102,-0.291,0.324,16.829,81.463,173.049,1_6_3.csv
2018-07-04T12:13:16.619424,-1.102,-0.291,0.324,71.524,124.817,195.549,1_6_3.csv
2018-07-04T12:13:16.680089,-1.142,-0.217,0.557,135.488,87.683,102.988,1_6_3.csv
2018-07-04T12:13:16.729222,-1.192,0.075,0.328,105.061,30.427,56.098,1_6_3.csv
2018-07-04T12:13:16.776851,-1.192,0.075,0.328,-67.805,-59.085,15.366,1_6_3.csv
2018-07-04T12:13:16.825984,-1.017,-0.016,0.05,-277.622,-113.049,-33.415,1_6_3.csv
2018-07-04T12:13:16.869602,-1.017,-0.016,0.05,-412.134,-134.695,-106.402,1_6_3.csv
2018-07-04T12:13:16.916538,-0.812,-0.467,0.052,-281.951,-96.951,-129.573,1_6_3.csv
2018-07-04T12:13:16.971688,-0.531,-0.266,0.309,-105.366,-57.378,-74.207,1_6_3.csv
2018-07-04T12:13:17.026837,-0.531,-0.266,0.309,-6.89,-16.037,-14.878,1_6_3.csv
2018-07-04T12:13:17.073965,-0.607,-0.125,0.467,-25.244,55.61,98.415,1_6_3.csv
2018-07-04T12:13:17.121594,-1.202,-0.393,0.497,-33.659,65.854,150.793,1_6_3.csv
2018-07-04T12:13:17.171730,-1.202,-0.393,0.497,-32.561,67.988,186.159,1_6_3.csv
2018-07-04T12:13:17.218356,-1.679,-0.836,0.495,-15.122,44.817,181.585,1_6_3.csv
2018-07-04T12:13:17.280023,-1.192,-0.187,0.327,13.171,-49.085,-19.817,1_6_3.csv
2018-07-04T12:13:17.323140,-1.192,-0.187,0.327,-26.646,-52.561,-105.244,1_6_3.csv
2018-07-04T12:13:17.369767,-1.072,-0.435,0.173,-86.951,-81.098,-129.817,1_6_3.csv
2018-07-04T12:13:17.416894,-1.072,-0.435,0.173,-131.707,-118.232,-119.512,1_6_3.csv
2018-07-04T12:13:17.462518,-0.948,-0.366,0.132,-123.476,-109.39,-116.89,1_6_3.csv
2018-07-04T12:13:17.511150,-0.948,-0.366,0.132,-102.195,-90.488,-130.0,1_6_3.csv
2018-07-04T12:13:17.565297,-0.884,-0.305,0.133,-49.573,-51.159,-117.073,1_6_3.csv
2018-07-04T12:13:17.621449,-0.742,-0.213,0.128,-0.061,-39.756,-88.841,1_6_3.csv
2018-07-04T12:13:17.666571,-0.742,-0.213,0.128,6.585,-32.134,-50.183,1_6_3.csv
2018-07-04T12:13:17.734300,-0.628,-0.167,0.167,-72.561,6.037,81.951,1_6_3.csv
2018-07-04T12:13:17.792460,-0.912,-0.337,0.232,-89.451,20.061,158.963,1_6_3.csv
2018-07-04T12:13:17.842093,-1.685,-0.61,0.277,-41.341,44.085,286.463,1_6_3.csv
2018-07-04T12:13:17.936348,-1.286,-0.49,0.431,1.098,-23.232,228.781,1_6_3.csv
2018-07-04T12:13:17.988268,-1.286,-0.49,0.431,-58.293,-17.073,80.427,1_6_3.csv
2018-07-04T12:13:18.042415,-0.975,-0.031,0.188,-201.768,-64.085,-101.951,1_6_3.csv
2018-07-04T12:13:18.105085,-0.69,-0.528,-0.044,-261.829,-78.11,-109.146,1_6_3.csv
2018-07-04T12:13:18.157226,-0.69,-0.528,-0.044,-226.951,-71.28,-81.402,1_6_3.csv
2018-07-04T12:13:18.198338,-0.564,-0.397,0.121,-133.537,-49.39,-51.524,1_6_3.csv
2018-07-04T12:13:18.247471,-0.644,-0.274,0.272,-17.134,2.866,19.512,1_6_3.csv
2018-07-04T12:13:18.323677,-1.103,-0.414,0.455,-23.537,72.195,83.415,1_6_3.csv
2018-07-04T12:13:18.369802,-1.103,-0.414,0.455,11.159,94.39,96.037,1_6_3.csv
2018-07-04T12:13:18.419448,-1.489,-0.506,0.549,67.988,98.293,90.366,1_6_3.csv
2018-07-04T12:13:18.464571,-1.489,-0.506,0.549,107.012,71.951,61.951,1_6_3.csv
2018-07-04T12:13:18.517715,-1.344,-0.22,0.521,117.317,25.0,22.195,1_6_3.csv
2018-07-04T12:13:18.572363,-1.06,-0.167,0.325,-34.634,-66.28,-62.317,1_6_3.csv
2018-07-04T12:13:18.637038,-1.06,-0.167,0.325,-67.378,-81.524,-74.512,1_6_3.csv
2018-07-04T12:13:18.683665,-1.051,-0.416,0.196,-39.634,-123.354,-62.805,1_6_3.csv
2018-07-04T12:13:18.729288,-0.953,-0.272,0.142,-51.037,-106.037,-69.268,1_6_3.csv
2018-07-04T12:13:18.777419,-0.953,-0.272,0.142,-67.622,-94.39,-83.78,1_6_3.csv
2018-07-04T12:13:18.832568,-0.825,-0.261,0.027,-67.683,-79.512,-92.927,1_6_3.csv
2018-07-04T12:13:18.885713,-0.688,-0.296,0.068,-65.915,-45.732,-71.28,1_6_3.csv
2018-07-04T12:13:18.932339,-0.688,-0.296,0.068,-25.854,-19.512,-31.707,1_6_3.csv
2018-07-04T12:13:18.979973,-0.746,-0.249,0.193,-3.963,8.232,21.402,1_6_3.csv
2018-07-04T12:13:19.026097,-0.746,-0.249,0.193,-16.402,35.854,80.244,1_6_3.csv
2018-07-04T12:13:19.074250,-1.153,-0.34,0.283,-31.707,55.915,139.39,1_6_3.csv
2018-07-04T12:13:19.147449,-1.434,-0.551,0.581,5.549,92.927,227.622,1_6_3.csv
2018-07-04T12:13:19.199088,-1.434,-0.551,0.581,68.293,71.28,205.976,1_6_3.csv
2018-07-04T12:13:19.292842,-0.957,-0.014,0.21,-50.427,-38.598,-22.439,1_6_3.csv
2018-07-04T12:13:19.338466,-0.957,-0.014,0.21,-173.842,-78.598,-60.854,1_6_3.csv
2018-07-04T12:13:19.395621,-0.781,-0.399,0.2,-230.427,-89.39,-83.841,1_6_3.csv
2018-07-04T12:13:19.449267,-0.676,-0.434,0.223,-149.939,-68.049,-59.512,1_6_3.csv
2018-07-04T12:13:19.496394,-0.676,-0.434,0.223,-83.11,-36.585,-33.902,1_6_3.csv
2018-07-04T12:13:19.543020,-0.726,-0.329,0.291,-51.098,-14.329,-21.646,1_6_3.csv
2018-07-04T12:13:19.609702,-0.99,-0.363,0.381,-17.195,25.244,-7.988,1_6_3.csv
2018-07-04T12:13:19.653320,-0.99,-0.363,0.381,-0.244,28.537,3.78,1_6_3.csv
2018-07-04T12:13:19.714485,-1.296,-0.412,0.352,-19.024,28.659,22.134,1_6_3.csv
2018-07-04T12:13:19.760610,-1.296,-0.412,0.352,-30.61,25.976,42.866,1_6_3.csv
2018-07-04T12:13:19.807738,-1.192,-0.479,0.361,-21.22,8.171,51.585,1_6_3.csv
2018-07-04T12:13:19.898484,-0.906,-0.385,0.299,63.415,1.707,-11.89,1_6_3.csv
2018-07-04T12:13:19.959149,-0.84,-0.266,0.254,50.366,-18.659,-14.207,1_6_3.csv
2018-07-04T12:13:19.994745,-0.84,-0.266,0.254,2.195,-25.122,-5.793,1_6_3.csv
2018-07-04T12:13:20.048391,-0.92,-0.348,0.201,-18.171,-38.598,19.512,1_6_3.csv
2018-07-04T12:13:20.089502,-0.971,-0.311,0.138,-34.512,-51.098,19.512,1_6_3.csv
2018-07-04T12:13:20.134624,-0.971,-0.311,0.138,-82.317,-55.488,4.512,1_6_3.csv
2018-07-04T12:13:20.183256,-0.962,-0.334,0.081,-116.402,-56.22,-14.207,1_6_3.csv
2018-07-04T12:13:20.229381,-0.962,-0.334,0.081,-113.232,-43.354,-21.037,1_6_3.csv
2018-07-04T12:13:20.275506,-1.078,-0.401,0.139,-70.976,-23.354,-4.878,1_6_3.csv
2018-07-04T12:13:20.330155,-1.078,-0.401,0.139,-40.671,-7.927,31.037,1_6_3.csv
2018-07-04T12:13:20.376781,-0.965,-0.401,0.35,-25.854,10.732,72.317,1_6_3.csv
2018-07-04T12:13:20.417892,-0.896,-0.344,0.5,35.915,41.646,45.122,1_6_3.csv
2018-07-04T12:13:20.463515,-0.896,-0.344,0.5,102.012,46.28,3.598,1_6_3.csv
2018-07-04T12:13:20.509641,-1.003,-0.102,0.295,104.634,23.476,-24.756,1_6_3.csv
2018-07-04T12:13:20.557771,-1.003,-0.102,0.295,30.061,-1.341,-35.427,1_6_3.csv
2018-07-04T12:13:20.670579,-0.705,-0.316,0.275,-69.695,15.305,-1.89,1_6_3.csv
2018-07-04T12:13:20.713693,-0.705,-0.316,0.275,-29.451,32.683,29.817,1_6_3.csv
2018-07-04T12:13:20.760320,-0.892,-0.321,0.291,12.256,46.524,51.037,1_6_3.csv
2018-07-04T12:13:20.809955,-0.892,-0.321,0.291,21.28,50.122,62.744,1_6_3.csv
2018-07-04T12:13:20.875633,-1.187,-0.339,0.384,-13.841,35.122,60.793,1_6_3.csv
2018-07-04T12:13:20.919251,-1.355,-0.422,0.383,-22.988,22.5,39.695,1_6_3.csv
2018-07-04T12:13:20.976406,-1.156,-0.367,0.36,-6.037,-36.707,-21.28,1_6_3.csv
2018-07-04T12:13:21.026542,-1.156,-0.367,0.36,-10.244,-40.976,-52.378,1_6_3.csv
2018-07-04T12:13:21.073669,-1.163,-0.334,0.271,7.744,-48.049,-65.183,1_6_3.csv
2018-07-04T12:13:21.121799,-1.163,-0.334,0.271,11.098,-79.146,-62.622,1_6_3.csv
2018-07-04T12:13:21.166922,-0.925,-0.262,0.21,-8.72,-90.61,-63.354,1_6_3.csv
2018-07-04T12:13:21.213047,-0.925,-0.262,0.21,-29.512,-85.427,-70.0,1_6_3.csv
2018-07-04T12:13:21.288251,-0.841,-0.289,0.135,-43.72,-70.244,-67.683,1_6_3.csv
2018-07-04T12:13:21.342397,-0.863,-0.275,0.093,-40.244,-59.756,-42.073,1_6_3.csv
2018-07-04T12:13:21.385515,-0.868,-0.268,0.088,-62.256,-40.183,-22.256,1_6_3.csv
2018-07-04T12:13:21.437656,-0.868,-0.268,0.088,-68.232,-22.988,4.451,1_6_3.csv
2018-07-04T12:13:21.484282,-0.937,-0.32,0.191,-56.341,0.366,43.902,1_6_3.csv
2018-07-04T12:13:21.532413,-0.937,-0.32,0.191,-44.756,29.939,96.037,1_6_3.csv
2018-07-04T12:13:21.617142,-1.137,-0.381,0.605,128.293,75.854,147.012,1_6_3.csv
2018-07-04T12:13:21.670410,-1.137,-0.381,0.605,149.207,63.902,85.915,1_6_3.csv
2018-07-04T12:13:21.720154,-1.167,0.035,0.305,80.183,-0.244,16.89,1_6_3.csv
2018-07-04T12:13:21.766780,-1.167,0.035,0.305,-60.793,-54.024,-36.585,1_6_3.csv
2018-07-04T12:13:21.812905,-0.847,-0.164,0.264,-161.524,-71.037,-73.598,1_6_3.csv
2018-07-04T12:13:21.870572,-0.704,-0.333,0.24,-172.927,-72.378,-71.829,1_6_3.csv
2018-07-04T12:13:22.025491,-0.898,-0.299,0.338,-36.585,23.72,56.829,1_6_3.csv
2018-07-04T12:13:22.104706,-1.132,-0.361,0.353,-13.049,48.415,102.866,1_6_3.csv
2018-07-04T12:13:22.151834,-1.132,-0.361,0.353,-24.634,52.439,102.439,1_6_3.csv
2018-07-04T12:13:22.200466,-1.414,-0.515,0.432,-14.451,57.134,95.671,1_6_3.csv
2018-07-04T12:13:22.243582,-1.414,-0.515,0.432,20.61,28.659,76.524,1_6_3.csv
2018-07-04T12:13:22.292214,-1.045,-0.396,0.417,26.22,-6.463,30.671,1_6_3.csv
2018-07-04T12:13:22.354885,-1.042,-0.363,0.309,38.354,-21.037,-48.11,1_6_3.csv
2018-07-04T12:13:22.401510,-1.042,-0.363,0.309,46.463,-53.049,-41.89,1_6_3.csv
2018-07-04T12:13:22.448638,-1.042,-0.28,0.233,8.049,-78.902,-39.268,1_6_3.csv
2018-07-04T12:13:22.496769,-1.042,-0.28,0.233,-49.634,-83.293,-58.171,1_6_3.csv
2018-07-04T12:13:22.542392,-1.028,-0.332,0.177,-66.89,-76.037,-104.878,1_6_3.csv
2018-07-04T12:13:22.589019,-0.961,-0.325,0.107,-40.488,-67.561,-119.207,1_6_3.csv
2018-07-04T12:13:22.642162,-0.961,-0.325,0.107,-13.11,-56.159,-124.024,1_6_3.csv
2018-07-04T12:13:22.702730,-0.808,-0.213,0.156,11.341,-37.195,-69.756,1_6_3.csv
2018-07-04T12:13:22.745345,-0.685,-0.174,0.353,8.963,-19.695,-8.78,1_6_3.csv
2018-07-04T12:13:22.797988,-0.685,-0.174,0.353,-9.512,9.817,58.049,1_6_3.csv
2018-07-04T12:13:22.838598,-1.091,-0.211,0.393,-36.098,49.024,128.537,1_6_3.csv
2018-07-04T12:13:22.900265,-1.091,-0.211,0.393,-54.39,73.415,186.22,1_6_3.csv
2018-07-04T12:13:22.963938,-1.326,-0.326,0.518,-9.085,34.451,155.488,1_6_3.csv
2018-07-04T12:13:23.010564,-1.151,-0.19,0.356,-38.354,-0.366,85.732,1_6_3.csv
2018-07-04T12:13:23.057190,-1.151,-0.19,0.356,-112.744,-42.317,32.378,1_6_3.csv
2018-07-04T12:13:23.122869,-0.907,-0.273,0.113,-175.183,-65.915,-20.061,1_6_3.csv
2018-07-04T12:13:23.169495,-0.755,-0.334,0.059,-148.232,-57.073,-16.951,1_6_3.csv
2018-07-04T12:13:23.218628,-0.755,-0.334,0.059,-124.634,-40.854,1.524,1_6_3.csv
2018-07-04T12:13:23.270770,-0.686,-0.269,0.155,-98.841,2.805,42.073,1_6_3.csv
2018-07-04T12:13:23.382667,-0.861,-0.313,0.278,-76.646,51.951,80.244,1_6_3.csv
2018-07-04T12:13:23.432802,-1.144,-0.415,0.39,-24.146,67.866,88.78,1_6_3.csv
2018-07-04T12:13:23.481935,-1.382,-0.52,0.475,-19.146,62.256,70.915,1_6_3.csv
2018-07-04T12:13:23.525052,-1.382,-0.52,0.475,-7.195,38.659,46.524,1_6_3.csv
2018-07-04T12:13:23.573686,-1.12,-0.448,0.552,2.439,-0.183,-1.524,1_6_3.csv
2018-07-04T12:13:23.635853,-1.118,-0.456,0.388,20.549,-31.463,-69.634,1_6_3.csv
2018-07-04T12:13:23.689498,-1.118,-0.456,0.388,64.085,-59.817,-65.671,1_6_3.csv
2018-07-04T12:13:23.733116,-1.153,-0.311,0.234,41.89,-87.195,-72.195,1_6_3.csv
2018-07-04T12:13:23.781246,-1.153,-0.311,0.234,-14.024,-97.744,-98.659,1_6_3.csv
2018-07-04T12:13:23.827873,-1.103,-0.332,0.166,-47.378,-103.781,-140.671,1_6_3.csv
2018-07-04T12:13:23.869486,-0.937,-0.275,0.104,-36.463,-99.573,-142.988,1_6_3.csv
2018-07-04T12:13:23.925639,-0.937,-0.275,0.104,-44.329,-87.439,-134.512,1_6_3.csv
2018-07-04T12:13:23.967752,-0.666,-0.204,0.131,-36.463,-61.585,-107.988,1_6_3.csv
2018-07-04T12:13:24.012875,-0.666,-0.204,0.131,-12.988,-26.28,-58.537,1_6_3.csv
2018-07-04T12:13:24.062509,-0.538,-0.164,0.258,3.049,8.293,8.476,1_6_3.csv
2018-07-04T12:13:24.104122,-0.538,-0.164,0.258,4.39,41.829,83.476,1_6_3.csv
2018-07-04T12:13:24.150247,-0.977,-0.177,0.321,-29.085,89.146,224.512,1_6_3.csv
2018-07-04T12:13:24.237483,-1.703,-0.401,0.415,-42.5,59.939,252.439,1_6_3.csv
2018-07-04T12:13:24.294638,-1.288,-0.42,0.398,-38.659,4.573,164.39,1_6_3.csv
2018-07-04T12:13:24.337254,-1.288,-0.42,0.398,-50.915,-16.341,42.012,1_6_3.csv
2018-07-04T12:13:24.402430,-0.897,-0.18,0.164,-219.024,-64.573,-68.293,1_6_3.csv
2018-07-04T12:13:24.448054,-0.657,-0.386,-0.044,-228.598,-65.366,-59.695,1_6_3.csv
2018-07-04T12:13:24.495182,-0.657,-0.386,-0.044,-168.476,-50.549,-32.805,1_6_3.csv
2018-07-04T12:13:24.561746,-0.561,-0.361,0.075,-66.463,2.927,42.622,1_6_3.csv
2018-07-04T12:13:24.634946,-0.831,-0.354,0.241,-48.841,62.195,85.0,1_6_3.csv
2018-07-04T12:13:24.683077,-1.338,-0.604,0.438,-5.061,86.037,94.085,1_6_3.csv
2018-07-04T12:13:24.790896,-1.526,-0.53,0.608,156.037,80.549,35.915,1_6_3.csv
2018-07-04T12:13:24.840030,-1.179,-0.198,0.515,108.11,-36.28,-70.915,1_6_3.csv
2018-07-04T12:13:24.885152,-1.179,-0.198,0.515,28.902,-69.146,-84.512,1_6_3.csv
2018-07-04T12:13:24.942808,-1.161,-0.364,0.228,3.78,-82.256,-72.195,1_6_3.csv
2018-07-04T12:13:24.982416,-1.161,-0.364,0.228,32.256,-105.183,-46.22,1_6_3.csv
2018-07-04T12:13:25.031048,-1.065,-0.32,0.09,25.122,-120.488,-36.585,1_6_3.csv
2018-07-04T12:13:25.082186,-0.998,-0.299,0.056,-63.293,-113.354,-79.39,1_6_3.csv
2018-07-04T12:13:25.133325,-0.998,-0.299,0.056,-85.427,-99.146,-99.512,1_6_3.csv
2018-07-04T12:13:25.192986,-0.83,-0.366,-0.002,-63.841,-85.183,-113.415,1_6_3.csv
2018-07-04T12:13:25.238610,-0.72,-0.267,0.078,9.756,-32.073,-81.585,1_6_3.csv
2018-07-04T12:13:25.286741,-0.72,-0.267,0.078,16.585,-9.573,-32.012,1_6_3.csv
2018-07-04T12:13:25.336375,-0.73,-0.199,0.254,-36.707,20.0,28.415,1_6_3.csv
2018-07-04T12:13:25.390522,-0.73,-0.199,0.254,-117.5,46.707,90.0,1_6_3.csv
2018-07-04T12:13:25.439656,-0.955,-0.548,0.331,0.915,70.366,197.5,1_6_3.csv
2018-07-04T12:13:25.482772,-1.201,-0.446,0.354,158.171,92.5,196.524,1_6_3.csv
2018-07-04T12:13:25.540173,-1.201,-0.446,0.354,209.756,101.037,158.598,1_6_3.csv
2018-07-04T12:13:25.586800,-1.226,-0.057,0.407,133.049,65.976,102.622,1_6_3.csv
2018-07-04T12:13:25.634429,-1.226,-0.057,0.407,6.585,35.549,38.171,1_6_3.csv
2018-07-04T12:13:25.684131,-0.894,-0.142,0.356,-102.5,5.061,-36.463,1_6_3.csv
2018-07-04T12:13:25.728751,-0.729,-0.353,0.263,-125.976,-5.061,-26.524,1_6_3.csv
2018-07-04T12:13:25.775879,-0.729,-0.353,0.263,-104.085,-11.707,-8.232,1_6_3.csv
2018-07-04T12:13:25.834036,-0.787,-0.396,0.306,-64.329,3.72,13.78,1_6_3.csv
2018-07-04T12:13:25.877655,-0.787,-0.396,0.306,-24.634,23.415,32.439,1_6_3.csv
2018-07-04T12:13:25.917764,-1.261,-0.427,0.384,3.659,29.329,40.366,1_6_3.csv
2018-07-04T12:13:25.963889,-1.441,-0.417,0.454,13.537,2.927,-6.22,1_6_3.csv
2018-07-04T12:13:26.009512,-1.441,-0.417,0.454,17.622,-29.268,-34.695,1_6_3.csv
2018-07-04T12:13:26.107277,-1.15,-0.36,0.402,14.817,-56.037,-78.171,1_6_3.csv
2018-07-04T12:13:26.171145,-1.113,-0.353,0.199,68.72,-87.744,-77.5,1_6_3.csv
2018-07-04T12:13:26.229303,-0.967,-0.238,0.257,49.451,-103.476,-87.683,1_6_3.csv
2018-07-04T12:13:26.277516,-0.967,-0.238,0.257,-19.024,-107.561,-89.085,1_6_3.csv
2018-07-04T12:13:26.325145,-0.84,-0.271,0.18,-20.366,-83.171,-72.927,1_6_3.csv
2018-07-04T12:13:26.370768,-0.654,-0.24,0.12,-2.988,-64.695,-47.988,1_6_3.csv
2018-07-04T12:13:26.416893,-0.654,-0.24,0.12,-7.317,-41.22,-20.793,1_6_3.csv
2018-07-04T12:13:26.470076,-0.678,-0.2,0.131,-17.317,-12.561,3.049,1_6_3.csv
2018-07-04T12:13:26.526226,-1.064,-0.266,0.229,-29.817,55.061,91.341,1_6_3.csv
2018-07-04T12:13:26.572853,-1.064,-0.266,0.229,-58.841,78.171,153.902,1_6_3.csv
2018-07-04T12:13:26.622488,-1.249,-0.418,0.437,-55.122,92.866,180.915,1_6_3.csv
2018-07-04T12:13:26.666107,-1.249,-0.418,0.437,16.098,102.988,152.927,1_6_3.csv
2018-07-04T12:13:26.713233,-1.261,-0.238,0.423,101.829,80.427,90.61,1_6_3.csv
2018-07-04T12:13:26.764372,-0.897,-0.133,0.461,-108.72,-47.5,-21.951,1_6_3.csv
2018-07-04T12:13:26.826039,-0.897,-0.133,0.461,-225.976,-63.902,-37.378,1_6_3.csv
2018-07-04T12:13:26.903249,-0.745,-0.356,0.223,-174.512,-49.39,1.585,1_6_3.csv
2018-07-04T12:13:26.969929,-0.714,-0.371,0.195,-137.988,-5.366,66.951,1_6_3.csv
2018-07-04T12:13:27.016054,-0.888,-0.458,0.317,-125.488,32.927,90.366,1_6_3.csv
2018-07-04T12:13:27.062179,-0.888,-0.458,0.317,-67.134,69.512,96.524,1_6_3.csv
2018-07-04T12:13:27.103792,-1.188,-0.547,0.357,29.329,88.963,82.378,1_6_3.csv
2018-07-04T12:13:27.150419,-1.188,-0.547,0.357,104.878,84.939,47.378,1_6_3.csv
2018-07-04T12:13:27.204565,-1.314,-0.407,0.435,98.171,68.232,20.061,1_6_3.csv
2018-07-04T12:13:27.259714,-1.293,-0.31,0.524,44.939,-21.646,-20.122,1_6_3.csv
2018-07-04T12:13:27.315867,-1.293,-0.31,0.524,15.976,-66.768,-44.939,1_6_3.csv
2018-07-04T12:13:27.518917,-0.917,-0.292,0.102,-71.341,-127.012,-135.976,1_6_3.csv
2018-07-04T12:13:27.564040,-0.917,-0.292,0.102,-26.463,-108.11,-124.817,1_6_3.csv
2018-07-04T12:13:27.619189,-0.807,-0.19,0.088,29.329,-78.841,-63.598,1_6_3.csv
2018-07-04T12:13:27.700409,-0.651,-0.076,0.107,-46.951,-32.988,27.012,1_6_3.csv
2018-07-04T12:13:27.752049,-0.773,-0.171,0.193,-67.927,1.524,89.878,1_6_3.csv
2018-07-04T12:13:27.798174,-0.773,-0.171,0.193,-67.683,33.11,168.842,1_6_3.csv
2018-07-04T12:13:27.844299,-1.433,-0.277,0.163,-84.329,51.646,247.561,1_6_3.csv
2018-07-04T12:13:27.902549,-1.741,-0.441,0.194,-188.659,19.695,296.159,1_6_3.csv
2018-07-04T12:13:27.960205,-1.741,-0.441,0.194,-225.671,-13.415,231.22,1_6_3.csv
2018-07-04T12:13:28.014352,-1.253,-0.34,0.155,-214.085,-54.268,47.5,1_6_3.csv
2018-07-04T12:13:28.070003,-0.85,-0.352,-0.088,-249.756,-66.524,-2.805,1_6_3.csv
2018-07-04T12:13:28.143702,-0.671,-0.52,-0.198,-241.281,-84.512,14.573,1_6_3.csv
2018-07-04T12:13:28.198852,-0.671,-0.52,-0.198,-186.951,-69.512,51.463,1_6_3.csv
2018-07-04T12:13:28.245980,-0.694,-0.451,-0.034,-156.463,-46.463,85.732,1_6_3.csv
2018-07-04T12:13:28.291603,-1.059,-0.926,0.092,-211.342,18.293,149.024,1_6_3.csv
2018-07-04T12:13:28.338731,-1.059,-0.926,0.092,-110.915,55.732,163.781,1_6_3.csv
2018-07-04T12:13:28.386861,-1.352,-1.322,0.334,76.098,93.537,105.0,1_6_3.csv
2018-07-04T12:13:28.451047,-1.352,-1.322,0.334,225.976,128.293,-14.329,1_6_3.csv
2018-07-04T12:13:28.494665,-1.497,-0.583,0.47,390.793,60.976,-192.195,1_6_3.csv
2018-07-04T12:13:28.542884,-1.559,-0.012,0.292,349.817,-30.488,-173.232,1_6_3.csv
2018-07-04T12:13:28.589511,-1.559,-0.012,0.292,216.281,-104.451,-136.402,1_6_3.csv
2018-07-04T12:13:28.636137,-1.107,-0.007,0.259,60.305,-138.049,-124.817,1_6_3.csv
2018-07-04T12:13:28.681915,-1.107,-0.007,0.259,-43.902,-133.842,-114.634,1_6_3.csv
2018-07-04T12:13:28.746402,-0.883,-0.295,0.05,-35.854,-106.159,-88.78,1_6_3.csv
2018-07-04T12:13:28.794532,-0.708,-0.202,-0.024,-7.561,-90.793,-74.634,1_6_3.csv
2018-07-04T12:13:28.870460,-0.438,-0.185,0.073,-24.268,-34.268,-19.39,1_6_3.csv
2018-07-04T12:13:28.918242,-0.438,-0.185,0.073,-15.0,9.573,44.756,1_6_3.csv
2018-07-04T12:13:28.964367,-0.785,-0.321,0.325,-1.037,64.207,121.89,1_6_3.csv
2018-07-04T12:13:29.010994,-0.785,-0.321,0.325,28.841,111.707,180.854,1_6_3.csv
2018-07-04T12:13:29.063637,-1.57,-0.306,0.265,12.256,130.549,204.39,1_6_3.csv
2018-07-04T12:13:29.105250,-1.426,-0.32,0.325,-11.646,82.317,169.39,1_6_3.csv
2018-07-04T12:13:29.151876,-1.426,-0.32,0.325,-30.671,58.476,103.232,1_6_3.csv
2018-07-04T12:13:29.199350,-1.07,-0.122,0.297,-58.049,28.354,29.39,1_6_3.csv
2018-07-04T12:13:29.244974,-1.07,-0.122,0.297,-133.049,-2.5,-19.39,1_6_3.csv
2018-07-04T12:13:29.291601,-0.804,-0.278,0.132,-202.744,-25.976,-38.659,1_6_3.csv
2018-07-04T12:13:29.353267,-0.699,-0.414,0.082,-210.305,-31.098,-1.585,1_6_3.csv
2018-07-04T12:13:29.402400,-0.699,-0.414,0.082,-190.854,-22.195,36.463,1_6_3.csv
2018-07-04T12:13:29.448023,-0.789,-0.566,0.182,-155.122,-2.744,71.585,1_6_3.csv
2018-07-04T12:13:29.496653,-1.188,-0.534,0.239,38.232,41.768,80.549,1_6_3.csv
2018-07-04T12:13:29.541775,-1.188,-0.534,0.239,63.78,45.244,44.512,1_6_3.csv
2018-07-04T12:13:29.592912,-1.357,-0.497,0.348,8.232,42.134,0.488,1_6_3.csv
2018-07-04T12:13:29.650567,-1.357,-0.497,0.348,-8.293,25.671,-31.402,1_6_3.csv
2018-07-04T12:13:29.714239,-1.192,-0.571,0.376,82.439,-9.573,-81.646,1_6_3.csv
2018-07-04T12:13:29.760865,-1.23,-0.409,0.26,127.378,-31.463,-91.646,1_6_3.csv
2018-07-04T12:13:29.808533,-1.23,-0.409,0.26,128.171,-65.793,-84.573,1_6_3.csv
2018-07-04T12:13:29.869196,-1.234,-0.257,0.084,5.305,-121.768,-85.122,1_6_3.csv
2018-07-04T12:13:29.919331,-1.023,-0.267,0.031,-58.232,-119.207,-110.854,1_6_3.csv
2018-07-04T12:13:29.975482,-1.023,-0.267,0.031,-78.963,-104.024,-138.902,1_6_3.csv
2018-07-04T12:13:30.027622,-0.843,-0.313,-0.012,-0.793,-41.22,-136.829,1_6_3.csv
2018-07-04T12:13:30.072743,-0.775,-0.21,0.031,39.756,-27.927,-98.354,1_6_3.csv
2018-07-04T12:13:30.136916,-0.775,-0.21,0.031,30.244,-17.805,-41.037,1_6_3.csv
2018-07-04T12:13:30.247213,-0.984,-0.344,0.304,-76.037,16.768,176.829,1_6_3.csv
2018-07-04T12:13:30.296345,-0.984,-0.344,0.304,-68.902,42.317,213.781,1_6_3.csv
2018-07-04T12:13:30.352496,-1.336,-0.497,0.511,101.281,82.805,187.683,1_6_3.csv
2018-07-04T12:13:30.400626,-1.147,-0.241,0.307,129.024,54.817,127.988,1_6_3.csv
2018-07-04T12:13:30.447775,-1.147,-0.241,0.307,62.866,37.134,64.878,1_6_3.csv
2018-07-04T12:13:30.497910,-0.942,-0.137,0.207,-44.756,19.512,18.72,1_6_3.csv
2018-07-04T12:13:30.541528,-0.942,-0.137,0.207,-133.659,4.512,-0.061,1_6_3.csv
2018-07-04T12:13:30.588654,-0.802,-0.438,0.206,-141.585,4.085,21.159,1_6_3.csv
2018-07-04T12:13:30.649975,-0.8,-0.452,0.206,-81.159,19.207,39.817,1_6_3.csv
2018-07-04T12:13:30.717658,-1.069,-0.462,0.321,-14.573,47.683,47.561,1_6_3.csv
2018-07-04T12:13:30.766288,-1.069,-0.462,0.321,-10.122,43.659,29.207,1_6_3.csv
2018-07-04T12:13:30.808402,-1.333,-0.532,0.471,-7.683,45.122,-4.878,1_6_3.csv
2018-07-04T12:13:30.869567,-1.327,-0.4,0.45,97.683,-7.073,-68.171,1_6_3.csv
2018-07-04T12:13:30.918197,-1.327,-0.4,0.45,92.5,-37.073,-92.744,1_6_3.csv
2018-07-04T12:13:30.963318,-1.366,-0.256,0.303,82.866,-65.671,-101.098,1_6_3.csv
2018-07-04T12:13:31.029998,-1.203,-0.197,0.21,37.622,-123.72,-93.659,1_6_3.csv
2018-07-04T12:13:31.074117,-1.203,-0.197,0.21,-0.244,-130.793,-103.354,1_6_3.csv
2018-07-04T12:13:31.138291,-0.99,-0.199,0.1,-30.549,-128.659,-113.598,1_6_3.csv
2018-07-04T12:13:31.186419,-0.807,-0.229,0.045,-36.341,-109.39,-95.0,1_6_3.csv
2018-07-04T12:13:31.236554,-0.807,-0.229,0.045,-26.22,-95.0,-65.793,1_6_3.csv
2018-07-04T12:13:31.282177,-0.717,-0.187,0.07,-30.976,-72.195,-26.524,1_6_3.csv
2018-07-04T12:13:31.337325,-0.717,-0.187,0.07,-43.476,-50.183,16.707,1_6_3.csv
2018-07-04T12:13:31.385455,-0.815,-0.203,0.116,-57.927,-18.171,66.524,1_6_3.csv
2018-07-04T12:13:31.433083,-1.231,-0.308,0.203,-71.098,47.927,198.476,1_6_3.csv
2018-07-04T12:13:31.482215,-1.231,-0.308,0.203,-87.866,66.22,255.549,1_6_3.csv
2018-07-04T12:13:31.599531,-1.288,-0.322,0.266,-62.622,30.61,166.829,1_6_3.csv
2018-07-04T12:13:31.636129,-1.288,-0.322,0.266,-97.195,0.0,85.549,1_6_3.csv
2018-07-04T12:13:31.729380,-0.948,-0.244,0.073,-242.195,-38.354,-6.707,1_6_3.csv
2018-07-04T12:13:31.776507,-0.738,-0.508,0.007,-271.829,-46.098,-5.671,1_6_3.csv
2018-07-04T12:13:31.825138,-0.738,-0.508,0.007,-233.354,-39.695,18.537,1_6_3.csv
2018-07-04T12:13:31.871764,-0.663,-0.5,0.044,-112.927,16.768,68.11,1_6_3.csv
2018-07-04T12:13:31.917888,-0.984,-0.63,0.26,-67.195,46.646,83.598,1_6_3.csv
2018-07-04T12:13:31.964513,-0.984,-0.63,0.26,-35.488,74.817,85.427,1_6_3.csv
2018-07-04T12:13:32.021166,-1.354,-0.75,0.492,10.305,85.366,44.817,1_6_3.csv
2018-07-04T12:13:32.076816,-1.479,-0.46,0.679,131.402,51.768,-91.463,1_6_3.csv
2018-07-04T12:13:32.159037,-1.535,-0.229,0.429,101.768,-31.89,-149.512,1_6_3.csv
2018-07-04T12:13:32.199646,-1.535,-0.229,0.429,91.829,-82.805,-140.854,1_6_3.csv
2018-07-04T12:13:32.246272,-1.265,-0.104,0.149,47.561,-149.024,-132.317,1_6_3.csv
2018-07-04T12:13:32.321047,-0.882,-0.194,0.147,-57.683,-135.549,-135.976,1_6_3.csv
2018-07-04T12:13:32.376196,-0.882,-0.194,0.147,-60.427,-116.829,-121.463,1_6_3.csv
2018-07-04T12:13:32.434352,-0.714,-0.279,0.039,4.085,-72.256,-43.78,1_6_3.csv
2018-07-04T12:13:32.479473,-0.661,-0.183,0.017,4.756,-52.866,-4.756,1_6_3.csv
2018-07-04T12:13:32.528104,-0.661,-0.183,0.017,-19.207,-30.427,38.598,1_6_3.csv
2018-07-04T12:13:32.572725,-0.814,-0.259,0.104,-46.037,-5.793,87.927,1_6_3.csv
2018-07-04T12:13:32.620854,-0.814,-0.259,0.104,-62.073,23.598,143.659,1_6_3.csv
2018-07-04T12:13:32.686607,-1.301,-0.355,0.217,-57.5,55.671,245.0,1_6_3.csv
2018-07-04T12:13:32.760807,-1.434,-0.424,0.332,-97.927,32.073,208.963,1_6_3.csv
2018-07-04T12:13:32.807933,-1.233,-0.413,0.285,-68.476,44.39,139.878,1_6_3.csv
2018-07-04T12:13:32.854559,-1.233,-0.413,0.285,-29.329,23.537,73.171,1_6_3.csv
2018-07-04T12:13:32.901686,-0.944,-0.295,0.168,-25.793,5.793,25.732,1_6_3.csv
2018-07-04T12:13:32.995438,-0.784,-0.33,0.188,-153.171,-6.463,5.915,1_6_3.csv
2018-07-04T12:13:33.057615,-0.727,-0.439,0.204,-133.72,6.951,24.939,1_6_3.csv
2018-07-04T12:13:33.104742,-0.727,-0.439,0.204,-88.537,22.683,36.341,1_6_3.csv
2018-07-04T12:13:33.152370,-0.954,-0.476,0.296,-54.939,38.78,34.39,1_6_3.csv
2018-07-04T12:13:33.204009,-1.195,-0.467,0.489,11.707,57.683,6.829,1_6_3.csv
2018-07-04T12:13:33.246123,-1.195,-0.467,0.489,32.561,48.415,-22.134,1_6_3.csv
2018-07-04T12:13:33.293249,-1.379,-0.43,0.558,49.939,38.963,-45.976,1_6_3.csv
2018-07-04T12:13:33.375471,-1.378,-0.236,0.465,81.402,-53.78,-77.439,1_6_3.csv
2018-07-04T12:13:33.438140,-1.344,-0.202,0.273,44.512,-107.317,-110.976,1_6_3.csv
2018-07-04T12:13:33.480754,-1.344,-0.202,0.273,22.744,-128.476,-109.451,1_6_3.csv
2018-07-04T12:13:33.561973,-1.087,-0.241,0.171,-41.098,-122.378,-103.171,1_6_3.csv
2018-07-04T12:13:33.621132,-0.881,-0.254,0.067,-51.951,-108.354,-101.768,1_6_3.csv
2018-07-04T12:13:33.679790,-0.72,-0.218,0.042,-11.341,-69.268,-72.256,1_6_3.csv
2018-07-04T12:13:33.741957,-0.72,-0.218,0.042,-5.244,-51.159,-48.232,1_6_3.csv
2018-07-04T12:13:33.792594,-0.644,-0.159,0.17,-19.024,-28.415,-16.037,1_6_3.csv
2018-07-04T12:13:33.860777,-0.848,-0.16,0.329,-6.829,15.976,96.585,1_6_3.csv
2018-07-04T12:13:33.917429,-0.848,-0.16,0.329,-7.256,44.085,177.927,1_6_3.csv
2018-07-04T12:13:33.981136,-1.452,-0.322,0.387,-128.415,75.549,278.902,1_6_3.csv
2018-07-04T12:13:34.054570,-1.374,-0.549,0.5,12.927,40.305,158.415,1_6_3.csv
