time,accel_x_list,accel_y_list,accel_z_list,gyro_x_list,gyro_y_list,gyro_z_list,filename
2018-07-04T12:11:29.166668,-0.785,-0.235,0.324,43.902,-16.402,-35.305,1_6_2.csv
2018-07-04T12:11:29.229839,-0.912,-0.114,0.308,7.012,-8.293,-3.72,1_6_2.csv
2018-07-04T12:11:29.285991,-0.998,-0.24,0.259,-84.939,0.671,92.012,1_6_2.csv
2018-07-04T12:11:29.332116,-0.998,-0.24,0.259,-110.0,10.122,127.5,1_6_2.csv
2018-07-04T12:11:29.380246,-0.976,-0.332,0.295,-108.598,22.134,140.183,1_6_2.csv
2018-07-04T12:11:29.427876,-0.976,-0.332,0.295,-82.256,42.439,144.329,1_6_2.csv
2018-07-04T12:11:29.476006,-1.075,-0.359,0.281,-45.549,42.439,137.988,1_6_2.csv
2018-07-04T12:11:29.581792,-1.035,-0.323,0.234,-109.756,12.622,64.39,1_6_2.csv
2018-07-04T12:11:29.635939,-0.931,-0.407,0.262,-123.781,6.768,43.72,1_6_2.csv
2018-07-04T12:11:29.683067,-0.931,-0.407,0.262,-117.866,9.024,30.488,1_6_2.csv
2018-07-04T12:11:29.728189,-0.867,-0.438,0.306,-77.439,15.488,4.695,1_6_2.csv
2018-07-04T12:11:29.768799,-0.929,-0.503,0.429,-56.402,31.951,4.756,1_6_2.csv
2018-07-04T12:11:29.818434,-0.929,-0.503,0.429,-9.512,48.171,15.366,1_6_2.csv
2018-07-04T12:11:29.884613,-1.23,-0.507,0.56,42.561,51.707,16.037,1_6_2.csv
2018-07-04T12:11:29.927229,-1.26,-0.25,0.312,61.341,0.244,-26.646,1_6_2.csv
2018-07-04T12:11:30.012460,-1.26,-0.25,0.312,-3.293,-78.841,-114.878,1_6_2.csv
2018-07-04T12:11:30.070618,-1.26,-0.25,0.312,-6.22,-94.024,-128.963,1_6_2.csv
2018-07-04T12:11:30.114235,-1.251,-0.309,0.195,1.951,-112.012,-115.122,1_6_2.csv
2018-07-04T12:11:30.161865,-1.251,-0.309,0.195,-12.073,-125.671,-104.817,1_6_2.csv
2018-07-04T12:11:30.217516,-0.954,-0.235,0.18,-29.207,-86.89,-115.915,1_6_2.csv
2018-07-04T12:11:30.271161,-0.785,-0.239,0.115,-3.354,-67.012,-107.256,1_6_2.csv
2018-07-04T12:11:30.318790,-0.785,-0.239,0.115,28.171,-53.476,-82.744,1_6_2.csv
2018-07-04T12:11:30.366921,-0.613,-0.103,0.167,23.537,-45.915,-51.098,1_6_2.csv
2018-07-04T12:11:30.412043,-0.627,-0.134,0.183,-50.671,-8.537,34.268,1_6_2.csv
2018-07-04T12:11:30.461678,-0.627,-0.134,0.183,-64.939,16.646,96.768,1_6_2.csv
2018-07-04T12:11:30.511312,-1.199,-0.263,0.13,-72.256,44.573,175.854,1_6_2.csv
2018-07-04T12:11:30.555933,-1.199,-0.263,0.13,-113.72,86.707,267.378,1_6_2.csv
2018-07-04T12:11:30.598048,-1.726,-0.883,0.546,-115.61,95.488,323.659,1_6_2.csv
2018-07-04T12:11:30.649186,-1.726,-0.883,0.546,36.707,45.732,279.329,1_6_2.csv
2018-07-04T12:11:30.692804,-1.263,-0.117,0.23,113.049,-0.549,-1.28,1_6_2.csv
2018-07-04T12:11:30.739932,-1.097,0.123,0.044,-180.0,-71.951,-66.585,1_6_2.csv
2018-07-04T12:11:30.815679,-0.638,-0.519,-0.135,-508.171,-155.488,-86.22,1_6_2.csv
2018-07-04T12:11:30.880354,-0.638,-0.519,-0.135,-407.561,-134.695,-58.841,1_6_2.csv
2018-07-04T12:11:30.927983,-0.365,-0.462,-0.013,-221.585,-94.695,-17.012,1_6_2.csv
2018-07-04T12:11:30.976114,-0.702,-0.3,0.156,-19.024,-5.549,93.476,1_6_2.csv
2018-07-04T12:11:31.037780,-0.702,-0.3,0.156,-17.195,32.256,148.354,1_6_2.csv
2018-07-04T12:11:31.086412,-1.262,-0.522,0.328,-44.268,65.366,188.049,1_6_2.csv
2018-07-04T12:11:31.143066,-1.47,-0.841,0.441,37.012,72.805,158.537,1_6_2.csv
2018-07-04T12:11:31.192700,-1.47,-0.841,0.441,117.012,58.415,74.512,1_6_2.csv
2018-07-04T12:11:31.238825,-1.229,-0.235,0.462,116.89,14.146,-28.354,1_6_2.csv
2018-07-04T12:11:31.288460,-1.229,-0.235,0.462,7.866,-23.659,-102.5,1_6_2.csv
2018-07-04T12:11:31.379707,-1.186,-0.394,0.22,13.659,-84.39,-102.134,1_6_2.csv
2018-07-04T12:11:31.428339,-1.186,-0.394,0.22,21.768,-83.598,-118.476,1_6_2.csv
2018-07-04T12:11:31.496524,-1.099,-0.195,0.171,-27.927,-73.476,-162.317,1_6_2.csv
2018-07-04T12:11:31.538638,-0.87,-0.257,0.097,-17.134,-63.598,-158.598,1_6_2.csv
2018-07-04T12:11:31.583259,-0.87,-0.257,0.097,10.427,-52.927,-135.0,1_6_2.csv
2018-07-04T12:11:31.633395,-0.681,-0.162,0.146,18.171,-40.427,-94.146,1_6_2.csv
2018-07-04T12:11:31.677013,-0.681,-0.162,0.146,1.951,-23.841,-36.585,1_6_2.csv
2018-07-04T12:11:31.724642,-0.707,-0.169,0.222,-26.951,-1.402,32.805,1_6_2.csv
2018-07-04T12:11:31.793393,-1.229,-0.334,0.305,-41.89,54.329,192.195,1_6_2.csv
2018-07-04T12:11:31.850047,-1.229,-0.334,0.305,-32.683,87.561,258.902,1_6_2.csv
2018-07-04T12:11:31.896674,-1.4,-0.444,0.465,5.305,69.878,272.927,1_6_2.csv
2018-07-04T12:11:31.944302,-1.191,-0.23,0.256,16.463,29.756,134.207,1_6_2.csv
2018-07-04T12:11:31.988422,-1.191,-0.23,0.256,-24.146,-7.195,47.256,1_6_2.csv
2018-07-04T12:11:32.037054,-0.913,-0.271,0.165,-116.22,-41.463,-8.841,1_6_2.csv
2018-07-04T12:11:32.090198,-0.913,-0.271,0.165,-196.342,-55.061,-37.927,1_6_2.csv
2018-07-04T12:11:32.145015,-0.734,-0.516,0.119,-147.439,-35.0,-34.146,1_6_2.csv
2018-07-04T12:11:32.193647,-0.712,-0.373,0.205,-69.573,-8.171,-24.878,1_6_2.csv
2018-07-04T12:11:32.241795,-0.712,-0.373,0.205,-21.341,13.171,-21.646,1_6_2.csv
2018-07-04T12:11:32.301458,-0.879,-0.316,0.333,8.049,45.427,-1.098,1_6_2.csv
2018-07-04T12:11:32.354101,-1.168,-0.395,0.542,33.841,64.939,21.951,1_6_2.csv
2018-07-04T12:11:32.403736,-1.168,-0.395,0.542,61.341,67.439,39.695,1_6_2.csv
2018-07-04T12:11:32.459888,-1.372,-0.42,0.556,72.805,52.256,46.463,1_6_2.csv
2018-07-04T12:11:32.505010,-1.185,-0.271,0.341,58.598,-34.146,-14.878,1_6_2.csv
2018-07-04T12:11:32.553141,-1.185,-0.271,0.341,40.244,-49.207,-56.341,1_6_2.csv
2018-07-04T12:11:32.599265,-1.12,-0.338,0.227,34.634,-70.0,-69.085,1_6_2.csv
2018-07-04T12:11:32.646393,-1.12,-0.338,0.227,12.012,-95.366,-69.268,1_6_2.csv
2018-07-04T12:11:32.731123,-0.902,-0.301,0.19,-38.049,-72.439,-89.695,1_6_2.csv
2018-07-04T12:11:32.785270,-0.851,-0.32,0.062,-5.244,-48.293,-78.659,1_6_2.csv
2018-07-04T12:11:32.833400,-0.815,-0.265,0.087,13.293,-41.402,-60.915,1_6_2.csv
2018-07-04T12:11:32.881531,-0.815,-0.265,0.087,7.988,-31.707,-44.695,1_6_2.csv
2018-07-04T12:11:32.927655,-0.882,-0.217,0.186,-17.195,-15.061,-23.11,1_6_2.csv
2018-07-04T12:11:32.973892,-0.882,-0.217,0.186,-36.463,2.683,7.744,1_6_2.csv
2018-07-04T12:11:33.028039,-0.998,-0.258,0.317,-55.732,49.634,100.549,1_6_2.csv
2018-07-04T12:11:33.068649,-1.088,-0.434,0.519,-47.744,65.244,145.122,1_6_2.csv
2018-07-04T12:11:33.114272,-1.088,-0.434,0.519,22.256,53.476,157.317,1_6_2.csv
2018-07-04T12:11:33.164977,-1.057,-0.326,0.436,78.049,53.232,135.488,1_6_2.csv
2018-07-04T12:11:33.208179,-1.057,-0.326,0.436,90.793,41.585,90.488,1_6_2.csv
2018-07-04T12:11:33.254804,-1.014,-0.09,0.292,46.524,1.159,40.671,1_6_2.csv
2018-07-04T12:11:33.312034,-0.818,-0.227,0.281,-140.915,-31.951,-32.073,1_6_2.csv
2018-07-04T12:11:33.349636,-0.818,-0.227,0.281,-174.695,-32.988,-44.695,1_6_2.csv
2018-07-04T12:11:33.396262,-0.683,-0.391,0.259,-157.988,-27.866,-31.22,1_6_2.csv
2018-07-04T12:11:33.444894,-0.683,-0.391,0.259,-112.317,-11.037,-5.854,1_6_2.csv
2018-07-04T12:11:33.488512,-0.751,-0.372,0.311,-60.915,12.378,16.463,1_6_2.csv
2018-07-04T12:11:33.535139,-0.751,-0.372,0.311,-23.902,35.732,33.963,1_6_2.csv
2018-07-04T12:11:33.589285,-1.128,-0.375,0.458,5.488,43.78,40.122,1_6_2.csv
2018-07-04T12:11:33.630898,-1.356,-0.39,0.405,-10.122,34.634,23.049,1_6_2.csv
2018-07-04T12:11:33.676020,-1.356,-0.39,0.405,-20.549,24.146,6.829,1_6_2.csv
2018-07-04T12:11:33.727159,-1.238,-0.434,0.394,-5.0,-5.305,-7.805,1_6_2.csv
2018-07-04T12:11:33.775791,-1.238,-0.434,0.394,4.512,-32.561,-33.537,1_6_2.csv
2018-07-04T12:11:33.818407,-1.034,-0.353,0.34,-7.988,-30.427,-59.024,1_6_2.csv
2018-07-04T12:11:33.877065,-0.958,-0.412,0.159,-48.537,-69.451,-69.085,1_6_2.csv
2018-07-04T12:11:33.928204,-0.958,-0.412,0.159,-49.39,-71.646,-79.39,1_6_2.csv
2018-07-04T12:11:33.973828,-0.833,-0.304,0.074,-36.037,-63.963,-91.037,1_6_2.csv
2018-07-04T12:11:34.021457,-0.833,-0.304,0.074,-26.646,-58.963,-94.146,1_6_2.csv
2018-07-04T12:11:34.131255,-0.828,-0.296,0.241,-13.963,-44.024,-22.988,1_6_2.csv
2018-07-04T12:11:34.182393,-0.828,-0.296,0.241,-30.061,-17.866,2.866,1_6_2.csv
2018-07-04T12:11:34.281662,-1.172,-0.268,0.223,13.78,32.439,121.707,1_6_2.csv
2018-07-04T12:11:34.395972,-1.108,-0.281,0.314,-90.915,14.39,129.085,1_6_2.csv
2018-07-04T12:11:34.443100,-1.152,-0.37,0.281,-105.244,-6.951,91.463,1_6_2.csv
2018-07-04T12:11:34.490729,-1.152,-0.37,0.281,-121.22,-30.427,55.793,1_6_2.csv
2018-07-04T12:11:34.535349,-0.834,-0.35,0.17,-140.671,-28.354,25.915,1_6_2.csv
2018-07-04T12:11:34.583982,-0.834,-0.35,0.17,-126.768,-21.951,15.0,1_6_2.csv
2018-07-04T12:11:34.640635,-0.721,-0.384,0.149,-78.841,-4.207,43.232,1_6_2.csv
2018-07-04T12:11:34.697796,-0.734,-0.365,0.225,-87.439,6.951,49.451,1_6_2.csv
2018-07-04T12:11:34.744924,-0.734,-0.365,0.225,-96.951,20.122,45.366,1_6_2.csv
2018-07-04T12:11:34.787038,-1.012,-0.486,0.306,-84.024,32.805,39.085,1_6_2.csv
2018-07-04T12:11:34.833665,-1.299,-0.559,0.449,-13.78,46.037,22.988,1_6_2.csv
2018-07-04T12:11:34.881294,-1.299,-0.559,0.449,11.28,38.11,3.049,1_6_2.csv
2018-07-04T12:11:34.937947,-1.356,-0.493,0.568,43.415,25.305,-17.683,1_6_2.csv
2018-07-04T12:11:34.990089,-1.356,-0.493,0.568,67.012,-10.366,-47.439,1_6_2.csv
2018-07-04T12:11:35.052759,-1.109,-0.28,0.388,45.122,-47.317,-93.659,1_6_2.csv
2018-07-04T12:11:35.099886,-1.195,-0.277,0.197,50.671,-76.89,-80.732,1_6_2.csv
2018-07-04T12:11:35.146512,-1.195,-0.277,0.197,15.732,-109.39,-70.0,1_6_2.csv
2018-07-04T12:11:35.192137,-1.016,-0.207,0.168,-40.671,-109.817,-81.098,1_6_2.csv
2018-07-04T12:11:35.248789,-0.821,-0.31,0.074,-84.024,-86.28,-104.268,1_6_2.csv
2018-07-04T12:11:35.317977,-0.701,-0.27,0.092,7.988,-45.976,-54.817,1_6_2.csv
2018-07-04T12:11:35.365105,-0.701,-0.27,0.092,30.366,-25.549,-15.488,1_6_2.csv
2018-07-04T12:11:35.486947,-1.113,-0.258,0.179,-50.305,25.976,124.756,1_6_2.csv
2018-07-04T12:11:35.552124,-1.113,-0.258,0.179,-72.927,38.963,176.037,1_6_2.csv
2018-07-04T12:11:35.599252,-1.303,-0.44,0.42,-38.11,56.524,194.573,1_6_2.csv
2018-07-04T12:11:35.655906,-1.211,-0.32,0.463,8.902,48.049,141.951,1_6_2.csv
2018-07-04T12:11:35.708047,-1.211,-0.32,0.463,16.341,21.402,71.037,1_6_2.csv
2018-07-04T12:11:35.754173,-0.947,-0.105,0.25,-50.793,-10.244,12.5,1_6_2.csv
2018-07-04T12:11:35.802803,-0.763,-0.303,0.198,-199.268,-52.866,-39.085,1_6_2.csv
2018-07-04T12:11:35.848928,-0.763,-0.303,0.198,-204.207,-52.683,-39.207,1_6_2.csv
2018-07-04T12:11:35.895054,-0.611,-0.398,0.218,-164.756,-41.463,-24.146,1_6_2.csv
2018-07-04T12:11:35.952711,-0.611,-0.398,0.218,-112.073,-13.354,-0.305,1_6_2.csv
2018-07-04T12:11:36.009864,-0.736,-0.36,0.29,-39.695,51.341,50.488,1_6_2.csv
2018-07-04T12:11:36.066518,-1.202,-0.476,0.417,-15.244,70.671,72.195,1_6_2.csv
2018-07-04T12:11:36.116654,-1.202,-0.476,0.417,6.28,65.854,74.573,1_6_2.csv
2018-07-04T12:11:36.160774,-1.444,-0.583,0.599,47.744,12.073,13.841,1_6_2.csv
2018-07-04T12:11:36.206899,-1.145,-0.324,0.484,25.061,-22.561,-42.256,1_6_2.csv
2018-07-04T12:11:36.257034,-1.145,-0.324,0.484,0.488,-39.573,-81.159,1_6_2.csv
2018-07-04T12:11:36.302157,-1.144,-0.371,0.213,2.744,-62.073,-83.171,1_6_2.csv
2018-07-04T12:11:36.349486,-1.144,-0.371,0.213,-2.378,-94.695,-72.988,1_6_2.csv
2018-07-04T12:11:36.397616,-1.026,-0.292,0.111,-42.012,-106.22,-81.585,1_6_2.csv
2018-07-04T12:11:36.461469,-0.866,-0.335,0.045,-115.061,-83.171,-127.378,1_6_2.csv
2018-07-04T12:11:36.505088,-0.866,-0.335,0.045,-94.695,-58.72,-122.988,1_6_2.csv
2018-07-04T12:11:36.567256,-0.717,-0.365,0.074,-22.012,-12.317,-58.902,1_6_2.csv
2018-07-04T12:11:36.619898,-0.731,-0.367,0.235,-71.707,3.72,-26.524,1_6_2.csv
2018-07-04T12:11:36.678557,-0.731,-0.367,0.235,-104.573,5.488,4.451,1_6_2.csv
2018-07-04T12:11:36.726688,-0.874,-0.577,0.216,-0.732,0.793,75.915,1_6_2.csv
2018-07-04T12:11:36.851526,-1.077,-0.359,0.358,78.72,-12.256,148.659,1_6_2.csv
2018-07-04T12:11:36.901662,-1.077,-0.359,0.358,37.378,-5.793,118.902,1_6_2.csv
2018-07-04T12:11:36.954807,-1.054,-0.271,0.271,-17.134,-14.817,77.134,1_6_2.csv
2018-07-04T12:11:37.037531,-0.857,-0.27,0.146,-110.427,-52.805,12.012,1_6_2.csv
2018-07-04T12:11:37.087165,-0.741,-0.362,0.084,-148.11,-50.122,4.512,1_6_2.csv
2018-07-04T12:11:37.135295,-0.741,-0.362,0.084,-126.098,-37.378,23.78,1_6_2.csv
2018-07-04T12:11:37.175405,-0.746,-0.371,0.157,-99.268,-22.073,47.622,1_6_2.csv
2018-07-04T12:11:37.227546,-0.746,-0.371,0.157,-86.402,-4.207,64.878,1_6_2.csv
2018-07-04T12:11:37.279185,-0.941,-0.409,0.206,-79.39,16.524,76.829,1_6_2.csv
2018-07-04T12:11:37.322302,-0.941,-0.409,0.206,-70.854,29.085,89.146,1_6_2.csv
2018-07-04T12:11:37.366923,-1.214,-0.542,0.263,-57.622,46.829,87.622,1_6_2.csv
2018-07-04T12:11:37.418062,-1.333,-0.738,0.412,-18.78,48.902,71.22,1_6_2.csv
2018-07-04T12:11:37.461179,-1.333,-0.738,0.412,57.378,35.244,38.537,1_6_2.csv
2018-07-04T12:11:37.509811,-1.04,-0.452,0.48,95.488,13.963,-14.817,1_6_2.csv
2018-07-04T12:11:37.555434,-1.04,-0.452,0.48,92.134,-1.28,-57.134,1_6_2.csv
2018-07-04T12:11:37.599053,-1.107,-0.356,0.283,78.415,-30.0,-66.22,1_6_2.csv
2018-07-04T12:11:37.649690,-1.042,-0.267,0.179,-4.695,-89.085,-79.207,1_6_2.csv
2018-07-04T12:11:37.698823,-1.042,-0.267,0.179,-40.61,-86.159,-105.915,1_6_2.csv
2018-07-04T12:11:37.754975,-0.948,-0.334,0.127,-52.744,-77.195,-122.866,1_6_2.csv
2018-07-04T12:11:37.801602,-0.948,-0.334,0.127,-33.598,-61.524,-120.305,1_6_2.csv
2018-07-04T12:11:37.853743,-0.919,-0.317,0.075,32.256,-30.61,-75.793,1_6_2.csv
2018-07-04T12:11:37.895390,-0.963,-0.237,0.16,36.098,-21.402,-40.732,1_6_2.csv
2018-07-04T12:11:37.942518,-0.963,-0.237,0.16,24.878,-9.634,-1.585,1_6_2.csv
2018-07-04T12:11:37.990147,-1.052,-0.23,0.242,8.415,8.11,37.5,1_6_2.csv
2018-07-04T12:11:38.136544,-1.024,-0.164,0.329,4.756,38.598,85.793,1_6_2.csv
2018-07-04T12:11:38.234810,-0.934,-0.217,0.288,-72.378,1.646,73.171,1_6_2.csv
2018-07-04T12:11:38.276423,-0.934,-0.217,0.288,-107.012,0.122,65.0,1_6_2.csv
2018-07-04T12:11:38.319541,-0.853,-0.333,0.278,-101.22,4.512,60.0,1_6_2.csv
2018-07-04T12:11:38.391736,-0.853,-0.377,0.321,-61.341,21.646,77.012,1_6_2.csv
2018-07-04T12:11:38.459419,-0.988,-0.44,0.468,-22.5,39.512,77.012,1_6_2.csv
2018-07-04T12:11:38.503037,-0.988,-0.44,0.468,3.11,42.988,75.854,1_6_2.csv
2018-07-04T12:11:38.551669,-1.252,-0.54,0.542,10.915,33.963,63.72,1_6_2.csv
2018-07-04T12:11:38.604312,-1.252,-0.54,0.542,19.451,20.549,29.451,1_6_2.csv
2018-07-04T12:11:38.659963,-1.344,-0.492,0.507,81.524,-44.085,-71.707,1_6_2.csv
2018-07-04T12:11:38.707090,-1.179,-0.273,0.353,53.537,-62.439,-117.866,1_6_2.csv
2018-07-04T12:11:38.753717,-1.179,-0.273,0.353,46.402,-69.146,-128.11,1_6_2.csv
2018-07-04T12:11:38.801848,-1.119,-0.292,0.19,58.659,-90.183,-113.598,1_6_2.csv
2018-07-04T12:11:38.850479,-1.119,-0.292,0.19,39.39,-98.415,-104.695,1_6_2.csv
2018-07-04T12:11:38.897167,-0.966,-0.208,0.158,-22.317,-75.549,-122.927,1_6_2.csv
2018-07-04T12:11:39.003465,-0.862,-0.285,0.143,4.146,-45.793,-99.878,1_6_2.csv
2018-07-04T12:11:39.058111,-0.773,-0.206,0.261,67.866,-14.268,-61.159,1_6_2.csv
2018-07-04T12:11:39.115767,-0.87,-0.069,0.278,48.963,-0.488,-32.988,1_6_2.csv
2018-07-04T12:11:39.171418,-0.87,-0.069,0.278,-1.28,15.305,11.829,1_6_2.csv
2018-07-04T12:11:39.212045,-1.059,-0.154,0.249,-70.0,26.037,71.89,1_6_2.csv
2018-07-04T12:11:39.287750,-1.184,-0.328,0.295,-152.805,36.28,157.988,1_6_2.csv
2018-07-04T12:11:39.341897,-1.275,-0.377,0.355,-61.89,54.634,155.061,1_6_2.csv
2018-07-04T12:11:39.392534,-1.275,-0.377,0.355,-19.634,38.171,129.878,1_6_2.csv
2018-07-04T12:11:39.434147,-1.063,-0.229,0.312,-44.268,25.976,94.939,1_6_2.csv
2018-07-04T12:11:39.484283,-1.063,-0.229,0.312,-95.549,12.439,64.878,1_6_2.csv
2018-07-04T12:11:39.565503,-0.882,-0.314,0.262,-165.0,-16.463,51.829,1_6_2.csv
2018-07-04T12:11:39.619148,-0.762,-0.468,0.209,-146.098,-10.244,51.707,1_6_2.csv
2018-07-04T12:11:39.669284,-0.91,-0.577,0.238,-115.732,2.561,48.537,1_6_2.csv
2018-07-04T12:11:39.713905,-0.91,-0.577,0.238,-84.329,23.841,44.268,1_6_2.csv
2018-07-04T12:11:39.754515,-1.056,-0.616,0.337,-45.427,32.256,26.28,1_6_2.csv
2018-07-04T12:11:39.820194,-1.266,-0.555,0.436,6.646,43.72,-49.573,1_6_2.csv
2018-07-04T12:11:39.864814,-1.266,-0.555,0.436,24.207,29.634,-68.415,1_6_2.csv
2018-07-04T12:11:39.910940,-1.28,-0.433,0.445,47.622,-0.305,-82.988,1_6_2.csv
2018-07-04T12:11:39.976116,-1.28,-0.433,0.445,47.439,-31.768,-106.646,1_6_2.csv
2018-07-04T12:11:40.020737,-1.266,-0.34,0.326,68.902,-53.171,-111.402,1_6_2.csv
2018-07-04T12:11:40.066862,-1.203,-0.24,0.213,59.207,-86.646,-96.829,1_6_2.csv
2018-07-04T12:11:40.117499,-1.203,-0.24,0.213,-1.646,-95.976,-98.232,1_6_2.csv
2018-07-04T12:11:40.162622,-0.978,-0.226,0.192,-40.732,-89.207,-111.768,1_6_2.csv
2018-07-04T12:11:40.208245,-0.978,-0.226,0.192,-38.171,-84.512,-114.268,1_6_2.csv
2018-07-04T12:11:40.257880,-0.787,-0.235,0.178,-12.683,-75.061,-97.683,1_6_2.csv
2018-07-04T12:11:40.302000,-0.65,-0.116,0.225,4.146,-54.817,-32.012,1_6_2.csv
2018-07-04T12:11:40.349629,-0.65,-0.116,0.225,-18.171,-38.659,20.061,1_6_2.csv
2018-07-04T12:11:40.397257,-0.802,-0.168,0.211,-41.22,-19.939,87.073,1_6_2.csv
2018-07-04T12:11:40.442380,-0.802,-0.168,0.211,-73.232,-3.293,161.646,1_6_2.csv
2018-07-04T12:11:40.490510,-1.43,-0.333,0.138,-97.561,9.939,232.683,1_6_2.csv
2018-07-04T12:11:40.551174,-1.574,-0.594,0.135,-189.878,-23.354,277.256,1_6_2.csv
2018-07-04T12:11:40.602909,-1.574,-0.594,0.135,-199.512,-60.732,219.451,1_6_2.csv
2018-07-04T12:11:40.649035,-1.18,-0.472,0.087,-179.817,-45.793,120.854,1_6_2.csv
2018-07-04T12:11:40.698669,-1.18,-0.472,0.087,-130.671,-41.159,37.683,1_6_2.csv
2018-07-04T12:11:40.745296,-0.901,-0.407,0.012,-141.22,-53.11,-12.378,1_6_2.csv
2018-07-04T12:11:40.802450,-0.669,-0.354,0.008,-165.915,-56.829,0.549,1_6_2.csv
2018-07-04T12:11:40.857099,-0.669,-0.354,0.008,-173.476,-51.951,20.427,1_6_2.csv
2018-07-04T12:11:40.933934,-0.6,-0.367,0.075,-166.159,-23.049,73.476,1_6_2.csv
2018-07-04T12:11:40.980059,-0.905,-0.614,0.196,-153.354,12.988,104.146,1_6_2.csv
2018-07-04T12:11:41.038718,-1.258,-0.9,0.343,35.549,75.305,134.329,1_6_2.csv
2018-07-04T12:11:41.098881,-1.258,-0.9,0.343,146.22,87.927,80.671,1_6_2.csv
2018-07-04T12:11:41.157100,-1.367,-0.51,0.585,225.854,53.78,-74.207,1_6_2.csv
2018-07-04T12:11:41.217263,-1.146,-0.2,0.599,118.11,-10.793,-105.488,1_6_2.csv
2018-07-04T12:11:41.270408,-1.15,-0.41,0.28,-14.817,-59.756,-107.134,1_6_2.csv
2018-07-04T12:11:41.319541,-1.15,-0.41,0.28,36.402,-77.439,-92.683,1_6_2.csv
2018-07-04T12:11:41.364161,-1.125,-0.299,0.183,59.878,-86.22,-86.037,1_6_2.csv
2018-07-04T12:11:41.436357,-1.011,-0.255,0.093,14.817,-76.402,-96.951,1_6_2.csv
2018-07-04T12:11:41.491005,-1.011,-0.255,0.093,3.963,-70.793,-95.122,1_6_2.csv
2018-07-04T12:11:41.536629,-0.81,-0.233,0.052,2.073,-62.866,-86.22,1_6_2.csv
2018-07-04T12:11:41.582754,-0.81,-0.233,0.052,-4.756,-51.89,-75.305,1_6_2.csv
2018-07-04T12:11:41.634895,-0.755,-0.182,0.084,-32.5,-19.024,-15.915,1_6_2.csv
2018-07-04T12:11:41.678012,-0.849,-0.211,0.156,-44.146,1.585,44.329,1_6_2.csv
2018-07-04T12:11:41.724639,-0.849,-0.211,0.156,-74.207,24.695,119.939,1_6_2.csv
2018-07-04T12:11:41.792322,-1.201,-0.391,0.244,-113.476,51.646,229.451,1_6_2.csv
2018-07-04T12:11:41.849490,-1.422,-0.568,0.383,-32.439,60.793,228.537,1_6_2.csv
2018-07-04T12:11:41.896618,-1.422,-0.568,0.383,66.768,62.5,182.134,1_6_2.csv
2018-07-04T12:11:41.962825,-1.089,-0.269,0.297,55.305,30.305,34.085,1_6_2.csv
2018-07-04T12:11:42.004939,-0.806,-0.147,0.228,-33.049,11.829,-11.951,1_6_2.csv
2018-07-04T12:11:42.069113,-0.71,-0.366,0.227,-146.159,-12.866,-25.244,1_6_2.csv
2018-07-04T12:11:42.130279,-0.71,-0.366,0.227,-140.671,-13.11,-9.085,1_6_2.csv
2018-07-04T12:11:42.197461,-0.792,-0.384,0.238,-83.72,12.195,6.707,1_6_2.csv
2018-07-04T12:11:42.298736,-1.152,-0.425,0.347,-62.378,20.366,15.671,1_6_2.csv
2018-07-04T12:11:42.350375,-1.43,-0.512,0.446,19.39,11.829,-3.902,1_6_2.csv
2018-07-04T12:11:42.395498,-1.19,-0.387,0.334,83.902,-11.951,-37.866,1_6_2.csv
2018-07-04T12:11:42.443128,-1.19,-0.387,0.334,104.573,-20.854,-83.171,1_6_2.csv
2018-07-04T12:11:42.500783,-1.101,-0.245,0.271,127.012,-33.902,-98.354,1_6_2.csv
2018-07-04T12:11:42.551922,-0.953,-0.275,0.156,46.585,-76.22,-68.415,1_6_2.csv
2018-07-04T12:11:42.603244,-0.953,-0.275,0.156,2.927,-75.793,-61.768,1_6_2.csv
2018-07-04T12:11:42.647415,-0.945,-0.296,0.071,-12.744,-76.159,-55.915,1_6_2.csv
2018-07-04T12:11:42.694042,-0.945,-0.296,0.071,-23.476,-74.939,-51.585,1_6_2.csv
2018-07-04T12:11:42.740167,-0.869,-0.27,0.07,-37.317,-68.537,-50.854,1_6_2.csv
2018-07-04T12:11:42.798325,-0.914,-0.275,0.12,-48.659,-41.707,-43.72,1_6_2.csv
2018-07-04T12:11:42.866008,-0.914,-0.275,0.12,-32.439,-27.317,-20.305,1_6_2.csv
2018-07-04T12:11:42.912639,-0.974,-0.258,0.207,-17.195,-9.207,19.512,1_6_2.csv
2018-07-04T12:11:42.959266,-1.052,-0.265,0.362,-24.878,37.927,119.024,1_6_2.csv
2018-07-04T12:11:43.004889,-1.052,-0.265,0.362,-21.28,45.61,145.366,1_6_2.csv
2018-07-04T12:11:43.053019,-1.097,-0.236,0.392,-16.402,48.232,145.305,1_6_2.csv
2018-07-04T12:11:43.105161,-1.097,-0.236,0.392,-37.622,48.476,129.817,1_6_2.csv
2018-07-04T12:11:43.148779,-1.095,-0.26,0.329,-56.89,17.927,100.915,1_6_2.csv
2018-07-04T12:11:43.193902,-1.095,-0.26,0.329,-95.305,-10.366,65.61,1_6_2.csv
2018-07-04T12:11:43.241029,-0.828,-0.332,0.253,-136.22,-19.939,12.622,1_6_2.csv
2018-07-04T12:11:43.286152,-0.755,-0.406,0.23,-121.342,-19.451,10.488,1_6_2.csv
2018-07-04T12:11:43.333279,-0.755,-0.406,0.23,-94.451,-14.268,17.622,1_6_2.csv
2018-07-04T12:11:43.388930,-0.787,-0.412,0.247,-70.976,1.524,25.976,1_6_2.csv
2018-07-04T12:11:43.443578,-1.096,-0.495,0.347,-30.305,43.537,38.72,1_6_2.csv
2018-07-04T12:11:43.488701,-1.096,-0.495,0.347,1.463,54.207,36.585,1_6_2.csv
2018-07-04T12:11:43.554880,-1.415,-0.692,0.464,32.195,58.354,13.963,1_6_2.csv
2018-07-04T12:11:43.659014,-1.24,-0.381,0.469,94.268,-36.829,-105.915,1_6_2.csv
2018-07-04T12:11:43.708648,-1.152,-0.262,0.377,65.549,-55.549,-116.098,1_6_2.csv
2018-07-04T12:11:43.758283,-1.053,-0.258,0.196,33.78,-93.598,-86.28,1_6_2.csv
2018-07-04T12:11:43.802556,-1.053,-0.258,0.196,1.89,-90.915,-84.573,1_6_2.csv
2018-07-04T12:11:43.849684,-0.971,-0.238,0.137,-26.768,-89.085,-85.488,1_6_2.csv
2018-07-04T12:11:43.897814,-0.971,-0.238,0.137,-45.549,-87.012,-83.293,1_6_2.csv
2018-07-04T12:11:43.943939,-0.854,-0.237,0.096,-56.585,-85.915,-79.634,1_6_2.csv
2018-07-04T12:11:43.989563,-0.854,-0.237,0.096,-66.707,-71.159,-73.476,1_6_2.csv
2018-07-04T12:11:44.064265,-0.733,-0.266,0.109,-7.866,-4.939,-8.476,1_6_2.csv
2018-07-04T12:11:44.118412,-0.769,-0.236,0.249,38.902,40.427,55.488,1_6_2.csv
2018-07-04T12:11:44.166543,-1.185,-0.227,0.331,32.927,101.098,186.707,1_6_2.csv
2018-07-04T12:11:44.214172,-1.185,-0.227,0.331,-2.256,95.549,221.768,1_6_2.csv
2018-07-04T12:11:44.256787,-1.47,-0.273,0.431,-49.512,80.671,215.549,1_6_2.csv
2018-07-04T12:11:44.302411,-1.47,-0.273,0.431,-75.061,45.915,156.585,1_6_2.csv
2018-07-04T12:11:44.362574,-1.159,-0.191,0.364,-112.988,-30.305,-2.622,1_6_2.csv
2018-07-04T12:11:44.411707,-0.81,-0.296,0.241,-171.707,-56.524,-26.585,1_6_2.csv
2018-07-04T12:11:44.461844,-0.81,-0.296,0.241,-206.342,-66.646,-18.476,1_6_2.csv
2018-07-04T12:11:44.506464,-0.64,-0.363,0.152,-189.878,-62.073,2.195,1_6_2.csv
2018-07-04T12:11:44.553091,-0.64,-0.363,0.152,-154.329,-46.951,26.402,1_6_2.csv
2018-07-04T12:11:44.599216,-0.696,-0.374,0.167,-130.427,-22.195,50.244,1_6_2.csv
2018-07-04T12:11:44.652861,-1.044,-0.542,0.292,-78.78,37.561,94.146,1_6_2.csv
2018-07-04T12:11:44.693973,-1.044,-0.542,0.292,-29.146,57.439,95.122,1_6_2.csv
2018-07-04T12:11:44.741602,-1.328,-0.606,0.396,6.402,63.049,62.866,1_6_2.csv
2018-07-04T12:11:44.804299,-1.25,-0.457,0.515,55.427,28.415,-41.341,1_6_2.csv
2018-07-04T12:11:44.849923,-1.25,-0.457,0.515,42.378,-2.317,-90.0,1_6_2.csv
2018-07-04T12:11:44.896048,-1.133,-0.373,0.436,50.244,-12.866,-115.976,1_6_2.csv
2018-07-04T12:11:44.948690,-1.133,-0.373,0.436,97.378,-28.049,-109.878,1_6_2.csv
2018-07-04T12:11:45.028407,-1.167,-0.22,0.281,48.72,-86.524,-81.707,1_6_2.csv
2018-07-04T12:11:45.068014,-1.001,-0.159,0.212,-17.256,-93.415,-89.756,1_6_2.csv
2018-07-04T12:11:45.115644,-1.001,-0.159,0.212,-59.878,-92.439,-96.951,1_6_2.csv
2018-07-04T12:11:45.170854,-0.87,-0.278,0.139,-38.171,-70.793,-77.134,1_6_2.csv
2018-07-04T12:11:45.208957,-0.754,-0.197,0.166,-15.671,-56.89,-52.5,1_6_2.csv
2018-07-04T12:11:45.255584,-0.754,-0.197,0.166,-11.707,-38.659,-16.402,1_6_2.csv
2018-07-04T12:11:45.304717,-0.826,-0.171,0.213,-18.171,-16.89,33.598,1_6_2.csv
2018-07-04T12:11:45.348837,-0.826,-0.171,0.213,-31.829,1.768,91.707,1_6_2.csv
2018-07-04T12:11:45.396967,-1.176,-0.241,0.231,-59.573,19.329,148.476,1_6_2.csv
2018-07-04T12:11:45.452116,-1.347,-0.412,0.32,-103.476,31.098,222.256,1_6_2.csv
2018-07-04T12:11:45.504259,-1.347,-0.412,0.32,-92.317,5.915,209.512,1_6_2.csv
2018-07-04T12:11:45.552388,-1.19,-0.405,0.253,-100.427,5.244,157.805,1_6_2.csv
2018-07-04T12:11:45.601020,-1.19,-0.405,0.253,-102.134,-19.634,82.866,1_6_2.csv
2018-07-04T12:11:45.645140,-0.937,-0.248,0.156,-127.683,-43.11,15.122,1_6_2.csv
2018-07-04T12:11:45.692267,-0.759,-0.35,0.041,-229.329,-62.439,-46.159,1_6_2.csv
2018-07-04T12:11:45.745411,-0.759,-0.35,0.041,-224.756,-60.366,-36.829,1_6_2.csv
2018-07-04T12:11:45.790534,-0.629,-0.392,0.093,-186.524,-50.915,-9.024,1_6_2.csv
2018-07-04T12:11:45.832147,-0.629,-0.392,0.093,-149.878,-29.878,26.22,1_6_2.csv
2018-07-04T12:11:45.884288,-0.845,-0.426,0.2,-132.317,0.915,62.439,1_6_2.csv
2018-07-04T12:11:45.926903,-0.845,-0.426,0.2,-107.866,35.122,100.915,1_6_2.csv
2018-07-04T12:11:45.975535,-1.271,-0.702,0.406,10.976,66.646,138.049,1_6_2.csv
2018-07-04T12:11:46.146510,-0.994,-0.154,0.569,-10.915,-32.927,-105.122,1_6_2.csv
2018-07-04T12:11:46.195142,-1.125,-0.459,0.294,-26.89,-48.963,-91.768,1_6_2.csv
2018-07-04T12:11:46.239763,-1.125,-0.459,0.294,7.317,-87.561,-66.89,1_6_2.csv
2018-07-04T12:11:46.303436,-1.007,-0.301,0.247,-0.427,-82.805,-78.659,1_6_2.csv
2018-07-04T12:11:46.384156,-0.938,-0.24,0.162,-30.732,-68.293,-110.671,1_6_2.csv
2018-07-04T12:11:46.428275,-0.864,-0.266,0.072,-20.366,-59.756,-104.634,1_6_2.csv
2018-07-04T12:11:46.482421,-0.864,-0.266,0.072,-12.805,-51.524,-85.061,1_6_2.csv
2018-07-04T12:11:46.529047,-0.815,-0.216,0.131,-21.22,-37.195,-52.5,1_6_2.csv
2018-07-04T12:11:46.568655,-0.815,-0.216,0.131,-28.293,-18.78,-9.146,1_6_2.csv
2018-07-04T12:11:46.618353,-0.833,-0.219,0.245,-33.72,33.354,106.098,1_6_2.csv
2018-07-04T12:11:46.662472,-1.171,-0.343,0.377,-42.5,63.78,164.817,1_6_2.csv
2018-07-04T12:11:46.710180,-1.171,-0.343,0.377,-24.756,79.146,205.854,1_6_2.csv
2018-07-04T12:11:46.761820,-1.143,-0.421,0.46,6.768,64.451,208.232,1_6_2.csv
2018-07-04T12:11:46.803934,-1.143,-0.421,0.46,16.524,55.854,169.146,1_6_2.csv
2018-07-04T12:11:46.850060,-1.111,-0.304,0.301,27.256,41.037,99.268,1_6_2.csv
2018-07-04T12:11:46.896184,-0.892,-0.231,0.248,-65.976,-15.854,-28.354,1_6_2.csv
2018-07-04T12:11:46.943312,-0.892,-0.231,0.248,-119.451,-24.817,-60.061,1_6_2.csv
2018-07-04T12:11:47.001470,-0.833,-0.363,0.249,-144.573,-25.244,-68.293,1_6_2.csv
2018-07-04T12:11:47.045088,-0.833,-0.363,0.249,-129.085,-22.927,-59.939,1_6_2.csv
2018-07-04T12:11:47.097730,-0.762,-0.322,0.284,-71.646,4.939,-27.439,1_6_2.csv
2018-07-04T12:11:47.145861,-0.981,-0.368,0.419,-39.512,26.646,-2.256,1_6_2.csv
2018-07-04T12:11:47.193991,-0.981,-0.368,0.419,9.451,46.402,29.634,1_6_2.csv
2018-07-04T12:11:47.238614,-1.269,-0.359,0.52,49.146,49.695,50.427,1_6_2.csv
2018-07-04T12:11:47.287244,-1.269,-0.359,0.52,51.524,35.366,55.0,1_6_2.csv
2018-07-04T12:11:47.338383,-1.256,-0.371,0.434,36.768,-27.744,21.037,1_6_2.csv
2018-07-04T12:11:47.383505,-1.186,-0.341,0.277,26.463,-52.012,-11.341,1_6_2.csv
2018-07-04T12:11:47.428627,-1.186,-0.341,0.277,10.671,-78.232,-36.159,1_6_2.csv
2018-07-04T12:11:47.476256,-0.99,-0.298,0.19,-35.122,-98.537,-56.829,1_6_2.csv
2018-07-04T12:11:47.521397,-0.99,-0.298,0.19,-70.305,-98.232,-81.89,1_6_2.csv
2018-07-04T12:11:47.568022,-0.91,-0.316,0.134,-79.39,-88.354,-99.756,1_6_2.csv
2018-07-04T12:11:47.621229,-0.849,-0.288,0.118,-28.841,-69.268,-84.268,1_6_2.csv
2018-07-04T12:11:47.787179,-1.021,-0.216,0.263,-1.524,18.293,58.537,1_6_2.csv
2018-07-04T12:11:47.832802,-1.021,-0.216,0.263,12.378,50.488,107.744,1_6_2.csv
2018-07-04T12:11:47.880932,-1.11,-0.269,0.399,7.744,73.11,144.512,1_6_2.csv
2018-07-04T12:11:47.928562,-1.11,-0.269,0.399,11.89,69.695,151.463,1_6_2.csv
2018-07-04T12:11:47.974186,-1.065,-0.254,0.388,11.22,75.793,133.049,1_6_2.csv
2018-07-04T12:11:48.030337,-1.009,-0.197,0.325,-9.512,25.976,56.22,1_6_2.csv
2018-07-04T12:11:48.069456,-1.009,-0.197,0.325,-65.793,3.598,19.268,1_6_2.csv
2018-07-04T12:11:48.115079,-0.817,-0.25,0.339,-107.805,-2.134,-8.841,1_6_2.csv
2018-07-04T12:11:48.162708,-0.817,-0.25,0.339,-111.159,-2.256,-16.22,1_6_2.csv
2018-07-04T12:11:48.208833,-0.739,-0.362,0.331,-90.915,-2.927,-4.573,1_6_2.csv
2018-07-04T12:11:48.253955,-0.739,-0.362,0.331,-60.549,7.988,14.146,1_6_2.csv
2018-07-04T12:11:48.308603,-0.918,-0.399,0.349,1.159,41.768,38.659,1_6_2.csv
2018-07-04T12:11:48.350216,-1.239,-0.465,0.401,20.671,41.524,40.732,1_6_2.csv
2018-07-04T12:11:48.395339,-1.239,-0.465,0.401,27.378,29.695,18.537,1_6_2.csv
2018-07-04T12:11:48.444472,-1.319,-0.402,0.414,38.78,17.134,-18.354,1_6_2.csv
2018-07-04T12:11:48.488591,-1.319,-0.402,0.414,45.061,-11.037,-58.476,1_6_2.csv
2018-07-04T12:11:48.535779,-1.056,-0.308,0.379,30.366,-31.402,-94.207,1_6_2.csv
2018-07-04T12:11:48.589424,-1.169,-0.428,0.229,78.354,-37.622,-68.598,1_6_2.csv
2018-07-04T12:11:48.647582,-1.169,-0.428,0.229,82.561,-69.146,-28.11,1_6_2.csv
2018-07-04T12:11:48.692202,-1.042,-0.304,0.172,36.707,-79.085,-20.793,1_6_2.csv
2018-07-04T12:11:48.740835,-1.042,-0.304,0.172,0.305,-74.268,-49.329,1_6_2.csv
2018-07-04T12:11:48.802501,-0.946,-0.314,0.135,-15.61,-57.622,-113.598,1_6_2.csv
2018-07-04T12:11:48.853640,-0.923,-0.303,0.093,16.098,-44.512,-128.171,1_6_2.csv
2018-07-04T12:11:48.909291,-0.858,-0.152,0.195,61.402,-15.671,-99.451,1_6_2.csv
2018-07-04T12:11:48.958424,-0.858,-0.152,0.195,48.598,-7.134,-52.988,1_6_2.csv
2018-07-04T12:11:49.004549,-0.899,-0.081,0.289,3.476,12.561,9.451,1_6_2.csv
2018-07-04T12:11:49.112843,-0.974,-0.199,0.416,-48.537,64.329,139.268,1_6_2.csv
2018-07-04T12:11:49.161976,-1.197,-0.2,0.399,-10.976,72.439,140.549,1_6_2.csv
2018-07-04T12:11:49.208654,-1.197,-0.2,0.399,-23.354,56.707,135.671,1_6_2.csv
2018-07-04T12:11:49.264306,-1.182,-0.224,0.271,-85.305,25.915,126.281,1_6_2.csv
2018-07-04T12:11:49.302910,-1.182,-0.224,0.271,-146.585,1.037,101.951,1_6_2.csv
2018-07-04T12:11:49.350038,-0.961,-0.33,0.193,-189.634,-14.329,57.439,1_6_2.csv
2018-07-04T12:11:49.399171,-0.818,-0.44,0.141,-157.622,-11.768,50.976,1_6_2.csv
2018-07-04T12:11:49.443412,-0.818,-0.44,0.141,-113.11,-3.049,49.878,1_6_2.csv
2018-07-04T12:11:49.490038,-0.838,-0.419,0.168,-80.854,7.805,47.805,1_6_2.csv
2018-07-04T12:11:49.560228,-1.016,-0.464,0.313,-64.39,30.976,45.366,1_6_2.csv
2018-07-04T12:11:49.606354,-1.016,-0.464,0.313,-72.317,34.878,31.707,1_6_2.csv
2018-07-04T12:11:49.651476,-1.237,-0.541,0.414,-78.415,38.598,1.524,1_6_2.csv
2018-07-04T12:11:49.695094,-1.237,-0.541,0.414,-58.78,44.756,-25.061,1_6_2.csv
2018-07-04T12:11:49.745731,-1.31,-0.592,0.548,24.756,34.39,-35.671,1_6_2.csv
2018-07-04T12:11:49.787845,-1.31,-0.592,0.548,92.683,-1.402,-57.439,1_6_2.csv
2018-07-04T12:11:49.844499,-1.253,-0.25,0.513,64.512,-55.61,-110.0,1_6_2.csv
2018-07-04T12:11:49.897643,-1.355,-0.161,0.285,25.427,-105.061,-111.524,1_6_2.csv
2018-07-04T12:11:49.944269,-1.355,-0.161,0.285,-30.427,-144.268,-120.793,1_6_2.csv
2018-07-04T12:11:49.993450,-1.01,-0.182,0.172,-85.732,-124.512,-142.439,1_6_2.csv
2018-07-04T12:11:50.036067,-0.828,-0.295,0.101,-57.439,-102.317,-122.134,1_6_2.csv
2018-07-04T12:11:50.085199,-0.828,-0.295,0.101,-12.073,-86.037,-81.829,1_6_2.csv
2018-07-04T12:11:50.142968,-0.661,-0.179,0.109,5.366,-65.061,-37.622,1_6_2.csv
2018-07-04T12:11:50.195225,-0.691,-0.175,0.162,-26.037,-15.0,50.671,1_6_2.csv
2018-07-04T12:11:50.241350,-0.691,-0.175,0.162,-27.805,12.683,109.329,1_6_2.csv
2018-07-04T12:11:50.307115,-1.125,-0.41,0.118,-15.061,37.866,180.732,1_6_2.csv
2018-07-04T12:11:50.353240,-1.522,-0.078,0.274,57.561,83.354,295.0,1_6_2.csv
2018-07-04T12:11:50.398363,-1.522,-0.078,0.274,-114.512,92.866,234.756,1_6_2.csv
2018-07-04T12:11:50.481087,-1.478,-0.218,0.293,-259.146,14.39,77.805,1_6_2.csv
2018-07-04T12:11:50.537239,-0.979,-0.389,0.033,-224.451,-22.317,30.366,1_6_2.csv
2018-07-04T12:11:50.582863,-0.979,-0.389,0.033,-196.646,-37.805,2.805,1_6_2.csv
2018-07-04T12:11:50.638012,-0.699,-0.44,0.068,-194.39,-55.183,20.488,1_6_2.csv
2018-07-04T12:11:50.682633,-0.618,-0.514,0.095,-182.866,-41.159,45.671,1_6_2.csv
2018-07-04T12:11:50.725750,-0.618,-0.514,0.095,-151.524,-10.732,65.0,1_6_2.csv
2018-07-04T12:11:50.776387,-0.888,-0.713,0.23,-13.232,40.61,79.451,1_6_2.csv
2018-07-04T12:11:50.834044,-1.336,-0.28,0.497,184.817,111.402,16.951,1_6_2.csv
2018-07-04T12:11:50.880670,-1.336,-0.28,0.497,90.183,81.707,-38.78,1_6_2.csv
2018-07-04T12:11:50.944844,-1.354,-0.187,0.595,-43.049,31.89,-58.293,1_6_2.csv
2018-07-04T12:11:50.995982,-1.149,-0.347,0.477,-12.012,-29.695,-103.537,1_6_2.csv
2018-07-04T12:11:51.053138,-1.149,-0.347,0.477,67.439,-32.195,-114.817,1_6_2.csv
2018-07-04T12:11:51.115807,-1.295,-0.275,0.268,82.195,-83.78,-94.207,1_6_2.csv
2018-07-04T12:11:51.185496,-1.084,-0.195,0.144,6.707,-99.207,-89.024,1_6_2.csv
2018-07-04T12:11:51.224602,-1.084,-0.195,0.144,-36.098,-93.902,-96.646,1_6_2.csv
2018-07-04T12:11:51.270226,-0.845,-0.306,0.073,-47.988,-88.171,-99.634,1_6_2.csv
2018-07-04T12:11:51.326879,-0.691,-0.209,0.12,10.549,-58.171,-40.122,1_6_2.csv
2018-07-04T12:11:51.365987,-0.691,-0.209,0.12,24.268,-39.451,-9.451,1_6_2.csv
2018-07-04T12:11:51.413113,-0.764,-0.123,0.238,-2.256,-13.537,20.244,1_6_2.csv
2018-07-04T12:11:51.461786,-0.764,-0.123,0.238,-33.841,11.89,63.902,1_6_2.csv
2018-07-04T12:11:51.505404,-1.114,-0.208,0.256,-44.39,36.89,112.744,1_6_2.csv
2018-07-04T12:11:51.575092,-1.477,-0.382,0.262,-79.512,66.768,184.024,1_6_2.csv
2018-07-04T12:11:51.627735,-1.477,-0.382,0.262,-81.159,50.366,180.976,1_6_2.csv
2018-07-04T12:11:51.678448,-1.147,-0.437,0.282,-22.805,22.683,95.732,1_6_2.csv
2018-07-04T12:11:51.726694,-0.998,-0.242,0.22,-21.22,-0.366,47.195,1_6_2.csv
2018-07-04T12:11:51.838497,-0.796,-0.214,0.159,-191.403,-49.451,-21.646,1_6_2.csv
2018-07-04T12:11:51.886128,-0.682,-0.353,0.089,-208.903,-43.902,-18.354,1_6_2.csv
2018-07-04T12:11:51.929745,-0.682,-0.353,0.089,-199.634,-32.134,0.976,1_6_2.csv
2018-07-04T12:11:51.980883,-0.72,-0.492,0.148,-170.61,-7.012,29.695,1_6_2.csv
2018-07-04T12:11:52.020992,-0.72,-0.492,0.148,-102.439,22.683,55.122,1_6_2.csv
2018-07-04T12:11:52.068621,-1.019,-0.652,0.423,-1.768,65.915,78.049,1_6_2.csv
2018-07-04T12:11:52.116752,-1.019,-0.652,0.423,117.378,91.829,82.927,1_6_2.csv
2018-07-04T12:11:52.162877,-1.434,-0.484,0.501,168.842,50.732,-2.073,1_6_2.csv
2018-07-04T12:11:52.210505,-1.404,-0.269,0.386,105.793,-1.159,-48.659,1_6_2.csv
2018-07-04T12:11:52.260140,-1.404,-0.269,0.386,61.037,-49.695,-85.671,1_6_2.csv
2018-07-04T12:11:52.302256,-1.124,-0.293,0.308,57.744,-66.646,-109.024,1_6_2.csv
2018-07-04T12:11:52.350886,-1.124,-0.293,0.308,73.293,-72.317,-104.451,1_6_2.csv
2018-07-04T12:11:52.398014,-1.046,-0.326,0.212,81.341,-84.268,-77.622,1_6_2.csv
2018-07-04T12:11:52.444139,-0.963,-0.25,0.099,36.463,-83.78,-46.768,1_6_2.csv
2018-07-04T12:11:52.491768,-0.963,-0.25,0.099,5.976,-83.11,-48.72,1_6_2.csv
2018-07-04T12:11:52.561457,-0.846,-0.272,0.01,-18.78,-81.098,-51.768,1_6_2.csv
2018-07-04T12:11:52.603070,-0.791,-0.27,0.042,-39.756,-46.768,-57.5,1_6_2.csv
2018-07-04T12:11:52.648192,-0.791,-0.27,0.042,-35.732,-20.732,-44.817,1_6_2.csv
2018-07-04T12:11:52.699832,-0.891,-0.271,0.143,-29.634,-2.073,-17.256,1_6_2.csv
2018-07-04T12:11:52.745455,-0.891,-0.271,0.143,-24.573,22.866,26.28,1_6_2.csv
2018-07-04T12:11:52.804115,-1.092,-0.32,0.309,-25.244,72.5,125.732,1_6_2.csv
2018-07-04T12:11:52.864278,-1.022,-0.317,0.66,24.329,81.22,143.659,1_6_2.csv
2018-07-04T12:11:52.911907,-1.022,-0.317,0.66,80.488,88.11,120.366,1_6_2.csv
2018-07-04T12:11:52.959034,-1.134,-0.095,0.397,84.634,79.878,77.927,1_6_2.csv
2018-07-04T12:11:53.006664,-0.982,-0.086,0.25,-54.573,-6.098,20.732,1_6_2.csv
2018-07-04T12:11:53.068832,-0.982,-0.086,0.25,-148.049,-24.573,4.024,1_6_2.csv
2018-07-04T12:11:53.119469,-0.725,-0.394,0.292,-206.951,-26.646,-2.439,1_6_2.csv
2018-07-04T12:11:53.202694,-0.639,-0.498,0.271,-123.354,3.476,39.024,1_6_2.csv
2018-07-04T12:11:53.240297,-0.639,-0.498,0.271,-33.841,27.256,57.195,1_6_2.csv
2018-07-04T12:11:53.301965,-0.975,-0.483,0.349,49.695,53.841,62.256,1_6_2.csv
2018-07-04T12:11:53.350596,-1.451,-0.473,0.456,37.561,44.329,33.963,1_6_2.csv
2018-07-04T12:11:53.400732,-1.451,-0.473,0.456,23.049,24.146,-17.561,1_6_2.csv
2018-07-04T12:11:53.446395,-1.42,-0.338,0.336,-7.012,-47.073,-122.561,1_6_2.csv
2018-07-04T12:11:53.498036,-1.332,-0.308,0.235,-10.732,-55.488,-150.915,1_6_2.csv
2018-07-04T12:11:53.552182,-1.332,-0.308,0.235,11.463,-76.768,-151.402,1_6_2.csv
2018-07-04T12:11:53.600312,-1.043,-0.264,0.224,15.854,-91.159,-132.805,1_6_2.csv
2018-07-04T12:11:53.648443,-1.043,-0.264,0.224,6.524,-83.415,-117.317,1_6_2.csv
2018-07-04T12:11:53.693565,-0.838,-0.191,0.198,25.0,-64.878,-88.72,1_6_2.csv
2018-07-04T12:11:53.740693,-0.748,-0.121,0.14,28.78,-65.915,-58.537,1_6_2.csv
2018-07-04T12:11:53.809379,-0.623,-0.136,0.14,-50.671,-62.256,23.11,1_6_2.csv
2018-07-04T12:11:53.851994,-0.623,-0.136,0.14,-87.5,-42.134,68.841,1_6_2.csv
2018-07-04T12:11:53.896155,-0.891,-0.32,0.111,-104.756,-20.854,121.89,1_6_2.csv
2018-07-04T12:11:53.946792,-0.891,-0.32,0.111,-115.366,1.829,181.707,1_6_2.csv
2018-07-04T12:11:53.992192,-1.531,-0.532,0.087,-140.549,20.488,236.159,1_6_2.csv
2018-07-04T12:11:54.052857,-1.362,-0.58,0.205,-152.378,-13.049,216.524,1_6_2.csv
2018-07-04T12:11:54.106000,-1.362,-0.58,0.205,-78.78,-9.634,135.366,1_6_2.csv
2018-07-04T12:11:54.149117,-1.081,-0.296,0.154,-53.902,-12.622,49.39,1_6_2.csv
2018-07-04T12:11:54.198250,-1.081,-0.296,0.154,-103.842,-28.537,-11.341,1_6_2.csv
2018-07-04T12:11:54.247384,-0.768,-0.318,0.032,-180.122,-52.5,-36.463,1_6_2.csv
2018-07-04T12:11:54.301029,-0.513,-0.435,0.039,-212.988,-47.744,-13.415,1_6_2.csv
2018-07-04T12:11:54.351165,-0.513,-0.435,0.039,-147.012,-29.329,28.354,1_6_2.csv
2018-07-04T12:11:54.412832,-0.674,-0.482,0.16,-70.915,31.463,125.244,1_6_2.csv
2018-07-04T12:11:54.459960,-1.382,-0.799,0.395,-52.561,62.622,137.561,1_6_2.csv
2018-07-04T12:11:54.568755,-1.562,-0.564,0.565,99.634,65.488,11.463,1_6_2.csv
2018-07-04T12:11:54.620896,-1.143,-0.184,0.553,107.622,-25.793,-131.89,1_6_2.csv
2018-07-04T12:11:54.665517,-1.143,-0.184,0.553,26.585,-64.695,-137.134,1_6_2.csv
2018-07-04T12:11:54.714149,-1.209,-0.28,0.304,8.72,-87.744,-117.561,1_6_2.csv
2018-07-04T12:11:54.765789,-1.209,-0.28,0.304,26.585,-112.073,-94.329,1_6_2.csv
2018-07-04T12:11:54.818432,-1.038,-0.266,0.254,-9.39,-106.585,-65.488,1_6_2.csv
2018-07-04T12:11:54.864557,-0.92,-0.268,0.132,-29.817,-95.122,-65.427,1_6_2.csv
2018-07-04T12:11:54.914191,-0.92,-0.268,0.132,-32.073,-82.988,-68.049,1_6_2.csv
2018-07-04T12:11:54.959314,-0.825,-0.258,0.088,-13.049,-71.402,-65.915,1_6_2.csv
2018-07-04T12:11:55.004938,-0.825,-0.258,0.088,-6.707,-60.915,-57.5,1_6_2.csv
2018-07-04T12:11:55.058622,-0.786,-0.194,0.153,-30.671,-23.537,-8.415,1_6_2.csv
2018-07-04T12:11:55.099733,-0.876,-0.246,0.229,-36.402,-0.061,42.378,1_6_2.csv
2018-07-04T12:11:55.148425,-0.876,-0.246,0.229,-39.268,23.476,107.317,1_6_2.csv
2018-07-04T12:11:55.196123,-1.246,-0.359,0.353,-57.622,48.841,173.903,1_6_2.csv
2018-07-04T12:11:55.240243,-1.246,-0.359,0.353,-52.5,54.817,218.781,1_6_2.csv
2018-07-04T12:11:55.288875,-1.237,-0.275,0.473,-32.866,35.976,213.963,1_6_2.csv
2018-07-04T12:11:55.343021,-1.243,-0.138,0.186,-95.549,-2.5,116.402,1_6_2.csv
2018-07-04T12:11:55.382128,-1.243,-0.138,0.186,-180.976,-49.756,68.72,1_6_2.csv
2018-07-04T12:11:55.428253,-0.968,-0.354,0.0,-270.427,-73.598,32.073,1_6_2.csv
2018-07-04T12:11:55.476383,-0.968,-0.354,0.0,-310.854,-81.524,12.073,1_6_2.csv
2018-07-04T12:11:55.521505,-0.696,-0.521,0.024,-275.61,-76.89,22.195,1_6_2.csv
2018-07-04T12:11:55.567129,-0.696,-0.521,0.024,-195.915,-60.0,52.012,1_6_2.csv
2018-07-04T12:11:55.627793,-0.654,-0.434,0.033,-104.39,-5.732,96.951,1_6_2.csv
2018-07-04T12:11:55.677428,-1.041,-0.503,0.084,-148.11,14.207,107.012,1_6_2.csv
2018-07-04T12:11:55.745613,-1.231,-1.23,0.106,-242.195,15.915,107.012,1_6_2.csv
2018-07-04T12:11:55.788730,-1.231,-1.23,0.106,-71.341,42.622,80.0,1_6_2.csv
2018-07-04T12:11:55.835356,-1.115,-1.042,0.513,111.829,73.293,18.354,1_6_2.csv
2018-07-04T12:11:55.927105,-1.139,-0.609,0.498,119.085,62.927,-140.305,1_6_2.csv
2018-07-04T12:11:55.984260,-1.396,-0.469,0.104,193.293,-8.171,-143.902,1_6_2.csv
2018-07-04T12:11:56.053447,-1.396,-0.469,0.104,200.671,-57.744,-116.829,1_6_2.csv
2018-07-04T12:11:56.100575,-1.211,-0.12,0.124,160.244,-83.476,-108.659,1_6_2.csv
2018-07-04T12:11:56.150711,-0.98,-0.149,0.077,-45.0,-88.232,-131.037,1_6_2.csv
2018-07-04T12:11:56.193827,-0.98,-0.149,0.077,-132.866,-73.598,-143.72,1_6_2.csv
2018-07-04T12:11:56.241958,-0.732,-0.298,0.011,-152.317,-43.659,-140.549,1_6_2.csv
2018-07-04T12:11:56.312657,-0.662,-0.253,0.098,-9.39,6.098,-66.098,1_6_2.csv
2018-07-04T12:11:56.350761,-0.662,-0.253,0.098,23.049,15.061,7.378,1_6_2.csv
2018-07-04T12:11:56.401899,-0.862,-0.155,0.232,-13.537,15.183,98.293,1_6_2.csv
2018-07-04T12:11:56.449027,-0.862,-0.155,0.232,-114.512,8.171,200.122,1_6_2.csv
2018-07-04T12:11:56.495245,-1.41,-0.738,0.345,-152.317,-9.024,290.305,1_6_2.csv
2018-07-04T12:11:56.552399,-1.438,-0.735,0.386,80.61,-30.671,291.829,1_6_2.csv
2018-07-04T12:11:56.610557,-1.438,-0.735,0.386,137.683,-32.805,181.403,1_6_2.csv
2018-07-04T12:11:56.717438,-0.821,-0.475,-0.056,-260.549,-71.28,-50.061,1_6_2.csv
2018-07-04T12:11:56.757546,-0.821,-0.475,-0.056,-272.378,-79.268,-29.146,1_6_2.csv
2018-07-04T12:11:56.804674,-0.603,-0.493,-0.059,-212.866,-67.317,10.732,1_6_2.csv
2018-07-04T12:11:56.848794,-0.603,-0.493,-0.059,-172.561,-45.732,40.793,1_6_2.csv
2018-07-04T12:11:56.895420,-0.678,-0.5,0.032,-157.134,-19.207,63.11,1_6_2.csv
2018-07-04T12:11:56.954079,-1.21,-0.828,0.182,-1.463,28.476,106.89,1_6_2.csv
2018-07-04T12:11:57.052346,-1.383,-0.838,0.345,41.768,59.817,19.878,1_6_2.csv
2018-07-04T12:11:57.104904,-1.383,-0.838,0.345,82.378,76.829,-47.805,1_6_2.csv
2018-07-04T12:11:57.150109,-1.182,-0.697,0.254,280.976,78.293,-120.732,1_6_2.csv
2018-07-04T12:11:57.198240,-1.216,-0.396,0.118,340.0,49.695,-117.561,1_6_2.csv
2018-07-04T12:11:57.296026,-0.993,-0.086,0.155,225.427,-51.707,-83.537,1_6_2.csv
2018-07-04T12:11:57.346663,-0.993,-0.086,0.155,73.72,-77.073,-76.341,1_6_2.csv
2018-07-04T12:11:57.396799,-0.882,-0.264,0.07,-54.695,-96.037,-57.012,1_6_2.csv
2018-07-04T12:11:57.444428,-0.867,-0.333,-0.038,-63.72,-90.427,-50.793,1_6_2.csv
2018-07-04T12:11:57.492570,-0.867,-0.333,-0.038,-71.037,-73.598,-51.341,1_6_2.csv
2018-07-04T12:11:57.537680,-0.917,-0.325,0.084,-72.256,-45.793,-44.39,1_6_2.csv
2018-07-04T12:11:57.583805,-0.917,-0.325,0.084,-42.561,-17.866,-17.744,1_6_2.csv
2018-07-04T12:11:57.641963,-1.03,-0.379,0.277,46.646,44.695,88.78,1_6_2.csv
2018-07-04T12:11:57.694606,-0.926,-0.312,0.607,54.817,57.073,126.098,1_6_2.csv
2018-07-04T12:11:57.739728,-0.926,-0.312,0.607,70.732,68.415,130.488,1_6_2.csv
2018-07-04T12:11:57.787492,-0.999,-0.268,0.566,82.927,81.585,113.232,1_6_2.csv
2018-07-04T12:11:57.834118,-0.921,-0.181,0.415,16.524,12.622,70.061,1_6_2.csv
2018-07-04T12:11:57.880744,-0.921,-0.181,0.415,-73.415,-1.098,52.012,1_6_2.csv
2018-07-04T12:11:58.009594,-0.78,-0.42,0.413,-48.11,-3.415,19.085,1_6_2.csv
2018-07-04T12:11:58.068253,-0.78,-0.42,0.413,-10.549,8.841,4.756,1_6_2.csv
2018-07-04T12:11:58.127414,-0.798,-0.32,0.446,26.28,20.427,-18.293,1_6_2.csv
2018-07-04T12:11:58.184850,-0.962,-0.294,0.458,14.939,17.866,-20.0,1_6_2.csv
2018-07-04T12:11:58.228467,-0.962,-0.294,0.458,-5.366,10.0,-26.463,1_6_2.csv
2018-07-04T12:11:58.271585,-1.251,-0.376,0.436,-10.061,12.988,-36.402,1_6_2.csv
2018-07-04T12:11:58.329241,-1.305,-0.378,0.467,18.659,-3.78,-37.134,1_6_2.csv
2018-07-04T12:11:58.371355,-1.305,-0.378,0.467,27.561,-40.305,-50.61,1_6_2.csv
2018-07-04T12:11:58.411965,-1.091,-0.274,0.33,15.366,-47.012,-75.305,1_6_2.csv
2018-07-04T12:11:58.466613,-1.091,-0.274,0.33,7.256,-57.5,-82.866,1_6_2.csv
2018-07-04T12:11:58.510862,-1.12,-0.249,0.218,-3.293,-83.537,-73.841,1_6_2.csv
2018-07-04T12:11:58.569019,-0.94,-0.255,0.242,-80.488,-77.073,-76.829,1_6_2.csv
2018-07-04T12:11:58.661770,-0.7,-0.286,0.348,-13.354,-45.0,-42.744,1_6_2.csv
2018-07-04T12:11:58.724942,-0.645,-0.152,0.383,23.232,-26.829,28.049,1_6_2.csv
2018-07-04T12:11:58.787612,-0.645,-0.152,0.383,5.0,-27.988,56.098,1_6_2.csv
2018-07-04T12:11:58.838249,-0.872,-0.125,0.255,-122.988,-46.768,128.659,1_6_2.csv
2018-07-04T12:11:58.887382,-1.294,-0.28,0.086,-196.524,-59.878,160.732,1_6_2.csv
2018-07-04T12:11:58.932505,-1.294,-0.28,0.086,-263.11,-72.073,183.232,1_6_2.csv
2018-07-04T12:11:58.998684,-1.587,-0.613,-0.135,-292.5,-119.817,201.951,1_6_2.csv
2018-07-04T12:11:59.070880,-1.1,-0.696,0.045,-192.683,-96.646,187.744,1_6_2.csv
2018-07-04T12:11:59.117506,-0.95,-0.426,0.117,-22.683,-30.427,98.476,1_6_2.csv
2018-07-04T12:11:59.194715,-0.95,-0.426,0.117,-34.329,-24.024,49.878,1_6_2.csv
2018-07-04T12:11:59.261396,-0.813,-0.288,0.054,-187.805,-34.268,13.476,1_6_2.csv
2018-07-04T12:11:59.320055,-0.704,-0.442,0.003,-178.903,-21.098,59.024,1_6_2.csv
2018-07-04T12:11:59.368687,-0.784,-0.629,0.119,-142.073,6.585,93.78,1_6_2.csv
2018-07-04T12:11:59.413307,-0.784,-0.629,0.119,-76.829,43.049,121.951,1_6_2.csv
2018-07-04T12:11:59.457929,-1.089,-0.893,0.428,34.878,85.488,129.939,1_6_2.csv
2018-07-04T12:11:59.509067,-1.089,-0.893,0.428,159.207,103.659,91.098,1_6_2.csv
2018-07-04T12:11:59.553187,-1.226,-0.412,0.627,181.707,99.268,10.427,1_6_2.csv
2018-07-04T12:11:59.599813,-1.366,-0.442,0.594,-8.232,21.402,-79.573,1_6_2.csv
2018-07-04T12:11:59.655966,-1.366,-0.442,0.594,-42.683,-39.756,-96.22,1_6_2.csv
2018-07-04T12:11:59.710112,-1.153,-0.48,0.421,-0.854,-45.061,-124.573,1_6_2.csv
2018-07-04T12:11:59.755737,-1.153,-0.48,0.421,99.939,-29.207,-134.207,1_6_2.csv
2018-07-04T12:11:59.803365,-1.333,-0.301,0.225,126.646,-87.744,-94.146,1_6_2.csv
2018-07-04T12:11:59.850993,-1.132,-0.226,0.167,55.427,-87.439,-93.963,1_6_2.csv
2018-07-04T12:11:59.915669,-1.132,-0.226,0.167,4.878,-79.146,-110.732,1_6_2.csv
2018-07-04T12:12:00.015941,-0.609,-0.223,0.078,-11.89,-56.951,-115.61,1_6_2.csv
2018-07-04T12:12:00.069085,-0.609,-0.223,0.078,-10.793,-43.11,-77.622,1_6_2.csv
2018-07-04T12:12:00.117717,-0.49,-0.246,0.079,-44.085,-25.976,-23.049,1_6_2.csv
2018-07-04T12:12:00.180888,-0.866,-0.65,0.27,-162.256,47.073,110.671,1_6_2.csv
2018-07-04T12:12:00.226010,-0.866,-0.65,0.27,-167.927,66.951,167.256,1_6_2.csv
2018-07-04T12:12:00.283242,-1.405,-1.46,0.506,-106.22,-38.354,76.951,1_6_2.csv
2018-07-04T12:12:00.351427,-1.132,-1.559,0.545,-85.61,-81.402,-67.378,1_6_2.csv
2018-07-04T12:12:00.397051,-1.132,-1.559,0.545,-79.939,-99.268,-165.671,1_6_2.csv
2018-07-04T12:12:00.444682,-0.925,-1.779,0.338,88.476,-134.817,-313.963,1_6_2.csv
2018-07-04T12:12:00.491306,-0.763,-1.298,0.175,195.732,-163.415,-375.183,1_6_2.csv
2018-07-04T12:12:00.536930,-0.763,-1.298,0.175,235.671,-182.683,-413.781,1_6_2.csv
2018-07-04T12:12:00.592079,-0.292,0.102,0.037,201.22,-169.512,-416.463,1_6_2.csv
2018-07-04T12:12:00.632690,-0.292,0.102,0.037,116.22,-119.756,-384.146,1_6_2.csv
2018-07-04T12:12:00.678313,0.242,0.556,-0.009,105.183,-44.695,-311.037,1_6_2.csv
2018-07-04T12:12:00.726444,0.525,0.458,0.513,58.598,35.305,-86.037,1_6_2.csv
2018-07-04T12:12:00.771566,0.525,0.458,0.513,-3.963,21.951,-40.793,1_6_2.csv
2018-07-04T12:12:00.819195,0.923,-0.001,0.755,-11.951,-14.268,-21.646,1_6_2.csv
2018-07-04T12:12:00.869915,0.923,-0.001,0.755,-1.098,-18.11,-10.549,1_6_2.csv
2018-07-04T12:12:00.961163,0.903,0.036,0.633,29.573,6.463,-29.756,1_6_2.csv
2018-07-04T12:12:01.053914,0.709,0.058,0.498,-25.366,-0.183,5.854,1_6_2.csv
2018-07-04T12:12:01.100039,0.709,0.058,0.498,-1.89,10.366,12.073,1_6_2.csv
2018-07-04T12:12:01.149172,0.721,0.03,0.652,-29.573,9.939,16.341,1_6_2.csv
2018-07-04T12:12:01.194796,0.721,0.03,0.652,-17.622,7.378,9.573,1_6_2.csv
2018-07-04T12:12:01.379414,0.936,0.067,0.712,-14.634,-9.329,6.098,1_6_2.csv
2018-07-04T12:12:01.428547,0.936,0.067,0.712,-26.098,-23.049,8.049,1_6_2.csv
2018-07-04T12:12:01.475675,0.914,-0.198,0.807,-24.512,-21.829,13.415,1_6_2.csv
2018-07-04T12:12:01.522803,0.914,-0.198,0.807,18.598,6.28,10.549,1_6_2.csv
2018-07-04T12:12:01.567925,0.568,-0.183,0.735,30.671,13.902,5.488,1_6_2.csv
2018-07-04T12:12:01.615057,0.576,-0.055,0.522,36.28,1.585,27.317,1_6_2.csv
2018-07-04T12:12:01.668200,0.576,-0.055,0.522,31.585,3.902,36.89,1_6_2.csv
2018-07-04T12:12:01.710314,0.69,-0.024,0.658,20.671,8.537,35.427,1_6_2.csv
2018-07-04T12:12:01.755437,0.69,-0.024,0.658,33.293,14.695,29.268,1_6_2.csv
2018-07-04T12:12:01.821800,0.719,0.081,0.725,36.646,31.28,13.049,1_6_2.csv
2018-07-04T12:12:01.866421,0.65,0.133,0.721,12.134,20.061,8.841,1_6_2.csv
2018-07-04T12:12:01.912045,0.65,0.133,0.721,-5.671,15.122,2.256,1_6_2.csv
2018-07-04T12:12:01.966692,0.677,0.121,0.805,21.707,24.024,-0.488,1_6_2.csv
2018-07-04T12:12:02.009809,0.677,0.121,0.805,-18.049,-7.561,1.098,1_6_2.csv
2018-07-04T12:12:02.055433,0.887,0.017,0.816,-16.28,-17.378,15.061,1_6_2.csv
2018-07-04T12:12:02.101057,0.911,-0.139,0.669,-17.561,-12.439,35.549,1_6_2.csv
2018-07-04T12:12:02.147182,0.911,-0.139,0.669,31.098,13.78,42.5,1_6_2.csv
2018-07-04T12:12:02.195312,0.815,-0.102,0.63,15.854,17.317,54.756,1_6_2.csv
2018-07-04T12:12:02.253764,0.606,-0.067,0.668,19.512,19.085,55.793,1_6_2.csv
2018-07-04T12:12:02.303398,0.606,-0.067,0.668,7.988,14.878,57.317,1_6_2.csv
2018-07-04T12:12:02.350526,0.415,0.157,0.63,-13.78,12.378,78.659,1_6_2.csv
2018-07-04T12:12:02.403671,0.415,0.157,0.63,-22.683,11.28,121.281,1_6_2.csv
2018-07-04T12:12:02.449294,0.056,0.153,0.534,-15.183,4.024,181.707,1_6_2.csv
2018-07-04T12:12:02.490907,0.056,0.153,0.534,-3.354,-5.793,244.329,1_6_2.csv
2018-07-04T12:12:02.546056,-0.341,-0.404,0.387,-69.207,-0.61,333.902,1_6_2.csv
2018-07-04T12:12:02.598872,-0.903,-1.106,0.208,-149.329,-2.012,337.866,1_6_2.csv
2018-07-04T12:12:02.648507,-0.903,-1.106,0.208,-195.732,-45.0,322.5,1_6_2.csv
2018-07-04T12:12:02.742762,-1.704,-0.922,0.007,-27.073,-27.317,403.415,1_6_2.csv
2018-07-04T12:12:02.787884,-1.704,-0.922,0.007,13.902,25.976,443.232,1_6_2.csv
2018-07-04T12:12:02.834510,-1.892,-0.982,0.374,73.78,59.939,401.585,1_6_2.csv
2018-07-04T12:12:02.889660,-1.892,-0.982,0.374,69.451,43.11,238.171,1_6_2.csv
2018-07-04T12:12:02.929267,-1.113,0.143,0.398,38.415,49.695,40.0,1_6_2.csv
2018-07-04T12:12:02.976896,-0.816,-0.427,-0.004,-280.732,-20.122,-84.817,1_6_2.csv
2018-07-04T12:12:03.026030,-0.816,-0.427,-0.004,-355.976,-76.646,-33.72,1_6_2.csv
2018-07-04T12:12:03.069648,-0.539,-0.676,-0.086,-296.89,-98.78,28.11,1_6_2.csv
2018-07-04T12:12:03.116775,-0.539,-0.676,-0.086,-205.122,-76.585,61.585,1_6_2.csv
2018-07-04T12:12:03.167914,-0.713,-0.631,0.196,-157.256,-40.549,84.39,1_6_2.csv
2018-07-04T12:12:03.212034,-0.713,-0.631,0.196,-129.451,-4.268,109.512,1_6_2.csv
2018-07-04T12:12:03.256655,-1.238,-0.939,0.31,-35.854,64.695,37.317,1_6_2.csv
2018-07-04T12:12:03.304284,-1.475,-0.745,0.391,79.939,79.512,-61.768,1_6_2.csv
2018-07-04T12:12:03.349908,-1.475,-0.745,0.391,144.695,56.707,-146.585,1_6_2.csv
2018-07-04T12:12:03.397537,-1.333,-0.5,0.406,120.732,17.561,-193.476,1_6_2.csv
2018-07-04T12:12:03.459204,-1.457,-0.343,0.21,151.22,-34.939,-161.951,1_6_2.csv
2018-07-04T12:12:03.526386,-1.457,-0.343,0.21,159.39,-84.451,-135.976,1_6_2.csv
2018-07-04T12:12:03.584042,-1.145,-0.092,0.226,58.598,-95.549,-117.927,1_6_2.csv
2018-07-04T12:12:03.634258,-0.803,-0.176,0.143,7.073,-87.378,-108.659,1_6_2.csv
2018-07-04T12:12:03.679441,-0.803,-0.176,0.143,-3.659,-75.793,-92.317,1_6_2.csv
2018-07-04T12:12:03.725566,-0.531,-0.156,0.114,7.134,-60.854,-62.012,1_6_2.csv
2018-07-04T12:12:03.775201,-0.531,-0.156,0.114,3.72,-46.037,-18.963,1_6_2.csv
2018-07-04T12:12:03.818819,-0.438,-0.138,0.151,-27.866,-28.659,42.927,1_6_2.csv
2018-07-04T12:12:03.865947,-0.984,-0.337,0.178,-143.537,11.646,196.22,1_6_2.csv
2018-07-04T12:12:03.914077,-0.984,-0.337,0.178,-190.244,27.866,262.073,1_6_2.csv
2018-07-04T12:12:03.959702,-1.744,-0.86,0.388,-172.988,40.671,300.61,1_6_2.csv
2018-07-04T12:12:04.005826,-1.744,-0.86,0.388,-13.902,46.159,294.817,1_6_2.csv
2018-07-04T12:12:04.111416,-1.044,0.126,0.22,2.744,-8.537,-16.829,1_6_2.csv
2018-07-04T12:12:04.163557,-1.044,0.126,0.22,-205.122,-63.72,-70.549,1_6_2.csv
2018-07-04T12:12:04.210183,-0.71,-0.442,0.061,-331.646,-88.049,-90.244,1_6_2.csv
2018-07-04T12:12:04.257311,-0.71,-0.442,0.061,-322.256,-84.207,-83.659,1_6_2.csv
2018-07-04T12:12:04.302935,-0.567,-0.543,0.076,-84.817,-30.976,0.671,1_6_2.csv
2018-07-04T12:12:04.351065,-0.559,-0.345,0.261,-8.293,0.305,49.268,1_6_2.csv
2018-07-04T12:12:04.403708,-0.559,-0.345,0.261,15.0,36.89,83.598,1_6_2.csv
2018-07-04T12:12:04.465375,-0.999,-0.399,0.458,26.037,102.744,115.793,1_6_2.csv
2018-07-04T12:12:04.505986,-1.486,-0.634,0.521,67.256,94.451,113.354,1_6_2.csv
2018-07-04T12:12:04.571162,-1.486,-0.634,0.521,93.537,59.146,83.293,1_6_2.csv
2018-07-04T12:12:04.630824,-1.448,-0.282,0.479,55.244,-49.573,-65.61,1_6_2.csv
2018-07-04T12:12:04.680960,-1.313,-0.166,0.314,-35.671,-78.72,-124.329,1_6_2.csv
2018-07-04T12:12:04.757167,-1.09,-0.407,0.2,-80.915,-143.781,-151.159,1_6_2.csv
2018-07-04T12:12:04.818833,-1.09,-0.407,0.2,-55.732,-127.195,-147.805,1_6_2.csv
2018-07-04T12:12:04.866462,-0.878,-0.259,0.171,-4.207,-78.537,-121.463,1_6_2.csv
2018-07-04T12:12:04.913089,-0.744,-0.216,0.097,13.537,-62.744,-92.561,1_6_2.csv
2018-07-04T12:12:04.965230,-0.744,-0.216,0.097,13.354,-54.817,-62.683,1_6_2.csv
2018-07-04T12:12:05.030407,-0.598,-0.145,0.093,-30.488,-14.39,-2.073,1_6_2.csv
2018-07-04T12:12:05.093578,-0.624,-0.208,0.16,-46.159,25.0,54.451,1_6_2.csv
2018-07-04T12:12:05.136194,-0.624,-0.208,0.16,-44.695,67.744,138.232,1_6_2.csv
2018-07-04T12:12:05.178809,-1.323,-0.464,0.455,-38.171,107.866,232.805,1_6_2.csv
2018-07-04T12:12:05.225436,-1.323,-0.464,0.455,40.671,154.268,298.476,1_6_2.csv
2018-07-04T12:12:05.279081,-1.692,-0.269,0.721,141.281,9.085,171.829,1_6_2.csv
2018-07-04T12:12:05.319691,-1.189,0.268,0.085,-76.402,-23.963,79.451,1_6_2.csv
2018-07-04T12:12:05.367010,-1.189,0.268,0.085,-279.939,-82.317,-12.012,1_6_2.csv
2018-07-04T12:12:05.472295,-0.562,-0.644,0.004,-353.72,-113.902,-115.0,1_6_2.csv
2018-07-04T12:12:05.520927,-0.562,-0.644,0.004,-161.037,-61.524,-54.756,1_6_2.csv
2018-07-04T12:12:05.585602,-0.43,-0.214,0.14,-6.037,-25.61,-2.134,1_6_2.csv
2018-07-04T12:12:05.641755,-0.756,-0.236,0.272,-4.512,35.366,86.768,1_6_2.csv
2018-07-04T12:12:05.684370,-0.756,-0.236,0.272,-49.085,58.841,131.159,1_6_2.csv
2018-07-04T12:12:05.728991,-1.375,-0.556,0.372,-58.598,78.171,167.317,1_6_2.csv
2018-07-04T12:12:05.775116,-1.375,-0.556,0.372,-33.598,81.768,183.963,1_6_2.csv
2018-07-04T12:12:05.820239,-1.538,-0.884,0.489,39.329,69.817,161.646,1_6_2.csv
2018-07-04T12:12:05.865862,-1.538,-0.884,0.489,145.061,29.573,80.0,1_6_2.csv
2018-07-04T12:12:05.921513,-1.108,-0.146,0.423,58.293,-18.476,-90.61,1_6_2.csv
2018-07-04T12:12:05.966635,-1.075,-0.397,0.267,-5.793,-48.598,-96.646,1_6_2.csv
2018-07-04T12:12:06.008248,-1.075,-0.397,0.267,-28.354,-99.939,-84.39,1_6_2.csv
2018-07-04T12:12:06.070918,-0.954,-0.376,0.19,-32.561,-102.073,-82.195,1_6_2.csv
2018-07-04T12:12:06.115222,-0.98,-0.294,0.111,4.329,-70.183,-97.378,1_6_2.csv
2018-07-04T12:12:06.163854,-0.98,-0.294,0.111,-0.122,-61.707,-92.317,1_6_2.csv
2018-07-04T12:12:06.219004,-0.898,-0.281,0.043,-7.988,-51.646,-83.11,1_6_2.csv
2018-07-04T12:12:06.259112,-0.898,-0.281,0.043,-13.963,-40.915,-73.841,1_6_2.csv
2018-07-04T12:12:06.302730,-0.856,-0.27,0.127,-14.329,-26.22,-56.341,1_6_2.csv
2018-07-04T12:12:06.351362,-0.856,-0.27,0.127,-2.439,-4.451,-22.378,1_6_2.csv
2018-07-04T12:12:06.396986,-0.936,-0.296,0.259,45.061,43.963,77.622,1_6_2.csv
2018-07-04T12:12:06.445116,-1.038,-0.265,0.504,40.732,65.0,116.342,1_6_2.csv
2018-07-04T12:12:06.500265,-1.038,-0.265,0.504,56.28,54.695,120.61,1_6_2.csv
2018-07-04T12:12:06.536865,-1.063,-0.134,0.403,39.451,54.695,101.829,1_6_2.csv
2018-07-04T12:12:06.584494,-1.063,-0.134,0.403,-6.463,45.976,77.134,1_6_2.csv
2018-07-04T12:12:06.633627,-1.086,-0.162,0.283,-58.354,2.805,50.732,1_6_2.csv
2018-07-04T12:12:06.678248,-0.79,-0.341,0.266,-178.842,-34.024,5.122,1_6_2.csv
2018-07-04T12:12:06.725376,-0.79,-0.341,0.266,-165.488,-27.927,0.183,1_6_2.csv
2018-07-04T12:12:06.865946,-0.757,-0.435,0.266,-31.707,4.207,39.39,1_6_2.csv
2018-07-04T12:12:06.914077,-0.757,-0.435,0.266,-10.0,18.11,39.512,1_6_2.csv
2018-07-04T12:12:06.958698,-1.134,-0.517,0.306,-9.695,26.829,22.317,1_6_2.csv
2018-07-04T12:12:07.007330,-1.378,-0.592,0.302,-0.732,23.476,-4.329,1_6_2.csv
2018-07-04T12:12:07.052953,-1.378,-0.592,0.302,35.427,8.72,-37.561,1_6_2.csv
2018-07-04T12:12:07.100081,-1.118,-0.411,0.339,63.354,3.232,-73.598,1_6_2.csv
2018-07-04T12:12:07.152222,-1.118,-0.411,0.339,70.244,0.061,-97.134,1_6_2.csv
2018-07-04T12:12:07.194838,-1.061,-0.359,0.268,74.817,-9.695,-91.463,1_6_2.csv
2018-07-04T12:12:07.240963,-0.836,-0.248,0.276,44.573,-42.134,-50.366,1_6_2.csv
2018-07-04T12:12:07.289093,-0.836,-0.248,0.276,-2.012,-38.354,-51.829,1_6_2.csv
2018-07-04T12:12:07.333714,-0.844,-0.354,0.21,-30.122,-40.793,-53.476,1_6_2.csv
2018-07-04T12:12:07.380341,-0.844,-0.354,0.21,-16.951,-39.756,-43.232,1_6_2.csv
2018-07-04T12:12:07.435991,-0.84,-0.387,0.172,-0.122,-36.951,-27.012,1_6_2.csv
2018-07-04T12:12:07.490640,-0.915,-0.386,0.225,-12.988,-16.646,-0.915,1_6_2.csv
2018-07-04T12:12:07.539773,-0.915,-0.386,0.225,-0.305,-4.024,8.293,1_6_2.csv
2018-07-04T12:12:07.586399,-0.967,-0.344,0.329,18.476,7.012,17.683,1_6_2.csv
2018-07-04T12:12:07.631020,-0.967,-0.344,0.329,32.134,13.841,30.305,1_6_2.csv
2018-07-04T12:12:07.678148,-1.024,-0.32,0.357,14.268,18.049,48.049,1_6_2.csv
2018-07-04T12:12:07.729286,-0.937,-0.251,0.374,-19.634,-4.451,54.634,1_6_2.csv
2018-07-04T12:12:07.771902,-0.937,-0.251,0.374,-55.61,0.305,35.122,1_6_2.csv
2018-07-04T12:12:07.819030,-0.961,-0.28,0.307,-70.122,-11.341,18.476,1_6_2.csv
2018-07-04T12:12:07.867259,-0.961,-0.28,0.307,-68.841,-27.134,11.829,1_6_2.csv
2018-07-04T12:12:07.911742,-0.808,-0.255,0.299,-92.378,-29.207,7.439,1_6_2.csv
2018-07-04T12:12:07.958369,-0.808,-0.255,0.299,-112.073,-25.183,9.817,1_6_2.csv
2018-07-04T12:12:08.019535,-0.756,-0.343,0.315,-84.939,-11.28,43.659,1_6_2.csv
2018-07-04T12:12:08.069169,-0.812,-0.396,0.346,-85.488,-5.061,55.427,1_6_2.csv
2018-07-04T12:12:08.119806,-0.812,-0.396,0.346,-87.134,0.671,58.354,1_6_2.csv
2018-07-04T12:12:08.194008,-0.866,-0.479,0.398,-50.305,16.585,56.829,1_6_2.csv
2018-07-04T12:12:08.242138,-1.162,-0.53,0.347,-32.683,16.646,53.537,1_6_2.csv
2018-07-04T12:12:08.287761,-1.406,-0.546,0.32,-64.329,4.878,8.78,1_6_2.csv
2018-07-04T12:12:08.341407,-1.406,-0.546,0.32,-61.89,-12.134,-19.39,1_6_2.csv
2018-07-04T12:12:08.403575,-1.066,-0.469,0.323,-18.11,-32.317,-73.963,1_6_2.csv
2018-07-04T12:12:08.454213,-0.912,-0.337,0.285,0.549,-38.659,-87.073,1_6_2.csv
2018-07-04T12:12:08.495825,-0.912,-0.337,0.285,7.195,-53.963,-79.878,1_6_2.csv
2018-07-04T12:12:08.537438,-0.962,-0.275,0.174,-10.61,-69.207,-62.683,1_6_2.csv
2018-07-04T12:12:08.601111,-0.962,-0.275,0.174,-45.427,-74.756,-48.049,1_6_2.csv
2018-07-04T12:12:08.658767,-0.933,-0.309,0.174,-82.744,-70.671,-21.829,1_6_2.csv
2018-07-04T12:12:08.710446,-0.758,-0.327,0.192,-69.268,-58.232,-6.402,1_6_2.csv
2018-07-04T12:12:08.756069,-0.758,-0.327,0.192,-45.732,-45.183,8.963,1_6_2.csv
2018-07-04T12:12:08.823753,-0.771,-0.272,0.25,-28.476,-26.768,56.524,1_6_2.csv
2018-07-04T12:12:08.881436,-1.059,-0.315,0.214,-41.463,-25.732,96.829,1_6_2.csv
2018-07-04T12:12:08.957644,-1.45,-0.457,0.133,-100.244,-27.744,163.354,1_6_2.csv
2018-07-04T12:12:09.015299,-1.16,-0.487,0.196,-95.61,-40.0,146.646,1_6_2.csv
2018-07-04T12:12:09.069483,-1.16,-0.487,0.196,-76.037,-45.183,101.646,1_6_2.csv
2018-07-04T12:12:09.116611,-0.844,-0.289,0.218,-74.39,-13.537,48.537,1_6_2.csv
2018-07-04T12:12:09.164994,-0.844,-0.289,0.218,-80.549,-20.427,11.159,1_6_2.csv
2018-07-04T12:12:09.210616,-0.858,-0.272,0.068,-165.061,-55.793,-2.439,1_6_2.csv
2018-07-04T12:12:09.256240,-0.724,-0.296,0.006,-209.085,-53.659,-4.939,1_6_2.csv
2018-07-04T12:12:09.323924,-0.724,-0.296,0.006,-216.707,-38.598,3.293,1_6_2.csv
2018-07-04T12:12:09.368052,-0.65,-0.411,0.131,-122.988,19.39,70.244,1_6_2.csv
2018-07-04T12:12:09.413676,-0.911,-0.483,0.317,-58.476,54.756,103.963,1_6_2.csv
2018-07-04T12:12:09.460304,-0.911,-0.483,0.317,12.866,90.549,130.061,1_6_2.csv
2018-07-04T12:12:09.600188,-1.526,-0.549,0.664,83.171,62.317,72.195,1_6_2.csv
2018-07-04T12:12:09.647817,-1.526,-0.549,0.664,109.634,10.976,-20.61,1_6_2.csv
2018-07-04T12:12:09.698955,-1.135,-0.057,0.513,-19.878,-78.841,-148.659,1_6_2.csv
2018-07-04T12:12:09.742573,-1.237,-0.435,0.326,-21.707,-100.366,-138.659,1_6_2.csv
2018-07-04T12:12:09.798726,-1.237,-0.435,0.326,18.78,-135.976,-104.207,1_6_2.csv
2018-07-04T12:12:09.836829,-1.201,-0.286,0.192,17.744,-156.768,-83.293,1_6_2.csv
2018-07-04T12:12:09.881951,-1.201,-0.286,0.192,-34.085,-138.354,-95.671,1_6_2.csv
2018-07-04T12:12:09.931084,-1.042,-0.203,0.071,-104.268,-103.049,-144.939,1_6_2.csv
2018-07-04T12:12:09.986234,-0.793,-0.335,-0.007,-91.341,-79.146,-146.037,1_6_2.csv
2018-07-04T12:12:10.041885,-0.793,-0.335,-0.007,-44.878,-50.549,-127.744,1_6_2.csv
2018-07-04T12:12:10.088511,-0.611,-0.249,0.153,13.232,-22.317,-91.402,1_6_2.csv
2018-07-04T12:12:10.149175,-0.641,-0.135,0.332,42.988,21.768,29.207,1_6_2.csv
2018-07-04T12:12:10.195802,-0.641,-0.135,0.332,7.927,45.305,106.89,1_6_2.csv
2018-07-04T12:12:10.240924,-1.258,-0.299,0.371,-69.756,71.829,193.049,1_6_2.csv
2018-07-04T12:12:10.292063,-1.258,-0.299,0.371,-126.829,76.098,266.829,1_6_2.csv
2018-07-04T12:12:10.334678,-1.384,-0.682,0.445,22.378,44.024,249.573,1_6_2.csv
2018-07-04T12:12:10.381305,-1.247,-0.358,0.208,156.402,38.537,156.524,1_6_2.csv
2018-07-04T12:12:10.430939,-1.247,-0.358,0.208,159.634,13.11,56.89,1_6_2.csv
2018-07-04T12:12:10.475059,-1.017,-0.051,0.158,-26.22,-26.524,-6.646,1_6_2.csv
2018-07-04T12:12:10.522688,-1.017,-0.051,0.158,-215.61,-43.354,-36.28,1_6_2.csv
2018-07-04T12:12:10.578840,-0.682,-0.507,0.092,-200.976,-12.927,4.817,1_6_2.csv
2018-07-04T12:12:10.631482,-0.548,-0.485,0.2,-89.329,23.415,48.415,1_6_2.csv
2018-07-04T12:12:10.681619,-0.548,-0.485,0.2,-15.0,57.866,71.585,1_6_2.csv
2018-07-04T12:12:10.727243,-0.861,-0.44,0.433,25.976,82.988,76.463,1_6_2.csv
2018-07-04T12:12:10.771863,-0.861,-0.44,0.433,67.744,103.781,76.22,1_6_2.csv
2018-07-04T12:12:10.819994,-1.556,-0.555,0.511,95.183,52.317,16.037,1_6_2.csv
2018-07-04T12:12:10.933803,-1.564,-0.346,0.406,42.378,-69.878,-106.342,1_6_2.csv
2018-07-04T12:12:10.977420,-1.177,-0.322,0.305,87.134,-102.5,-138.049,1_6_2.csv
2018-07-04T12:12:11.026052,-1.231,-0.254,0.249,117.378,-123.659,-108.598,1_6_2.csv
2018-07-04T12:12:11.086717,-1.231,-0.254,0.249,58.476,-126.037,-84.024,1_6_2.csv
2018-07-04T12:12:11.148885,-1.03,-0.245,0.094,-47.195,-101.524,-78.78,1_6_2.csv
2018-07-04T12:12:11.195010,-0.858,-0.325,-0.023,-56.037,-89.451,-83.415,1_6_2.csv
2018-07-04T12:12:11.257680,-0.758,-0.274,0.019,-3.293,-50.244,-80.732,1_6_2.csv
2018-07-04T12:12:11.303304,-0.758,-0.274,0.019,10.854,-26.89,-66.768,1_6_2.csv
2018-07-04T12:12:11.350431,-0.78,-0.207,0.152,12.805,-6.159,-37.378,1_6_2.csv
2018-07-04T12:12:11.401570,-0.78,-0.207,0.152,16.159,13.78,11.159,1_6_2.csv
2018-07-04T12:12:11.468752,-0.963,-0.176,0.256,-43.11,66.707,147.866,1_6_2.csv
2018-07-04T12:12:11.505853,-1.266,-0.306,0.504,-93.659,92.805,198.842,1_6_2.csv
2018-07-04T12:12:11.558997,-1.266,-0.306,0.504,-70.854,113.781,212.073,1_6_2.csv
2018-07-04T12:12:11.600610,-1.377,-0.369,0.517,4.085,102.561,181.707,1_6_2.csv
2018-07-04T12:12:11.649241,-1.377,-0.369,0.517,50.122,57.256,123.902,1_6_2.csv
2018-07-04T12:12:11.696870,-0.986,-0.127,0.236,-6.341,22.866,66.463,1_6_2.csv
2018-07-04T12:12:11.741993,-0.913,-0.316,0.194,-169.024,-19.207,9.085,1_6_2.csv
2018-07-04T12:12:11.788620,-0.913,-0.316,0.194,-218.659,-38.72,11.098,1_6_2.csv
2018-07-04T12:12:11.849785,-0.756,-0.519,0.154,-217.073,-39.878,24.39,1_6_2.csv
2018-07-04T12:12:11.945043,-0.894,-0.541,0.219,-31.585,32.195,58.354,1_6_2.csv
2018-07-04T12:12:11.992382,-1.198,-0.61,0.362,2.805,43.537,52.317,1_6_2.csv
2018-07-04T12:12:12.039402,-1.198,-0.61,0.362,17.744,46.28,18.354,1_6_2.csv
2018-07-04T12:12:12.085529,-1.254,-0.595,0.478,55.366,44.817,-27.622,1_6_2.csv
2018-07-04T12:12:12.131654,-1.254,-0.595,0.478,120.732,29.695,-66.22,1_6_2.csv
2018-07-04T12:12:12.190088,-1.223,-0.355,0.326,159.878,-29.329,-112.256,1_6_2.csv
2018-07-04T12:12:12.287854,-1.219,-0.222,0.282,116.646,-78.293,-80.732,1_6_2.csv
2018-07-04T12:12:12.350523,-1.135,-0.198,0.2,-6.524,-107.683,-71.951,1_6_2.csv
2018-07-04T12:12:12.398738,-1.021,-0.226,0.063,-54.512,-108.659,-88.171,1_6_2.csv
2018-07-04T12:12:12.444362,-1.021,-0.226,0.063,-77.378,-99.634,-103.598,1_6_2.csv
2018-07-04T12:12:12.493495,-0.771,-0.17,0.095,-74.573,-77.561,-108.902,1_6_2.csv
2018-07-04T12:12:12.552154,-0.75,-0.187,0.179,19.634,-14.878,-38.963,1_6_2.csv
2018-07-04T12:12:12.601788,-0.75,-0.187,0.179,46.524,6.707,23.354,1_6_2.csv
2018-07-04T12:12:12.648415,-1.005,-0.118,0.238,39.695,29.939,86.707,1_6_2.csv
2018-07-04T12:12:12.696044,-1.005,-0.118,0.238,-16.159,45.061,138.415,1_6_2.csv
2018-07-04T12:12:12.746681,-1.315,-0.229,0.316,-118.842,35.549,189.695,1_6_2.csv
2018-07-04T12:12:12.819378,-1.277,-0.282,0.262,-127.988,20.061,179.207,1_6_2.csv
2018-07-04T12:12:12.866506,-1.204,-0.323,0.086,-160.427,-31.22,123.293,1_6_2.csv
2018-07-04T12:12:12.915639,-1.204,-0.323,0.086,-218.842,-58.415,91.037,1_6_2.csv
2018-07-04T12:12:12.959759,-0.967,-0.39,-0.03,-273.476,-70.854,59.207,1_6_2.csv
2018-07-04T12:12:13.009894,-0.967,-0.39,-0.03,-285.915,-73.049,40.793,1_6_2.csv
2018-07-04T12:12:13.071439,-0.757,-0.47,-0.021,-181.22,-45.671,58.598,1_6_2.csv
2018-07-04T12:12:13.136616,-0.792,-0.451,0.043,-139.207,-22.927,75.305,1_6_2.csv
2018-07-04T12:12:13.199285,-1.044,-0.626,0.199,-107.012,26.585,103.11,1_6_2.csv
2018-07-04T12:12:13.305574,-1.235,-0.819,0.43,-25.122,65.427,71.28,1_6_2.csv
2018-07-04T12:12:13.382282,-1.172,-0.504,0.603,80.183,55.0,-49.939,1_6_2.csv
2018-07-04T12:12:13.506619,-1.068,-0.423,0.477,100.854,-7.561,-98.598,1_6_2.csv
2018-07-04T12:12:13.569790,-1.227,-0.24,0.333,112.073,-70.915,-76.22,1_6_2.csv
2018-07-04T12:12:13.648504,-1.069,-0.146,0.326,-21.585,-84.451,-89.39,1_6_2.csv
2018-07-04T12:12:13.710672,-0.918,-0.276,0.189,-11.951,-83.232,-79.39,1_6_2.csv
2018-07-04T12:12:13.770334,-0.905,-0.176,0.172,-9.817,-70.732,-67.988,1_6_2.csv
2018-07-04T12:12:13.837550,-0.842,-0.224,0.198,-49.573,-46.646,-26.524,1_6_2.csv
2018-07-04T12:12:13.881168,-0.842,-0.224,0.198,-47.5,-22.317,20.122,1_6_2.csv
2018-07-04T12:12:13.934814,-0.945,-0.247,0.236,-42.256,-1.524,72.5,1_6_2.csv
2018-07-04T12:12:13.980438,-0.945,-0.247,0.236,-52.988,13.293,117.317,1_6_2.csv
2018-07-04T12:12:14.021549,-1.053,-0.252,0.298,-59.451,16.646,144.39,1_6_2.csv
2018-07-04T12:12:14.086725,-1.274,-0.323,0.218,-99.39,14.146,162.5,1_6_2.csv
2018-07-04T12:12:14.132850,-1.274,-0.323,0.218,-130.305,-14.634,150.061,1_6_2.csv
2018-07-04T12:12:14.179979,-1.111,-0.327,0.133,-182.439,-37.378,114.573,1_6_2.csv
2018-07-04T12:12:14.227106,-1.111,-0.327,0.133,-235.0,-45.366,69.878,1_6_2.csv
2018-07-04T12:12:14.272228,-0.941,-0.432,0.002,-254.817,-52.805,47.134,1_6_2.csv
2018-07-04T12:12:14.367988,-0.787,-0.482,-0.01,-172.744,-39.024,79.634,1_6_2.csv
2018-07-04T12:12:14.423137,-0.889,-0.614,0.033,-171.585,-18.598,101.707,1_6_2.csv
2018-07-04T12:12:14.475780,-1.067,-0.953,0.156,-73.354,20.122,132.134,1_6_2.csv
2018-07-04T12:12:14.523911,-1.067,-0.953,0.156,49.756,47.805,111.402,1_6_2.csv
2018-07-04T12:12:14.570537,-1.325,-0.795,0.413,129.817,70.61,47.195,1_6_2.csv
2018-07-04T12:12:14.618166,-1.325,-0.795,0.413,130.183,62.805,-39.817,1_6_2.csv
2018-07-04T12:12:14.663790,-1.157,-0.441,0.564,74.207,24.817,-118.537,1_6_2.csv
2018-07-04T12:12:14.725958,-1.209,-0.502,0.297,110.549,-1.768,-160.732,1_6_2.csv
2018-07-04T12:12:14.787625,-1.209,-0.502,0.297,191.281,-25.976,-127.744,1_6_2.csv
2018-07-04T12:12:14.836257,-1.254,-0.166,0.208,110.793,-87.073,-77.256,1_6_2.csv
2018-07-04T12:12:14.883385,-1.006,-0.139,0.183,16.646,-88.598,-84.39,1_6_2.csv
2018-07-04T12:12:14.928507,-1.006,-0.139,0.183,-33.415,-90.732,-95.61,1_6_2.csv
2018-07-04T12:12:15.019755,-0.791,-0.28,0.05,-15.976,-60.793,-88.78,1_6_2.csv
2018-07-04T12:12:15.077442,-0.742,-0.225,0.064,10.732,-38.72,-60.0,1_6_2.csv
2018-07-04T12:12:15.131087,-0.865,-0.21,0.111,-7.317,2.927,54.634,1_6_2.csv
2018-07-04T12:12:15.179719,-0.865,-0.21,0.111,-48.171,31.646,122.622,1_6_2.csv
2018-07-04T12:12:15.226847,-1.179,-0.368,0.272,-81.341,54.512,179.451,1_6_2.csv
2018-07-04T12:12:15.272470,-1.179,-0.368,0.272,-68.841,66.768,204.512,1_6_2.csv
2018-07-04T12:12:15.318596,-1.221,-0.448,0.518,96.341,96.463,140.305,1_6_2.csv
2018-07-04T12:12:15.373244,-1.145,-0.149,0.348,113.354,61.159,81.037,1_6_2.csv
2018-07-04T12:12:15.414856,-1.145,-0.149,0.348,25.366,22.073,32.134,1_6_2.csv
2018-07-04T12:12:15.459978,-0.873,-0.06,0.253,-86.89,-9.573,-5.0,1_6_2.csv
2018-07-04T12:12:15.508611,-0.873,-0.06,0.253,-171.098,-26.89,-23.659,1_6_2.csv
2018-07-04T12:12:15.553232,-0.749,-0.369,0.263,-207.439,-35.366,-20.976,1_6_2.csv
2018-07-04T12:12:15.602866,-0.718,-0.425,0.25,-140.915,-17.012,19.39,1_6_2.csv
2018-07-04T12:12:15.703639,-1.076,-0.481,0.374,-13.963,45.061,58.659,1_6_2.csv
2018-07-04T12:12:15.756783,-1.076,-0.481,0.374,41.768,61.463,68.902,1_6_2.csv
2018-07-04T12:12:15.802908,-1.455,-0.519,0.439,37.134,18.659,14.573,1_6_2.csv
2018-07-04T12:12:15.852543,-1.228,-0.355,0.328,34.939,-11.585,-41.402,1_6_2.csv
2018-07-04T12:12:15.898668,-1.228,-0.355,0.328,33.171,-25.854,-90.488,1_6_2.csv
2018-07-04T12:12:15.949808,-1.09,-0.376,0.276,53.476,-30.976,-104.085,1_6_2.csv
2018-07-04T12:12:16.005457,-0.878,-0.266,0.212,71.524,-63.841,-75.854,1_6_2.csv
2018-07-04T12:12:16.053588,-0.878,-0.266,0.212,44.451,-58.902,-71.463,1_6_2.csv
2018-07-04T12:12:16.102220,-0.844,-0.267,0.136,15.915,-59.878,-68.049,1_6_2.csv
2018-07-04T12:12:16.149849,-0.844,-0.267,0.136,-6.707,-56.341,-55.305,1_6_2.csv
2018-07-04T12:12:16.194470,-0.894,-0.316,0.085,-3.963,-53.415,-39.817,1_6_2.csv
2018-07-04T12:12:16.240595,-0.894,-0.316,0.085,-5.671,-46.28,-28.598,1_6_2.csv
2018-07-04T12:12:16.295243,-0.998,-0.322,0.138,-22.073,-20.183,0.244,1_6_2.csv
2018-07-04T12:12:16.382479,-1.133,-0.334,0.256,47.744,21.89,31.463,1_6_2.csv
2018-07-04T12:12:16.429106,-1.008,-0.178,0.392,64.268,25.915,47.317,1_6_2.csv
2018-07-04T12:12:16.476233,-1.008,-0.178,0.392,47.744,31.22,52.012,1_6_2.csv
2018-07-04T12:12:16.521857,-1.012,-0.077,0.421,15.305,37.439,50.0,1_6_2.csv
2018-07-04T12:12:16.570490,-0.928,-0.08,0.382,-14.146,8.476,49.146,1_6_2.csv
2018-07-04T12:12:16.624635,-0.928,-0.08,0.382,-44.634,4.756,40.366,1_6_2.csv
2018-07-04T12:12:16.665246,-0.82,-0.168,0.356,-56.159,6.829,37.439,1_6_2.csv
2018-07-04T12:12:16.709867,-0.82,-0.168,0.356,-46.768,10.122,42.622,1_6_2.csv
2018-07-04T12:12:16.758499,-0.788,-0.206,0.374,-42.134,16.524,50.427,1_6_2.csv
2018-07-04T12:12:16.805750,-0.788,-0.206,0.374,-55.793,21.768,51.28,1_6_2.csv
2018-07-04T12:12:16.851020,-0.791,-0.281,0.392,-58.476,28.72,36.159,1_6_2.csv
2018-07-04T12:12:16.903663,-0.933,-0.357,0.39,-48.293,29.695,32.805,1_6_2.csv
2018-07-04T12:12:16.945777,-0.933,-0.357,0.39,-42.073,23.598,26.585,1_6_2.csv
2018-07-04T12:12:16.993406,-1.188,-0.404,0.362,-52.561,16.22,9.207,1_6_2.csv
2018-07-04T12:12:17.056670,-1.419,-0.499,0.397,-50.732,17.378,-37.073,1_6_2.csv
2018-07-04T12:12:17.099787,-1.419,-0.499,0.397,-17.5,-17.317,-63.476,1_6_2.csv
2018-07-04T12:12:17.147918,-1.014,-0.352,0.38,3.171,-31.28,-98.659,1_6_2.csv
2018-07-04T12:12:17.203067,-1.014,-0.352,0.38,21.402,-27.073,-119.695,1_6_2.csv
2018-07-04T12:12:17.272756,-1.2,-0.316,0.253,42.988,-72.988,-84.695,1_6_2.csv
2018-07-04T12:12:17.335426,-1.15,-0.216,0.206,-57.927,-79.146,-86.768,1_6_2.csv
2018-07-04T12:12:17.383055,-1.025,-0.224,0.237,-63.902,-76.768,-96.585,1_6_2.csv
2018-07-04T12:12:17.429180,-1.025,-0.224,0.237,-44.756,-76.22,-89.573,1_6_2.csv
2018-07-04T12:12:17.476809,-0.815,-0.11,0.226,-42.683,-87.805,-70.854,1_6_2.csv
2018-07-04T12:12:17.531458,-0.656,-0.133,0.222,-106.463,-77.805,1.585,1_6_2.csv
2018-07-04T12:12:17.570062,-0.656,-0.133,0.222,-107.927,-62.134,67.5,1_6_2.csv
2018-07-04T12:12:17.617691,-1.01,-0.289,0.181,-138.72,-54.573,146.585,1_6_2.csv
2018-07-04T12:12:17.666323,-1.01,-0.289,0.181,-214.634,-72.317,219.634,1_6_2.csv
2018-07-04T12:12:17.777124,-1.285,-0.619,-0.251,-159.085,-194.756,244.207,1_6_2.csv
2018-07-04T12:12:17.833777,-1.285,-0.619,-0.251,-106.037,-107.5,146.22,1_6_2.csv
2018-07-04T12:12:17.886921,-0.966,-0.318,0.048,-61.585,-32.744,63.902,1_6_2.csv
2018-07-04T12:12:17.929035,-0.966,-0.318,0.048,-25.488,5.061,38.354,1_6_2.csv
2018-07-04T12:12:17.977165,-0.801,-0.456,-0.161,-60.183,-0.366,60.366,1_6_2.csv
2018-07-04T12:12:18.024294,-0.64,-0.408,0.063,-94.695,5.549,81.646,1_6_2.csv
2018-07-04T12:12:18.084957,-0.64,-0.408,0.063,-106.22,15.366,92.439,1_6_2.csv
2018-07-04T12:12:18.132587,-0.781,-0.556,0.305,-98.659,35.732,92.5,1_6_2.csv
2018-07-04T12:12:18.188238,-1.121,-0.673,0.502,-22.561,81.768,37.683,1_6_2.csv
2018-07-04T12:12:18.245894,-1.121,-0.673,0.502,23.963,84.146,-8.171,1_6_2.csv
2018-07-04T12:12:18.288009,-1.155,-0.534,0.636,43.354,70.549,-50.61,1_6_2.csv
2018-07-04T12:12:18.338144,-1.427,-0.533,0.552,45.732,28.354,-83.659,1_6_2.csv
2018-07-04T12:12:18.386776,-1.427,-0.533,0.552,59.207,-18.171,-90.549,1_6_2.csv
2018-07-04T12:12:18.435408,-1.4,-0.36,0.386,47.012,-56.341,-119.695,1_6_2.csv
2018-07-04T12:12:18.484541,-1.4,-0.36,0.386,42.195,-63.902,-148.293,1_6_2.csv
2018-07-04T12:12:18.538687,-1.422,-0.373,0.186,70.671,-91.402,-135.854,1_6_2.csv
2018-07-04T12:12:18.584813,-1.17,-0.238,0.101,52.866,-97.195,-129.756,1_6_2.csv
2018-07-04T12:12:18.633444,-1.17,-0.238,0.101,18.659,-91.037,-133.963,1_6_2.csv
2018-07-04T12:12:18.734218,-0.9,-0.205,0.073,-15.366,-73.659,-126.768,1_6_2.csv
2018-07-04T12:12:18.773825,-0.663,-0.154,0.085,-4.268,-60.305,-102.866,1_6_2.csv
2018-07-04T12:12:18.850031,-0.53,-0.11,0.125,-29.695,-27.561,-10.793,1_6_2.csv
2018-07-04T12:12:18.902173,-0.859,-0.273,0.154,-93.293,22.5,156.768,1_6_2.csv
2018-07-04T12:12:18.945289,-0.859,-0.273,0.154,-120.793,41.159,248.049,1_6_2.csv
2018-07-04T12:12:18.998935,-1.822,-0.643,0.153,-137.195,55.915,329.756,1_6_2.csv
2018-07-04T12:12:19.094193,-1.595,-1.005,0.441,53.72,30.488,368.11,1_6_2.csv
2018-07-04T12:12:19.147839,-1.046,0.205,0.267,95.122,23.598,46.951,1_6_2.csv
2018-07-04T12:12:19.200481,-1.046,0.205,0.267,-138.171,-37.561,-55.244,1_6_2.csv
2018-07-04T12:12:19.243598,-0.759,-0.376,-0.082,-357.256,-82.439,-94.878,1_6_2.csv
2018-07-04T12:12:19.289222,-0.759,-0.376,-0.082,-434.451,-104.756,-95.122,1_6_2.csv
2018-07-04T12:12:19.336851,-0.565,-0.636,-0.112,-341.646,-94.268,-73.963,1_6_2.csv
2018-07-04T12:12:19.382506,-0.541,-0.393,0.184,-81.768,-18.415,-11.402,1_6_2.csv
2018-07-04T12:12:19.429133,-0.541,-0.393,0.184,-13.902,33.902,32.744,1_6_2.csv
2018-07-04T12:12:19.487791,-0.99,-0.461,0.44,47.317,90.427,69.024,1_6_2.csv
2018-07-04T12:12:19.539432,-0.99,-0.461,0.44,133.171,133.049,91.098,1_6_2.csv
2018-07-04T12:12:19.585055,-1.404,-0.401,0.512,156.829,103.171,54.329,1_6_2.csv
2018-07-04T12:12:19.634690,-1.494,-0.215,0.474,98.598,60.061,20.976,1_6_2.csv
2018-07-04T12:12:19.678809,-1.494,-0.215,0.474,46.341,-21.707,-25.122,1_6_2.csv
2018-07-04T12:12:19.726438,-0.989,-0.195,0.317,-15.732,-67.195,-76.341,1_6_2.csv
2018-07-04T12:12:19.780083,-0.989,-0.195,0.317,-31.951,-60.061,-106.524,1_6_2.csv
2018-07-04T12:12:19.822198,-0.911,-0.503,0.324,52.927,-60.0,-50.244,1_6_2.csv
2018-07-04T12:12:19.867821,-1.073,-0.411,0.121,77.866,-70.732,-9.939,1_6_2.csv
2018-07-04T12:12:19.915451,-1.073,-0.411,0.121,28.598,-78.476,-8.537,1_6_2.csv
2018-07-04T12:12:19.964584,-1.085,-0.269,-0.016,-37.195,-91.646,-39.451,1_6_2.csv
2018-07-04T12:12:20.008202,-1.085,-0.269,-0.016,-90.366,-93.72,-81.951,1_6_2.csv
2018-07-04T12:12:20.054829,-0.824,-0.342,0.035,-110.732,-74.573,-113.902,1_6_2.csv
2018-07-04T12:12:20.103962,-0.796,-0.403,0.091,-80.549,-45.732,-117.988,1_6_2.csv
2018-07-04T12:12:20.147580,-0.796,-0.403,0.091,71.89,12.622,-30.732,1_6_2.csv
2018-07-04T12:12:20.196212,-0.863,-0.235,0.252,120.915,31.22,29.39,1_6_2.csv
2018-07-04T12:12:20.325062,-1.132,-0.138,0.409,-39.756,76.524,141.098,1_6_2.csv
2018-07-04T12:12:20.366172,-1.111,-0.331,0.522,-47.5,65.793,141.585,1_6_2.csv
2018-07-04T12:12:20.468450,-1.103,-0.285,0.312,38.963,3.293,26.402,1_6_2.csv
2018-07-04T12:12:20.508057,-0.887,-0.096,0.24,-19.695,-20.61,-13.293,1_6_2.csv
2018-07-04T12:12:20.553681,-0.887,-0.096,0.24,-90.854,-32.805,-37.866,1_6_2.csv
2018-07-04T12:12:20.600386,-0.76,-0.229,0.238,-144.207,-36.037,-42.134,1_6_2.csv
2018-07-04T12:12:20.656037,-0.76,-0.229,0.238,-158.781,-32.439,-25.488,1_6_2.csv
2018-07-04T12:12:20.697148,-0.693,-0.328,0.198,-140.427,-18.598,4.329,1_6_2.csv
2018-07-04T12:12:20.741770,-0.693,-0.328,0.198,-109.939,8.354,36.585,1_6_2.csv
2018-07-04T12:12:20.789900,-0.951,-0.481,0.328,-1.402,65.549,99.268,1_6_2.csv
2018-07-04T12:12:20.835022,-1.377,-0.575,0.446,61.89,76.768,101.646,1_6_2.csv
2018-07-04T12:12:20.881649,-1.377,-0.575,0.446,99.512,63.476,71.341,1_6_2.csv
2018-07-04T12:12:20.941310,-1.367,-0.374,0.41,116.585,27.012,20.915,1_6_2.csv
2018-07-04T12:12:20.992950,-1.067,-0.221,0.31,19.329,-46.28,-92.988,1_6_2.csv
2018-07-04T12:12:21.037573,-1.067,-0.221,0.31,0.244,-54.817,-106.342,1_6_2.csv
2018-07-04T12:12:21.086704,-1.046,-0.429,0.26,17.561,-80.122,-88.598,1_6_2.csv
2018-07-04T12:12:21.131827,-1.046,-0.429,0.26,25.732,-91.951,-65.427,1_6_2.csv
2018-07-04T12:12:21.178955,-0.996,-0.271,0.179,18.72,-83.415,-61.28,1_6_2.csv
2018-07-04T12:12:21.234605,-0.965,-0.259,0.106,-15.0,-79.756,-78.902,1_6_2.csv
2018-07-04T12:12:21.276218,-0.965,-0.259,0.106,-30.976,-75.976,-82.317,1_6_2.csv
2018-07-04T12:12:21.318333,-0.879,-0.256,0.153,-32.073,-64.024,-82.5,1_6_2.csv
2018-07-04T12:12:21.367967,-0.879,-0.256,0.153,-19.39,-45.0,-70.976,1_6_2.csv
2018-07-04T12:12:21.414092,-0.875,-0.221,0.208,-2.134,-26.951,-44.451,1_6_2.csv
2018-07-04T12:12:21.460217,-0.875,-0.221,0.208,13.841,-1.89,0.671,1_6_2.csv
2018-07-04T12:12:21.514364,-0.951,-0.187,0.304,-34.451,40.0,110.671,1_6_2.csv
2018-07-04T12:12:21.585557,-0.938,-0.224,0.395,-50.793,46.098,138.354,1_6_2.csv
2018-07-04T12:12:21.633185,-1.255,-0.279,0.185,-48.841,43.659,134.512,1_6_2.csv
2018-07-04T12:12:21.679311,-1.255,-0.279,0.185,-70.122,7.439,112.073,1_6_2.csv
2018-07-04T12:12:21.727942,-1.104,-0.26,0.183,-126.707,-19.085,77.378,1_6_2.csv
2018-07-04T12:12:21.838743,-0.892,-0.371,0.138,-173.781,-21.646,25.488,1_6_2.csv
2018-07-04T12:12:21.888812,-0.771,-0.407,0.078,-133.659,-16.037,46.524,1_6_2.csv
2018-07-04T12:12:21.928920,-0.771,-0.407,0.078,-98.11,-6.585,65.061,1_6_2.csv
2018-07-04T12:12:21.976048,-0.922,-0.456,0.238,-79.085,0.0,74.146,1_6_2.csv
2018-07-04T12:12:22.023678,-0.922,-0.456,0.238,-102.744,0.0,80.061,1_6_2.csv
2018-07-04T12:12:22.070304,-1.205,-0.639,0.354,-154.085,8.476,79.878,1_6_2.csv
2018-07-04T12:12:22.116428,-1.219,-0.781,0.399,-102.866,14.573,6.646,1_6_2.csv
2018-07-04T12:12:22.169572,-1.219,-0.781,0.399,-7.927,17.683,-43.72,1_6_2.csv
2018-07-04T12:12:22.210182,-0.983,-0.483,0.476,56.524,8.293,-88.841,1_6_2.csv
2018-07-04T12:12:22.256407,-0.983,-0.483,0.476,90.0,0.366,-107.866,1_6_2.csv
2018-07-04T12:12:22.305039,-1.187,-0.358,0.342,110.488,-14.39,-97.317,1_6_2.csv
2018-07-04T12:12:22.358684,-1.087,-0.167,0.261,37.622,-73.415,-73.537,1_6_2.csv
2018-07-04T12:12:22.398291,-1.087,-0.167,0.261,-26.463,-80.122,-88.049,1_6_2.csv
2018-07-04T12:12:22.444416,-0.974,-0.268,0.184,-45.183,-88.78,-102.195,1_6_2.csv
2018-07-04T12:12:22.496056,-0.974,-0.268,0.184,-18.11,-97.988,-104.39,1_6_2.csv
2018-07-04T12:12:22.538171,-0.771,-0.227,0.255,-3.232,-97.134,-86.098,1_6_2.csv
2018-07-04T12:12:22.585800,-0.771,-0.227,0.255,-20.488,-77.683,-56.829,1_6_2.csv
2018-07-04T12:12:22.645462,-0.711,-0.189,0.202,-35.61,-19.329,42.134,1_6_2.csv
2018-07-04T12:12:22.694594,-0.868,-0.249,0.218,-34.573,11.037,109.756,1_6_2.csv
2018-07-04T12:12:22.746234,-0.868,-0.249,0.218,-50.61,34.39,167.622,1_6_2.csv
2018-07-04T12:12:22.804893,-1.343,-0.395,0.288,-93.171,70.549,241.707,1_6_2.csv
2018-07-04T12:12:22.851019,-1.296,-0.476,0.21,-94.817,43.598,216.524,1_6_2.csv
2018-07-04T12:12:22.902658,-1.296,-0.476,0.21,-76.22,27.378,149.512,1_6_2.csv
2018-07-04T12:12:22.945274,-1.065,-0.329,0.216,-31.159,22.744,66.098,1_6_2.csv
2018-07-04T12:12:22.992903,-1.065,-0.329,0.216,-26.341,6.098,-0.366,1_6_2.csv
2018-07-04T12:12:23.040128,-0.81,-0.271,0.227,-134.39,-18.354,-37.805,1_6_2.csv
2018-07-04T12:12:23.086254,-0.667,-0.351,0.249,-152.683,-18.841,-28.841,1_6_2.csv
2018-07-04T12:12:23.132379,-0.667,-0.351,0.249,-125.793,-10.061,-12.622,1_6_2.csv
2018-07-04T12:12:23.240672,-1.145,-0.39,0.508,-31.768,37.378,32.378,1_6_2.csv
2018-07-04T12:12:23.320388,-1.208,-0.364,0.543,19.39,39.817,8.049,1_6_2.csv
2018-07-04T12:12:23.366012,-1.208,-0.364,0.543,36.037,34.39,-5.671,1_6_2.csv
2018-07-04T12:12:23.416148,-1.176,-0.385,0.497,59.695,6.951,-9.024,1_6_2.csv
2018-07-04T12:12:23.459265,-1.176,-0.385,0.497,68.171,-33.354,-16.829,1_6_2.csv
2018-07-04T12:12:23.507897,-1.254,-0.336,0.302,51.768,-55.305,-32.561,1_6_2.csv
2018-07-04T12:12:23.556528,-1.254,-0.336,0.302,35.732,-77.683,-46.159,1_6_2.csv
2018-07-04T12:12:23.602653,-1.259,-0.294,0.141,-66.524,-123.781,-94.634,1_6_2.csv
2018-07-04T12:12:23.649280,-0.978,-0.262,0.099,-111.037,-108.171,-135.061,1_6_2.csv
2018-07-04T12:12:23.696909,-0.978,-0.262,0.099,-112.317,-86.098,-158.354,1_6_2.csv
2018-07-04T12:12:23.794172,-0.793,-0.347,0.019,51.768,-34.268,-111.22,1_6_2.csv
2018-07-04T12:12:23.836287,-0.682,-0.149,0.14,91.22,-19.085,-63.354,1_6_2.csv
2018-07-04T12:12:23.892940,-0.766,-0.095,0.301,1.646,27.5,36.28,1_6_2.csv
2018-07-04T12:12:23.930040,-0.766,-0.095,0.301,-38.049,54.817,90.061,1_6_2.csv
2018-07-04T12:12:23.977670,-1.25,-0.264,0.336,-49.817,78.232,151.281,1_6_2.csv
2018-07-04T12:12:24.025800,-1.25,-0.264,0.336,-50.854,98.049,206.951,1_6_2.csv
2018-07-04T12:12:24.116045,-1.431,-0.338,0.488,-30.244,43.232,194.817,1_6_2.csv
2018-07-04T12:12:24.163674,-1.233,-0.177,0.27,-47.317,19.329,135.122,1_6_2.csv
2018-07-04T12:12:24.217319,-0.925,-0.221,0.065,-194.207,-59.146,15.427,1_6_2.csv
2018-07-04T12:12:24.259433,-0.925,-0.221,0.065,-278.171,-76.585,-21.28,1_6_2.csv
2018-07-04T12:12:24.304054,-0.725,-0.485,-0.019,-297.256,-79.817,-32.256,1_6_2.csv
2018-07-04T12:12:24.354691,-0.725,-0.485,-0.019,-239.024,-65.976,-14.085,1_6_2.csv
2018-07-04T12:12:24.398811,-0.64,-0.415,0.046,-149.207,-43.232,16.28,1_6_2.csv
2018-07-04T12:12:24.447443,-0.803,-0.39,0.185,-81.402,15.244,56.768,1_6_2.csv
2018-07-04T12:12:24.496576,-0.803,-0.39,0.185,-66.707,50.427,71.707,1_6_2.csv
2018-07-04T12:12:24.586319,-1.26,-0.616,0.373,71.585,101.951,76.89,1_6_2.csv
2018-07-04T12:12:24.631442,-1.449,-0.426,0.538,154.268,98.354,38.598,1_6_2.csv
2018-07-04T12:12:24.680075,-1.449,-0.426,0.538,182.439,67.622,-9.268,1_6_2.csv
2018-07-04T12:12:24.726701,-1.082,-0.115,0.455,127.683,17.317,-49.512,1_6_2.csv
2018-07-04T12:12:24.773828,-0.968,-0.34,0.258,29.39,-23.78,-68.598,1_6_2.csv
2018-07-04T12:12:24.825969,-0.968,-0.34,0.258,104.939,-35.976,-42.073,1_6_2.csv
2018-07-04T12:12:24.882623,-1.002,-0.261,0.283,133.842,-63.11,-8.963,1_6_2.csv
2018-07-04T12:12:24.966349,-1.025,-0.19,0.138,-31.159,-82.012,-8.476,1_6_2.csv
2018-07-04T12:12:25.009466,-0.979,-0.337,0.01,-128.659,-91.89,-55.427,1_6_2.csv
2018-07-04T12:12:25.053586,-0.979,-0.337,0.01,-124.939,-80.061,-72.744,1_6_2.csv
2018-07-04T12:12:25.101215,-0.988,-0.388,0.084,-96.402,-55.427,-79.878,1_6_2.csv
2018-07-04T12:12:25.152855,-0.988,-0.388,0.084,-35.549,-24.756,-66.768,1_6_2.csv
2018-07-04T12:12:25.195129,-1.022,-0.323,0.214,50.366,2.439,-42.805,1_6_2.csv
2018-07-04T12:12:25.243259,-1.022,-0.323,0.214,130.61,37.317,-10.61,1_6_2.csv
2018-07-04T12:12:25.289885,-0.979,-0.073,0.266,51.951,64.085,60.854,1_6_2.csv
2018-07-04T12:12:25.334005,-0.896,-0.113,0.319,-41.829,62.5,87.683,1_6_2.csv
2018-07-04T12:12:25.381634,-0.896,-0.113,0.319,-82.561,56.098,99.695,1_6_2.csv
2018-07-04T12:12:25.437285,-1.063,-0.263,0.198,-81.463,35.061,104.817,1_6_2.csv
2018-07-04T12:12:25.477895,-1.063,-0.263,0.198,-92.866,2.683,98.049,1_6_2.csv
2018-07-04T12:12:25.521513,-0.929,-0.264,0.185,-141.281,-16.768,73.841,1_6_2.csv
2018-07-04T12:12:25.586192,-0.828,-0.417,0.203,-187.744,-6.402,29.939,1_6_2.csv
2018-07-04T12:12:25.632316,-0.828,-0.417,0.203,-140.0,2.256,36.22,1_6_2.csv
2018-07-04T12:12:25.677942,-0.824,-0.486,0.245,-65.427,18.659,49.207,1_6_2.csv
2018-07-04T12:12:25.873472,-1.376,-0.465,0.404,72.5,22.683,-31.585,1_6_2.csv
2018-07-04T12:12:25.992295,-1.141,-0.308,0.229,60.915,-46.037,-86.037,1_6_2.csv
2018-07-04T12:12:26.038921,-1.141,-0.308,0.229,57.5,-52.866,-68.049,1_6_2.csv
2018-07-04T12:12:26.086550,-1.032,-0.343,0.149,55.183,-71.159,-42.988,1_6_2.csv
2018-07-04T12:12:26.132226,-1.032,-0.343,0.149,18.598,-74.39,-35.244,1_6_2.csv
2018-07-04T12:12:26.180356,-0.865,-0.282,0.074,-37.012,-64.085,-66.159,1_6_2.csv
2018-07-04T12:12:26.229489,-0.796,-0.362,0.034,-26.89,-47.988,-65.976,1_6_2.csv
2018-07-04T12:12:26.272606,-0.796,-0.362,0.034,13.171,-30.549,-47.866,1_6_2.csv
2018-07-04T12:12:26.320737,-0.968,-0.352,0.137,56.951,-10.732,-15.183,1_6_2.csv
2018-07-04T12:12:26.368365,-0.968,-0.352,0.137,80.915,-0.915,14.756,1_6_2.csv
2018-07-04T12:12:26.413989,-1.091,-0.233,0.29,52.317,12.256,20.244,1_6_2.csv
2018-07-04T12:12:26.460114,-1.143,-0.229,0.284,7.5,26.951,13.293,1_6_2.csv
2018-07-04T12:12:26.515264,-1.143,-0.229,0.284,3.476,20.488,26.646,1_6_2.csv
2018-07-04T12:12:26.570413,-0.905,-0.149,0.333,-13.171,6.341,29.878,1_6_2.csv
2018-07-04T12:12:26.617039,-0.916,-0.146,0.305,-39.024,-0.854,20.793,1_6_2.csv
2018-07-04T12:12:26.663666,-0.916,-0.146,0.305,-44.695,-15.793,25.732,1_6_2.csv
2018-07-04T12:12:26.717813,-0.884,-0.162,0.272,-70.854,-25.183,31.402,1_6_2.csv
2018-07-04T12:12:26.760929,-0.884,-0.162,0.272,-99.512,-21.768,33.902,1_6_2.csv
2018-07-04T12:12:26.822095,-0.829,-0.253,0.28,-88.963,-8.902,49.146,1_6_2.csv
2018-07-04T12:12:26.872231,-0.821,-0.273,0.282,-86.646,2.073,57.744,1_6_2.csv
2018-07-04T12:12:26.917354,-0.821,-0.273,0.282,-91.159,9.329,63.11,1_6_2.csv
2018-07-04T12:12:26.966487,-0.899,-0.333,0.295,-94.817,17.988,66.829,1_6_2.csv
2018-07-04T12:12:27.063750,-1.061,-0.407,0.354,-51.524,34.878,39.756,1_6_2.csv
2018-07-04T12:12:27.117898,-1.218,-0.366,0.388,-42.256,28.11,15.976,1_6_2.csv
2018-07-04T12:12:27.164022,-1.218,-0.366,0.388,-54.817,12.134,-13.476,1_6_2.csv
2018-07-04T12:12:27.211150,-1.218,-0.371,0.444,-78.78,-1.037,-36.402,1_6_2.csv
2018-07-04T12:12:27.304403,-1.229,-0.413,0.322,-18.415,-59.634,-51.585,1_6_2.csv
2018-07-04T12:12:27.351029,-1.172,-0.322,0.228,-19.024,-81.768,-49.39,1_6_2.csv
2018-07-04T12:12:27.397656,-1.172,-0.322,0.228,-43.963,-92.5,-59.573,1_6_2.csv
2018-07-04T12:12:27.447290,-0.965,-0.251,0.222,-64.817,-91.22,-81.22,1_6_2.csv
2018-07-04T12:12:27.491911,-0.965,-0.251,0.222,-66.524,-85.915,-98.476,1_6_2.csv
2018-07-04T12:12:27.540041,-0.835,-0.252,0.162,-52.012,-82.622,-97.378,1_6_2.csv
2018-07-04T12:12:27.599703,-0.706,-0.2,0.158,-29.573,-70.305,-42.805,1_6_2.csv
2018-07-04T12:12:27.648836,-0.706,-0.2,0.158,-46.524,-61.585,-0.61,1_6_2.csv
2018-07-04T12:12:27.694460,-0.72,-0.216,0.129,-75.854,-44.024,47.5,1_6_2.csv
2018-07-04T12:12:27.743092,-1.048,-0.337,0.185,-98.78,0.488,153.598,1_6_2.csv
2018-07-04T12:12:27.789718,-1.048,-0.337,0.185,-83.049,20.244,209.329,1_6_2.csv
2018-07-04T12:12:27.835343,-1.661,-0.561,0.299,-94.268,34.39,252.5,1_6_2.csv
2018-07-04T12:12:27.892998,-1.661,-0.561,0.299,-135.244,-4.878,254.695,1_6_2.csv
2018-07-04T12:12:28.007308,-0.945,-0.298,0.206,-82.805,-36.585,-42.805,1_6_2.csv
2018-07-04T12:12:28.054937,-0.945,-0.298,0.206,-90.732,-52.622,-96.463,1_6_2.csv
2018-07-04T12:12:28.104162,-0.824,-0.412,0.151,-139.207,-70.549,-87.012,1_6_2.csv
2018-07-04T12:12:28.148281,-0.604,-0.227,0.27,-123.354,-66.402,-64.634,1_6_2.csv
2018-07-04T12:12:28.195910,-0.604,-0.227,0.27,-104.634,-49.756,-33.11,1_6_2.csv
2018-07-04T12:12:28.250057,-0.598,-0.288,0.417,-118.415,-25.305,8.049,1_6_2.csv
2018-07-04T12:12:28.303703,-0.598,-0.288,0.417,-146.768,0.061,46.951,1_6_2.csv
2018-07-04T12:12:28.351332,-1.013,-0.629,0.485,-193.049,-10.671,90.854,1_6_2.csv
2018-07-04T12:12:28.399462,-1.111,-0.932,0.265,-147.988,-27.988,83.78,1_6_2.csv
2018-07-04T12:12:28.445587,-1.111,-0.932,0.265,-42.256,-25.061,55.793,1_6_2.csv
2018-07-04T12:12:28.492214,-1.11,-0.767,0.307,45.915,-12.317,34.695,1_6_2.csv
2018-07-04T12:12:28.547363,-0.918,-0.502,0.295,44.817,-15.366,-31.585,1_6_2.csv
2018-07-04T12:12:28.591483,-0.918,-0.502,0.295,25.488,-15.61,-55.732,1_6_2.csv
2018-07-04T12:12:28.688747,-0.984,-0.547,0.149,30.305,-31.89,-60.244,1_6_2.csv
2018-07-04T12:12:28.728354,-0.936,-0.443,0.185,4.634,-31.585,-82.134,1_6_2.csv
2018-07-04T12:12:28.773478,-0.936,-0.443,0.185,-9.939,-23.232,-105.183,1_6_2.csv
2018-07-04T12:12:28.819601,-0.804,-0.461,0.224,0.122,-15.366,-112.378,1_6_2.csv
2018-07-04T12:12:28.883292,-0.675,-0.383,0.334,41.646,-8.293,-85.671,1_6_2.csv
2018-07-04T12:12:28.931421,-0.675,-0.383,0.334,32.927,-8.415,-62.195,1_6_2.csv
2018-07-04T12:12:28.981557,-0.693,-0.368,0.385,6.768,-8.841,-30.061,1_6_2.csv
2018-07-04T12:12:29.027180,-0.693,-0.368,0.385,-23.78,-10.854,8.598,1_6_2.csv
