time,accel_x_list,accel_y_list,accel_z_list,gyro_x_list,gyro_y_list,gyro_z_list,filename
2018-07-10T13:45:05.040849,0.917,-0.388,-0.092,92.927,-1.524,-31.22,4_10_1.csv
2018-07-10T13:45:05.085973,0.923,-0.232,-0.034,99.207,-5.366,-22.927,4_10_1.csv
2018-07-10T13:45:05.135104,0.923,-0.232,-0.034,65.732,-5.793,-4.146,4_10_1.csv
2018-07-10T13:45:05.181233,0.939,-0.209,-0.007,23.963,-4.146,11.829,4_10_1.csv
2018-07-10T13:45:05.241394,0.932,-0.257,-0.01,-12.317,-0.976,21.524,4_10_1.csv
2018-07-10T13:45:05.300307,0.932,-0.257,-0.01,4.146,-6.098,15.793,4_10_1.csv
2018-07-10T13:45:05.352447,0.967,-0.227,0.018,18.232,-3.78,-6.28,4_10_1.csv
2018-07-10T13:45:05.399575,0.931,-0.248,0.014,4.756,1.768,-10.305,4_10_1.csv
2018-07-10T13:45:05.447702,0.931,-0.248,0.014,3.171,1.585,-6.768,4_10_1.csv
2018-07-10T13:45:05.493830,0.902,-0.255,-0.034,0.427,2.561,-2.988,4_10_1.csv
2018-07-10T13:45:05.552490,0.9,-0.245,-0.049,-5.488,-4.817,-7.561,4_10_1.csv
2018-07-10T13:45:05.614156,0.9,-0.245,-0.049,4.207,-16.585,-14.207,4_10_1.csv
2018-07-10T13:45:05.665796,0.757,-0.211,0.089,3.78,-15.0,-8.171,4_10_1.csv
2018-07-10T13:45:05.716933,0.769,-0.255,0.021,-4.39,23.537,21.768,4_10_1.csv
2018-07-10T13:45:05.764057,0.769,-0.255,0.021,12.134,-12.073,0.549,4_10_1.csv
2018-07-10T13:45:05.869840,1.444,-0.143,0.05,-148.72,18.537,37.866,4_10_1.csv
2018-07-10T13:45:05.936018,1.444,-0.143,0.05,-294.939,8.598,81.098,4_10_1.csv
2018-07-10T13:45:05.989659,0.028,-0.427,-0.164,-70.305,53.902,-163.659,4_10_1.csv
2018-07-10T13:45:06.042801,-0.165,-0.16,0.122,119.268,59.146,-157.195,4_10_1.csv
2018-07-10T13:45:06.090427,-0.165,-0.16,0.122,105.549,14.146,-12.927,4_10_1.csv
2018-07-10T13:45:06.139560,0.379,-0.095,0.057,3.171,-59.695,27.012,4_10_1.csv
2018-07-10T13:45:06.181673,0.379,-0.095,0.057,7.683,0.366,82.988,4_10_1.csv
2018-07-10T13:45:06.242841,2.375,-0.175,-0.378,48.72,-7.683,26.402,4_10_1.csv
2018-07-10T13:45:06.304509,2.283,-0.334,-0.179,-125.793,-11.463,54.39,4_10_1.csv
2018-07-10T13:45:06.353142,-0.027,-0.531,-0.101,-20.244,53.902,-17.439,4_10_1.csv
2018-07-10T13:45:06.399768,-0.027,-0.531,-0.101,190.183,92.805,-77.866,4_10_1.csv
2018-07-10T13:45:06.447397,-0.509,0.071,-0.073,126.524,104.817,-38.354,4_10_1.csv
2018-07-10T13:45:06.504552,-0.509,0.071,-0.073,15.549,-126.829,-23.293,4_10_1.csv
2018-07-10T13:45:06.573739,0.621,-0.246,0.041,123.537,50.0,3.354,4_10_1.csv
2018-07-10T13:45:06.624879,2.157,-0.007,-0.211,143.293,28.476,2.317,4_10_1.csv
2018-07-10T13:45:06.681028,2.357,0.055,-0.063,-96.829,-26.463,86.402,4_10_1.csv
2018-07-10T13:45:06.727656,2.357,0.055,-0.063,-335.732,-53.78,101.281,4_10_1.csv
2018-07-10T13:45:06.775784,0.253,-0.871,-0.171,-247.866,76.463,36.646,4_10_1.csv
2018-07-10T13:45:06.822910,0.253,-0.871,-0.171,155.61,143.659,-118.171,4_10_1.csv
2018-07-10T13:45:06.881065,-0.716,-0.092,-0.212,119.207,-90.671,-42.622,4_10_1.csv
2018-07-10T13:45:06.936715,0.613,-0.192,-0.151,18.72,-195.427,-5.427,4_10_1.csv
2018-07-10T13:45:06.994371,1.892,0.094,-0.033,198.354,24.146,-5.366,4_10_1.csv
2018-07-10T13:45:07.039708,1.892,0.094,-0.033,157.317,-12.5,30.671,4_10_1.csv
2018-07-10T13:45:07.088839,2.464,0.401,-0.229,-77.195,-17.561,67.073,4_10_1.csv
2018-07-10T13:45:07.134967,2.464,0.401,-0.229,-433.049,-37.561,75.976,4_10_1.csv
2018-07-10T13:45:07.219954,0.599,-0.948,-0.377,180.122,54.268,-58.72,4_10_1.csv
2018-07-10T13:45:07.285127,-0.448,-0.017,-0.071,-50.732,-35.366,-39.39,4_10_1.csv
2018-07-10T13:45:07.338772,0.316,-0.086,0.152,-37.561,-83.11,-17.195,4_10_1.csv
2018-07-10T13:45:07.384895,0.316,-0.086,0.152,79.695,54.878,4.695,4_10_1.csv
2018-07-10T13:45:07.432522,1.207,-0.083,0.079,1.037,8.354,26.402,4_10_1.csv
2018-07-10T13:45:07.477642,2.767,-0.216,-0.551,-35.061,-33.415,53.171,4_10_1.csv
2018-07-10T13:45:07.543818,2.767,-0.216,-0.551,-91.951,30.549,52.378,4_10_1.csv
2018-07-10T13:45:07.593450,1.062,-0.722,-0.111,-171.159,12.073,52.805,4_10_1.csv
2018-07-10T13:45:07.665144,-0.705,-0.012,-0.123,190.0,98.902,-40.793,4_10_1.csv
2018-07-10T13:45:07.711267,-0.705,-0.012,-0.123,170.61,69.39,18.476,4_10_1.csv
2018-07-10T13:45:07.759401,0.293,0.068,0.086,97.561,-43.963,-60.0,4_10_1.csv
2018-07-10T13:45:07.807529,1.183,-0.05,0.047,97.256,91.585,46.524,4_10_1.csv
2018-07-10T13:45:07.871705,1.183,-0.05,0.047,25.488,-22.317,4.207,4_10_1.csv
2018-07-10T13:45:07.923846,2.742,-0.296,-0.306,-170.244,21.098,54.024,4_10_1.csv
2018-07-10T13:45:07.977993,1.363,-0.816,-0.093,-146.342,6.22,50.671,4_10_1.csv
2018-07-10T13:45:08.024118,1.363,-0.816,-0.093,60.549,35.366,6.646,4_10_1.csv
2018-07-10T13:45:08.073251,-0.608,0.206,-0.03,189.024,46.402,-5.61,4_10_1.csv
2018-07-10T13:45:08.118875,-0.608,0.206,-0.03,74.146,126.342,15.366,4_10_1.csv
2018-07-10T13:45:08.181544,0.066,0.046,-0.076,-68.11,-152.805,-35.488,4_10_1.csv
2018-07-10T13:45:08.234691,0.986,-0.298,0.276,2.317,115.244,-4.817,4_10_1.csv
2018-07-10T13:45:08.294851,2.694,-0.285,-0.424,-33.537,-36.037,19.085,4_10_1.csv
2018-07-10T13:45:08.340978,2.694,-0.285,-0.424,-127.683,28.415,38.354,4_10_1.csv
2018-07-10T13:45:08.385096,1.507,-0.747,-0.115,-174.817,-5.915,41.707,4_10_1.csv
2018-07-10T13:45:08.433228,1.507,-0.747,-0.115,-53.171,16.22,23.476,4_10_1.csv
2018-07-10T13:45:08.491383,-0.481,-0.154,-0.003,227.683,95.427,3.902,4_10_1.csv
2018-07-10T13:45:08.589649,-0.12,0.208,-0.111,-72.5,-171.951,-16.098,4_10_1.csv
2018-07-10T13:45:08.635273,0.893,-0.173,0.089,116.524,43.902,-28.598,4_10_1.csv
2018-07-10T13:45:08.690921,2.787,-0.079,-0.011,13.11,6.524,-1.159,4_10_1.csv
2018-07-10T13:45:08.748074,2.787,-0.079,-0.011,-242.073,21.89,61.951,4_10_1.csv
2018-07-10T13:45:08.790186,1.709,-0.853,-0.16,-277.134,34.878,40.061,4_10_1.csv
2018-07-10T13:45:08.838815,1.709,-0.853,-0.16,-78.11,18.354,29.756,4_10_1.csv
2018-07-10T13:45:08.883434,-0.42,-0.295,-0.098,233.354,75.732,-43.232,4_10_1.csv
2018-07-10T13:45:08.934069,-0.201,0.149,0.033,58.293,-26.951,-6.951,4_10_1.csv
2018-07-10T13:45:08.978187,-0.201,0.149,0.033,-65.61,-146.829,-5.488,4_10_1.csv
2018-07-10T13:45:09.029824,0.749,-0.268,-0.151,-33.354,-2.256,8.78,4_10_1.csv
2018-07-10T13:45:09.073441,0.749,-0.268,-0.151,29.756,-2.195,16.159,4_10_1.csv
2018-07-10T13:45:09.118561,2.541,-0.216,0.042,69.024,25.0,27.134,4_10_1.csv
2018-07-10T13:45:09.275293,-0.355,-0.207,-0.197,109.634,78.598,-45.183,4_10_1.csv
2018-07-10T13:45:09.328435,-0.225,0.151,0.075,110.427,-21.098,27.683,4_10_1.csv
2018-07-10T13:45:09.390606,-0.225,0.151,0.075,-16.951,-65.244,-41.22,4_10_1.csv
2018-07-10T13:45:09.442246,0.609,-0.24,0.135,-29.634,-72.622,-57.073,4_10_1.csv
2018-07-10T13:45:09.492883,2.519,-0.439,0.112,102.805,21.098,43.598,4_10_1.csv
2018-07-10T13:45:09.541015,2.519,-0.439,0.112,9.39,47.988,43.72,4_10_1.csv
2018-07-10T13:45:09.589146,2.049,-0.618,0.18,-254.207,89.817,62.805,4_10_1.csv
2018-07-10T13:45:09.634266,2.049,-0.618,0.18,-251.89,35.732,29.39,4_10_1.csv
2018-07-10T13:45:09.696436,-0.047,-0.526,-0.073,135.061,19.817,-50.366,4_10_1.csv
2018-07-10T13:45:09.753089,-0.384,0.085,0.118,150.488,13.293,19.512,4_10_1.csv
2018-07-10T13:45:09.808740,0.291,-0.231,0.11,-4.939,-42.866,-27.866,4_10_1.csv
2018-07-10T13:45:09.855367,0.291,-0.231,0.11,14.451,-30.61,-46.28,4_10_1.csv
2018-07-10T13:45:09.944103,2.006,-0.41,-0.464,130.488,-51.402,-10.366,4_10_1.csv
2018-07-10T13:45:10.005266,2.479,-0.018,0.309,-55.366,184.573,86.646,4_10_1.csv
2018-07-10T13:45:10.055901,0.644,-0.685,0.375,-269.451,-225.61,-16.037,4_10_1.csv
2018-07-10T13:45:10.103528,0.644,-0.685,0.375,-33.11,103.232,-34.085,4_10_1.csv
2018-07-10T13:45:10.151155,-0.571,-0.071,-0.265,86.585,247.073,-41.098,4_10_1.csv
2018-07-10T13:45:10.197779,-0.571,-0.071,-0.265,87.683,30.305,29.207,4_10_1.csv
2018-07-10T13:45:10.256937,0.115,-0.033,0.005,47.744,-1.707,-17.256,4_10_1.csv
2018-07-10T13:45:10.319102,1.304,-0.455,-0.055,91.037,-92.988,-47.805,4_10_1.csv
2018-07-10T13:45:10.385780,2.982,-0.046,-0.177,76.524,-0.183,-7.866,4_10_1.csv
2018-07-10T13:45:10.430901,2.982,-0.046,-0.177,-142.683,123.354,57.622,4_10_1.csv
2018-07-10T13:45:10.479029,1.023,-0.491,0.58,-292.622,-82.866,84.939,4_10_1.csv
2018-07-10T13:45:10.523647,1.023,-0.491,0.58,-173.415,-57.317,37.378,4_10_1.csv
2018-07-10T13:45:10.586816,-0.67,-0.145,-0.09,49.939,198.171,-48.659,4_10_1.csv
2018-07-10T13:45:10.645472,0.006,-0.048,-0.103,-65.427,-30.122,3.415,4_10_1.csv
2018-07-10T13:45:10.697110,1.289,-0.519,0.024,-15.915,75.183,-20.976,4_10_1.csv
2018-07-10T13:45:10.744236,1.289,-0.519,0.024,53.598,-28.72,-29.939,4_10_1.csv
2018-07-10T13:45:10.792364,2.792,-0.015,-0.232,74.207,-66.707,61.89,4_10_1.csv
2018-07-10T13:45:10.856535,1.358,-0.296,0.383,-82.195,-4.573,58.598,4_10_1.csv
2018-07-10T13:45:10.927725,1.358,-0.296,0.383,-345.305,-32.378,-170.732,4_10_1.csv
2018-07-10T13:45:10.990893,-0.132,-1.036,-0.002,107.073,172.378,-1.341,4_10_1.csv
2018-07-10T13:45:11.060579,-0.123,-0.065,-0.227,123.293,-41.098,-12.805,4_10_1.csv
2018-07-10T13:45:11.105699,0.618,-0.147,0.014,98.232,-14.268,16.037,4_10_1.csv
2018-07-10T13:45:11.150318,0.618,-0.147,0.014,107.683,-56.707,35.122,4_10_1.csv
2018-07-10T13:45:11.198449,2.584,0.051,-0.298,126.951,-21.646,16.28,4_10_1.csv
2018-07-10T13:45:11.436731,-0.352,-0.112,-0.054,131.098,82.073,-3.902,4_10_1.csv
2018-07-10T13:45:11.494890,-0.352,-0.112,-0.054,86.341,-70.427,4.024,4_10_1.csv
2018-07-10T13:45:11.541013,0.676,-0.084,0.027,-3.78,48.841,-7.256,4_10_1.csv
2018-07-10T13:45:11.587142,2.343,-0.096,-0.218,-39.024,25.488,-19.573,4_10_1.csv
2018-07-10T13:45:11.636273,2.343,-0.096,-0.218,-79.878,8.72,44.207,4_10_1.csv
2018-07-10T13:45:11.681395,2.154,-0.163,0.096,-99.39,-29.024,59.146,4_10_1.csv
2018-07-10T13:45:11.740053,0.505,-0.381,0.525,-33.11,-110.61,-186.098,4_10_1.csv
2018-07-10T13:45:11.808735,0.505,-0.381,0.525,-395.244,3.72,-33.293,4_10_1.csv
2018-07-10T13:45:11.868895,-0.441,-0.928,-0.024,179.817,20.183,-1.951,4_10_1.csv
2018-07-10T13:45:11.931061,0.406,-0.053,-0.166,210.854,15.183,5.549,4_10_1.csv
2018-07-10T13:45:11.978688,0.406,-0.053,-0.166,108.049,81.22,44.512,4_10_1.csv
2018-07-10T13:45:12.025813,1.989,-0.027,-0.124,-60.854,-60.488,126.22,4_10_1.csv
2018-07-10T13:45:12.087049,2.516,-0.058,-0.067,-20.183,-107.5,143.659,4_10_1.csv
2018-07-10T13:45:12.143199,0.533,-0.548,0.671,87.622,-32.927,-82.256,4_10_1.csv
2018-07-10T13:45:12.198346,0.533,-0.548,0.671,-4.634,-70.61,-101.098,4_10_1.csv
2018-07-10T13:45:12.244468,-0.468,-0.148,0.328,133.293,36.28,76.768,4_10_1.csv
2018-07-10T13:45:12.292095,-0.468,-0.148,0.328,50.244,53.78,106.707,4_10_1.csv
2018-07-10T13:45:12.337717,0.272,-0.024,-0.076,-87.256,-53.171,-16.037,4_10_1.csv
2018-07-10T13:45:12.397879,1.69,-0.197,-0.106,203.963,90.183,-29.939,4_10_1.csv
2018-07-10T13:45:12.454031,1.69,-0.197,-0.106,178.232,50.732,-91.463,4_10_1.csv
2018-07-10T13:45:12.513191,2.478,0.139,-0.229,-440.305,-14.268,37.195,4_10_1.csv
2018-07-10T13:45:12.558313,1.018,-0.983,0.398,-184.451,-127.439,-84.085,4_10_1.csv
2018-07-10T13:45:12.607447,1.018,-0.983,0.398,-97.561,-29.207,-156.402,4_10_1.csv
2018-07-10T13:45:12.712732,0.167,0.027,-0.03,-6.28,-42.012,12.683,4_10_1.csv
2018-07-10T13:45:12.781921,0.167,0.027,-0.03,21.768,44.634,37.439,4_10_1.csv
2018-07-10T13:45:12.830049,1.306,-0.197,-0.061,1.463,34.878,5.427,4_10_1.csv
2018-07-10T13:45:12.889212,2.658,-0.149,-0.052,-8.476,10.732,45.854,4_10_1.csv
2018-07-10T13:45:12.930322,2.658,-0.149,-0.052,-4.451,-41.402,47.561,4_10_1.csv
2018-07-10T13:45:12.985473,1.183,-0.371,0.33,53.598,-48.11,-117.134,4_10_1.csv
2018-07-10T13:45:13.023575,1.183,-0.371,0.33,53.598,-48.11,-117.134,4_10_1.csv
2018-07-10T13:45:13.088754,-0.398,-0.484,0.378,-25.183,-7.439,-52.012,4_10_1.csv
2018-07-10T13:45:13.157439,0.071,-0.378,0.117,6.951,37.073,21.524,4_10_1.csv
2018-07-10T13:45:13.227127,0.964,-0.203,0.023,76.463,34.268,3.72,4_10_1.csv
2018-07-10T13:45:13.274257,2.702,0.073,-0.141,27.561,7.378,25.854,4_10_1.csv
2018-07-10T13:45:13.322386,2.702,0.073,-0.141,-77.805,3.537,74.39,4_10_1.csv
2018-07-10T13:45:13.369012,1.609,-0.183,0.237,-107.988,-10.183,61.707,4_10_1.csv
2018-07-10T13:45:13.428170,-0.328,-0.808,0.378,-99.878,-66.89,-119.939,4_10_1.csv
2018-07-10T13:45:13.491339,-0.328,-0.808,0.378,80.976,18.049,20.244,4_10_1.csv
2018-07-10T13:45:13.582582,-0.127,-0.157,0.133,5.915,-16.463,7.378,4_10_1.csv
2018-07-10T13:45:13.637227,0.734,-0.212,0.043,80.183,58.659,-6.707,4_10_1.csv
2018-07-10T13:45:13.684855,2.472,0.053,-0.144,73.598,50.244,-24.268,4_10_1.csv
2018-07-10T13:45:13.731980,2.472,0.053,-0.144,-54.939,35.61,73.415,4_10_1.csv
2018-07-10T13:45:13.800161,1.938,-0.205,0.147,-85.915,-40.61,-69.695,4_10_1.csv
2018-07-10T13:45:13.850295,0.235,-0.313,0.239,13.293,-48.171,-133.963,4_10_1.csv
2018-07-10T13:45:13.899426,0.235,-0.313,0.239,-75.732,-2.5,-89.024,4_10_1.csv
2018-07-10T13:45:13.947053,-0.195,-0.536,0.286,-213.781,-22.927,-87.012,4_10_1.csv
2018-07-10T13:45:14.035792,0.421,-0.547,-0.023,159.573,62.5,-3.293,4_10_1.csv
2018-07-10T13:45:14.087931,2.344,0.133,-0.134,171.707,114.878,-11.159,4_10_1.csv
2018-07-10T13:45:14.164139,2.205,0.006,0.247,-133.415,-19.573,186.281,4_10_1.csv
2018-07-10T13:45:14.221297,2.205,0.006,0.247,-104.085,-76.585,47.622,4_10_1.csv
2018-07-10T13:45:14.275442,0.21,-0.394,0.365,23.72,-15.305,-78.11,4_10_1.csv
2018-07-10T13:45:14.322572,-0.396,-0.296,0.247,45.854,24.329,-17.561,4_10_1.csv
2018-07-10T13:45:14.369698,-0.396,-0.296,0.247,60.732,-16.89,4.939,4_10_1.csv
2018-07-10T13:45:14.415324,0.322,-0.159,0.048,15.0,7.317,-9.573,4_10_1.csv
2018-07-10T13:45:14.475986,1.728,-0.131,-0.091,22.927,49.085,-40.061,4_10_1.csv
2018-07-10T13:45:14.533144,1.728,-0.131,-0.091,-32.134,37.439,1.646,4_10_1.csv
2018-07-10T13:45:14.587290,2.53,-0.013,-0.037,-107.256,-18.232,104.207,4_10_1.csv
2018-07-10T13:45:14.638098,0.851,-0.273,0.477,48.476,-62.5,-32.378,4_10_1.csv
2018-07-10T13:45:14.698259,0.851,-0.273,0.477,85.915,-76.707,-112.439,4_10_1.csv
2018-07-10T13:45:14.753909,-0.341,-0.618,0.498,-85.549,65.854,68.476,4_10_1.csv
2018-07-10T13:45:14.819584,0.069,-0.255,0.028,52.561,-35.915,52.439,4_10_1.csv
2018-07-10T13:45:14.869217,0.069,-0.255,0.028,73.841,27.683,35.732,4_10_1.csv
2018-07-10T13:45:14.915340,1.708,-0.021,-0.194,21.951,112.5,-19.329,4_10_1.csv
2018-07-10T13:45:14.961966,2.45,0.0,0.044,-108.659,71.585,69.451,4_10_1.csv
2018-07-10T13:45:15.020121,2.45,0.0,0.044,-115.427,-77.5,80.793,4_10_1.csv
2018-07-10T13:45:15.079281,0.982,-0.273,0.377,77.744,-27.805,-155.671,4_10_1.csv
2018-07-10T13:45:15.134929,-0.249,-0.6,0.474,-150.976,-34.085,-118.781,4_10_1.csv
2018-07-10T13:45:15.181554,-0.249,-0.6,0.474,-137.256,10.732,-25.854,4_10_1.csv
2018-07-10T13:45:15.229682,0.082,-0.425,-0.055,69.329,-19.146,-4.573,4_10_1.csv
2018-07-10T13:45:15.281320,1.081,-0.026,-0.086,118.232,78.902,-1.159,4_10_1.csv
2018-07-10T13:45:15.340477,1.081,-0.026,-0.086,23.537,76.098,9.573,4_10_1.csv
2018-07-10T13:45:15.465310,1.624,-0.296,0.354,38.841,-50.793,28.11,4_10_1.csv
2018-07-10T13:45:15.516449,1.624,-0.296,0.354,136.22,-81.037,-89.817,4_10_1.csv
2018-07-10T13:45:15.572598,0.026,-0.365,0.408,92.683,37.195,31.341,4_10_1.csv
2018-07-10T13:45:15.623739,-0.257,0.057,0.1,108.659,10.549,95.244,4_10_1.csv
2018-07-10T13:45:15.681896,0.927,-0.297,-0.095,45.793,-45.61,-18.476,4_10_1.csv
2018-07-10T13:45:15.727019,0.927,-0.297,-0.095,136.707,-25.366,-70.549,4_10_1.csv
2018-07-10T13:45:15.779160,2.328,0.076,-0.387,208.842,24.207,-78.171,4_10_1.csv
2018-07-10T13:45:15.826288,2.328,0.076,-0.387,85.427,114.939,2.012,4_10_1.csv
2018-07-10T13:45:15.888958,1.824,0.022,-0.022,-260.976,12.378,74.207,4_10_1.csv
2018-07-10T13:45:15.946614,0.097,-0.603,0.159,-196.342,-23.049,-69.329,4_10_1.csv
2018-07-10T13:45:15.994746,0.097,-0.603,0.159,-52.5,-9.756,-36.951,4_10_1.csv
2018-07-10T13:45:16.043878,-0.365,-0.329,0.175,55.976,-69.085,-16.585,4_10_1.csv
2018-07-10T13:45:16.104043,0.722,-0.187,0.089,84.024,5.549,-33.537,4_10_1.csv
2018-07-10T13:45:16.167212,2.304,-0.002,-0.067,60.732,37.256,-2.317,4_10_1.csv
2018-07-10T13:45:16.226373,2.304,-0.002,-0.067,-5.244,18.963,90.915,4_10_1.csv
2018-07-10T13:45:16.290547,1.956,-0.058,0.089,-52.805,8.049,24.39,4_10_1.csv
2018-07-10T13:45:16.336673,-0.001,-0.409,0.349,13.537,-11.768,-98.78,4_10_1.csv
2018-07-10T13:45:16.388814,-0.001,-0.409,0.349,-9.146,-27.134,-88.293,4_10_1.csv
2018-07-10T13:45:16.440957,-0.467,-0.329,0.189,-49.085,37.012,-17.378,4_10_1.csv
2018-07-10T13:45:16.499113,0.815,-0.424,-0.027,25.549,-1.037,-71.585,4_10_1.csv
2018-07-10T13:45:16.544734,0.815,-0.424,-0.027,125.793,93.476,-50.61,4_10_1.csv
2018-07-10T13:45:16.589855,2.195,0.095,-0.127,149.146,78.11,-17.622,4_10_1.csv
2018-07-10T13:45:16.638986,2.195,0.095,-0.127,38.049,43.049,134.939,4_10_1.csv
2018-07-10T13:45:16.694133,2.281,0.22,0.056,-142.927,-11.951,89.756,4_10_1.csv
2018-07-10T13:45:16.834006,-0.117,-0.426,0.397,-153.842,-64.39,-98.902,4_10_1.csv
2018-07-10T13:45:16.884641,0.3,-0.414,-0.102,-11.951,56.098,-20.0,4_10_1.csv
2018-07-10T13:45:16.932268,0.3,-0.414,-0.102,82.683,85.793,8.963,4_10_1.csv
2018-07-10T13:45:16.981900,1.504,-0.105,-0.03,81.768,63.537,22.256,4_10_1.csv
2018-07-10T13:45:17.032034,1.504,-0.105,-0.03,2.073,31.829,62.561,4_10_1.csv
2018-07-10T13:45:17.086682,2.455,-0.009,-0.028,-83.11,-37.439,135.366,4_10_1.csv
2018-07-10T13:45:17.134810,0.745,-0.322,0.252,22.134,-8.841,9.39,4_10_1.csv
2018-07-10T13:45:17.181940,0.745,-0.322,0.252,64.573,-41.098,-78.171,4_10_1.csv
2018-07-10T13:45:17.228063,-0.408,-0.369,0.306,-16.037,-35.061,-54.939,4_10_1.csv
2018-07-10T13:45:17.287225,0.162,-0.371,0.159,25.183,-45.854,-35.671,4_10_1.csv
2018-07-10T13:45:17.359921,0.162,-0.371,0.159,93.293,15.366,-6.463,4_10_1.csv
2018-07-10T13:45:17.414569,1.426,-0.217,0.05,127.744,36.524,-31.098,4_10_1.csv
2018-07-10T13:45:17.462198,2.68,0.141,-0.024,14.329,45.0,79.512,4_10_1.csv
2018-07-10T13:45:17.509827,2.68,0.141,-0.024,-185.0,42.073,136.22,4_10_1.csv
2018-07-10T13:45:17.557456,1.162,-0.381,0.23,-152.439,-8.78,31.402,4_10_1.csv
2018-07-10T13:45:17.616115,-0.373,-0.349,0.288,58.293,-24.634,-84.695,4_10_1.csv
2018-07-10T13:45:17.675278,-0.373,-0.349,0.288,-15.244,26.22,-22.134,4_10_1.csv
2018-07-10T13:45:17.727417,-0.084,-0.272,0.163,-51.768,14.085,-24.085,4_10_1.csv
2018-07-10T13:45:17.776554,0.896,-0.28,0.057,36.159,48.476,-18.049,4_10_1.csv
2018-07-10T13:45:17.823679,0.896,-0.28,0.057,72.012,51.89,-65.183,4_10_1.csv
2018-07-10T13:45:17.868802,2.652,0.043,-0.031,7.561,62.317,-22.256,4_10_1.csv
2018-07-10T13:45:17.927962,2.652,0.043,-0.031,-169.085,32.988,94.573,4_10_1.csv
2018-07-10T13:45:17.990133,1.782,-0.347,0.302,65.061,-66.829,-41.159,4_10_1.csv
2018-07-10T13:45:18.044277,-0.074,-0.693,0.413,49.573,-74.207,-120.61,4_10_1.csv
2018-07-10T13:45:18.124496,-0.243,-0.192,0.096,228.537,6.402,36.89,4_10_1.csv
2018-07-10T13:45:18.167614,-0.243,-0.192,0.096,179.39,-22.805,16.951,4_10_1.csv
2018-07-10T13:45:18.211735,0.51,0.027,0.069,-18.537,46.463,-0.61,4_10_1.csv
2018-07-10T13:45:18.270898,2.192,-0.01,-0.091,-69.268,55.793,10.0,4_10_1.csv
2018-07-10T13:45:18.340082,2.289,-0.04,0.102,-127.988,14.329,121.159,4_10_1.csv
2018-07-10T13:45:18.386207,2.289,-0.04,0.102,-48.72,16.098,15.793,4_10_1.csv
2018-07-10T13:45:18.430826,0.431,-0.517,0.423,-61.89,-29.39,-124.817,4_10_1.csv
2018-07-10T13:45:18.477952,0.431,-0.517,0.423,-238.476,-71.707,-159.085,4_10_1.csv
2018-07-10T13:45:18.523576,-0.326,-0.801,0.058,-81.829,40.854,22.317,4_10_1.csv
2018-07-10T13:45:18.590757,0.314,-0.158,0.009,149.817,39.146,-7.256,4_10_1.csv
2018-07-10T13:45:18.646909,0.314,-0.158,0.009,137.622,80.122,19.756,4_10_1.csv
2018-07-10T13:45:18.697045,1.836,0.008,0.075,-33.232,-7.317,72.561,4_10_1.csv
2018-07-10T13:45:18.747181,2.368,-0.027,0.082,-115.61,-40.0,128.232,4_10_1.csv
2018-07-10T13:45:18.795813,2.368,-0.027,0.082,-52.561,-23.598,47.805,4_10_1.csv
2018-07-10T13:45:18.840434,0.607,-0.295,0.311,80.671,-29.207,-73.171,4_10_1.csv
2018-07-10T13:45:18.901600,-0.243,-0.386,0.341,-34.939,-52.622,-112.866,4_10_1.csv
2018-07-10T13:45:18.955747,-0.243,-0.386,0.341,-144.695,-50.671,-94.634,4_10_1.csv
2018-07-10T13:45:19.008893,0.242,-0.525,0.09,-59.146,-1.22,-26.707,4_10_1.csv
2018-07-10T13:45:19.057021,1.736,0.01,-0.093,120.427,49.512,4.817,4_10_1.csv
2018-07-10T13:45:19.105155,1.736,0.01,-0.093,-0.061,71.524,50.183,4_10_1.csv
2018-07-10T13:45:19.149272,2.502,0.038,0.076,-191.342,-3.171,197.805,4_10_1.csv
2018-07-10T13:45:19.211443,2.502,0.038,0.076,-185.488,-102.805,169.024,4_10_1.csv
2018-07-10T13:45:19.271603,0.904,-0.842,0.45,-82.988,5.915,-62.5,4_10_1.csv
2018-07-10T13:45:19.322745,-0.353,-0.479,0.121,16.768,62.256,71.585,4_10_1.csv
2018-07-10T13:45:19.367865,-0.353,-0.479,0.121,-14.634,56.524,86.829,4_10_1.csv
2018-07-10T13:45:19.490199,0.865,-0.091,-0.024,132.5,65.122,-22.622,4_10_1.csv
2018-07-10T13:45:19.541338,2.363,-0.15,-0.091,19.146,1.037,-70.183,4_10_1.csv
2018-07-10T13:45:19.605514,2.363,-0.15,-0.091,-16.524,-16.646,48.293,4_10_1.csv
2018-07-10T13:45:19.659658,1.852,-0.122,0.254,82.378,-71.646,-39.573,4_10_1.csv
2018-07-10T13:45:19.712805,0.235,-0.251,0.631,55.183,-95.671,-121.585,4_10_1.csv
2018-07-10T13:45:19.758928,0.235,-0.251,0.631,-204.207,-82.5,-77.195,4_10_1.csv
2018-07-10T13:45:19.808563,-0.174,-0.726,0.222,-228.537,10.122,6.951,4_10_1.csv
2018-07-10T13:45:19.852681,-0.174,-0.726,0.222,5.244,16.89,57.805,4_10_1.csv
2018-07-10T13:45:19.914846,0.375,-0.25,0.022,108.354,32.561,2.134,4_10_1.csv
2018-07-10T13:45:19.976009,2.427,0.058,-0.24,106.159,56.098,-37.012,4_10_1.csv
2018-07-10T13:45:20.025140,2.099,-0.143,0.074,-118.72,-15.0,65.488,4_10_1.csv
2018-07-10T13:45:20.073268,2.099,-0.143,0.074,-64.085,-76.768,-11.646,4_10_1.csv
2018-07-10T13:45:20.119893,0.018,-0.501,0.389,65.427,-69.207,-98.354,4_10_1.csv
2018-07-10T13:45:20.181556,-0.24,-0.426,0.328,-43.598,-13.963,12.622,4_10_1.csv
2018-07-10T13:45:20.242221,-0.24,-0.426,0.328,-69.329,-15.183,2.5,4_10_1.csv
2018-07-10T13:45:20.305392,0.438,-0.313,-0.039,115.427,34.329,-11.951,4_10_1.csv
2018-07-10T13:45:20.352520,2.386,0.154,-0.215,41.707,77.805,-29.085,4_10_1.csv
2018-07-10T13:45:20.414689,2.386,0.154,-0.215,-65.488,74.756,93.232,4_10_1.csv
2018-07-10T13:45:20.463820,2.025,-0.13,0.054,-66.524,-123.354,60.549,4_10_1.csv
2018-07-10T13:45:20.508945,0.13,-0.375,0.254,80.671,-37.744,-103.659,4_10_1.csv
2018-07-10T13:45:20.571111,0.13,-0.375,0.254,35.671,34.329,-85.854,4_10_1.csv
2018-07-10T13:45:20.626264,-0.229,-0.367,0.176,-80.793,-37.988,-48.354,4_10_1.csv
2018-07-10T13:45:20.680409,0.353,-0.417,-0.028,103.415,28.232,-16.707,4_10_1.csv
2018-07-10T13:45:20.728542,0.353,-0.417,-0.028,209.451,26.463,-33.293,4_10_1.csv
2018-07-10T13:45:20.776670,2.102,0.092,-0.235,119.573,29.512,-28.293,4_10_1.csv
2018-07-10T13:45:20.998009,-0.38,-0.264,0.329,61.463,-1.098,35.549,4_10_1.csv
2018-07-10T13:45:21.056670,-0.38,-0.264,0.329,-0.854,16.463,87.195,4_10_1.csv
2018-07-10T13:45:21.126363,0.027,-0.164,0.082,-15.0,23.598,9.939,4_10_1.csv
2018-07-10T13:45:21.180508,1.638,-0.21,-0.063,86.524,32.866,-37.012,4_10_1.csv
2018-07-10T13:45:21.259220,2.472,0.044,-0.071,-7.988,96.707,15.366,4_10_1.csv
2018-07-10T13:45:21.306345,1.042,-0.568,0.358,-92.5,-60.366,-59.634,4_10_1.csv
2018-07-10T13:45:21.351967,1.042,-0.568,0.358,7.317,-71.829,-160.671,4_10_1.csv
2018-07-10T13:45:21.413132,-0.239,-0.518,0.267,4.878,-25.976,-154.329,4_10_1.csv
2018-07-10T13:45:21.473295,0.111,-0.497,-0.104,-27.195,-36.098,-109.39,4_10_1.csv
2018-07-10T13:45:21.540477,0.111,-0.497,-0.104,83.049,32.744,-74.695,4_10_1.csv
2018-07-10T13:45:21.586602,1.348,-0.237,-0.368,164.512,55.854,-43.72,4_10_1.csv
2018-07-10T13:45:21.636234,2.862,0.74,-0.095,144.451,248.537,189.146,4_10_1.csv
2018-07-10T13:45:21.680853,2.862,0.74,-0.095,-116.707,114.024,382.256,4_10_1.csv
2018-07-10T13:45:21.743520,1.092,-0.39,0.521,-245.793,-70.061,275.671,4_10_1.csv
2018-07-10T13:45:21.807691,-0.396,-0.011,0.504,240.366,-143.171,-78.232,4_10_1.csv
2018-07-10T13:45:21.861835,-0.396,-0.011,0.504,268.293,-23.293,31.646,4_10_1.csv
2018-07-10T13:45:21.915481,-0.068,0.431,0.147,-73.659,1.098,-130.244,4_10_1.csv
2018-07-10T13:45:21.962608,1.235,-0.093,0.021,-21.951,37.195,-79.268,4_10_1.csv
2018-07-10T13:45:22.007731,1.235,-0.093,0.021,-108.11,80.305,-66.829,4_10_1.csv
2018-07-10T13:45:22.070904,2.246,0.071,-0.162,-217.683,51.402,55.61,4_10_1.csv
2018-07-10T13:45:22.126051,1.831,-0.439,0.085,-157.195,-24.573,-50.183,4_10_1.csv
2018-07-10T13:45:22.214292,0.25,-0.665,0.406,-36.463,-81.098,-263.293,4_10_1.csv
2018-07-10T13:45:22.263426,0.25,-0.665,0.406,24.329,4.695,-155.183,4_10_1.csv
2018-07-10T13:45:22.311556,-0.129,-0.48,0.325,-14.024,2.683,-81.707,4_10_1.csv
2018-07-10T13:45:22.353668,0.743,-0.402,0.14,-27.561,65.732,35.061,4_10_1.csv
2018-07-10T13:45:22.414838,0.743,-0.402,0.14,-19.695,30.122,90.976,4_10_1.csv
2018-07-10T13:45:22.471997,2.592,0.076,0.019,-46.707,18.841,267.256,4_10_1.csv
2018-07-10T13:45:22.524134,1.977,-0.005,0.122,-70.305,-55.915,256.707,4_10_1.csv
2018-07-10T13:45:22.572765,1.977,-0.005,0.122,-173.842,-113.659,162.134,4_10_1.csv
2018-07-10T13:45:22.619891,0.238,-0.795,-0.049,-244.573,-107.439,44.817,4_10_1.csv
2018-07-10T13:45:22.680553,0.005,-0.351,0.011,423.232,-123.842,39.146,4_10_1.csv
2018-07-10T13:45:22.748738,0.005,-0.351,0.011,523.72,-119.878,103.476,4_10_1.csv
2018-07-10T13:45:22.805895,0.494,0.191,0.055,265.366,50.549,124.146,4_10_1.csv
2018-07-10T13:45:22.873074,1.516,0.082,0.036,378.232,-31.646,-115.305,4_10_1.csv
2018-07-10T13:45:22.930231,2.166,0.219,-0.109,-187.5,-66.463,-231.281,4_10_1.csv
2018-07-10T13:45:22.978363,2.166,0.219,-0.109,-502.073,-67.012,-237.012,4_10_1.csv
2018-07-10T13:45:23.023168,1.549,-0.694,0.032,-533.171,-98.537,-235.671,4_10_1.csv
2018-07-10T13:45:23.084333,0.264,-0.758,0.214,-40.915,-11.707,-226.524,4_10_1.csv
2018-07-10T13:45:23.158533,0.153,-0.706,0.352,34.085,-8.11,-186.037,4_10_1.csv
2018-07-10T13:45:23.227719,0.153,-0.706,0.352,-7.5,-27.256,-167.866,4_10_1.csv
2018-07-10T13:45:23.274343,1.843,-0.609,-0.21,88.659,24.39,-116.402,4_10_1.csv
2018-07-10T13:45:23.323976,2.92,0.02,-0.042,-82.622,121.89,335.61,4_10_1.csv
2018-07-10T13:45:23.379624,2.92,0.02,-0.042,-249.695,-33.232,490.854,4_10_1.csv
2018-07-10T13:45:23.432765,1.571,-0.681,-0.111,-152.866,-206.159,433.598,4_10_1.csv
2018-07-10T13:45:23.481897,0.767,0.801,0.051,313.293,-116.402,315.915,4_10_1.csv
2018-07-10T13:45:23.574643,0.319,0.825,0.329,-39.146,48.841,227.561,4_10_1.csv
2018-07-10T13:45:23.622772,0.319,0.825,0.329,-44.329,-21.341,21.037,4_10_1.csv
2018-07-10T13:45:23.679926,1.185,-0.321,-0.084,156.951,38.72,-226.22,4_10_1.csv
2018-07-10T13:45:23.730063,2.32,-0.681,0.112,211.829,63.354,-425.061,4_10_1.csv
2018-07-10T13:45:23.790225,2.32,-0.681,0.112,45.976,-79.756,-553.11,4_10_1.csv
2018-07-10T13:45:23.837855,2.155,-0.563,0.364,-326.037,-183.415,-371.585,4_10_1.csv
2018-07-10T13:45:23.885484,0.011,-1.129,-0.116,-295.854,13.659,-199.024,4_10_1.csv
2018-07-10T13:45:23.931609,0.011,-1.129,-0.116,-101.829,114.146,-118.842,4_10_1.csv
2018-07-10T13:45:23.990769,-0.022,-0.607,-0.162,-52.073,70.793,-28.049,4_10_1.csv
2018-07-10T13:45:24.052940,1.619,-0.442,-0.026,-134.268,74.512,33.598,4_10_1.csv
2018-07-10T13:45:24.103073,1.619,-0.442,-0.026,-154.939,-44.39,91.585,4_10_1.csv
2018-07-10T13:45:24.151205,2.877,-0.615,-0.006,-130.244,-228.537,176.463,4_10_1.csv
2018-07-10T13:45:24.198330,2.877,-0.615,-0.006,56.585,-291.951,231.89,4_10_1.csv
2018-07-10T13:45:24.245459,1.284,-0.466,-0.019,417.012,-109.512,114.573,4_10_1.csv
2018-07-10T13:45:24.308630,-0.085,1.036,0.029,436.463,-14.329,144.817,4_10_1.csv
2018-07-10T13:45:24.358768,-0.085,1.036,0.029,258.659,59.939,168.293,4_10_1.csv
2018-07-10T13:45:24.431464,0.373,0.406,0.282,-88.415,-20.915,21.89,4_10_1.csv
2018-07-10T13:45:24.477088,1.646,-0.259,-0.096,-23.841,-49.939,-15.488,4_10_1.csv
2018-07-10T13:45:24.525217,2.449,-0.568,0.095,-45.976,106.402,-176.22,4_10_1.csv
2018-07-10T13:45:24.572348,2.449,-0.568,0.095,-211.646,66.037,-266.463,4_10_1.csv
2018-07-10T13:45:24.632509,1.281,-1.139,0.14,-272.134,28.78,-240.061,4_10_1.csv
2018-07-10T13:45:24.692671,-0.419,-0.842,0.033,-124.573,89.329,-123.476,4_10_1.csv
2018-07-10T13:45:24.747823,-0.419,-0.842,0.033,-35.183,40.183,-53.232,4_10_1.csv
2018-07-10T13:45:24.791941,-0.041,-0.4,-0.053,-0.793,8.415,-14.024,4_10_1.csv
2018-07-10T13:45:24.843581,3.141,-0.276,-0.039,48.232,-7.927,15.915,4_10_1.csv
2018-07-10T13:45:24.944854,3.141,-0.276,-0.039,82.134,-56.707,122.866,4_10_1.csv
2018-07-10T13:45:25.013540,1.166,-0.063,0.292,75.671,-116.768,164.573,4_10_1.csv
2018-07-10T13:45:25.064681,1.166,-0.063,0.292,141.281,-125.854,60.183,4_10_1.csv
2018-07-10T13:45:25.122836,-0.543,0.36,0.236,229.878,-65.0,15.549,4_10_1.csv
2018-07-10T13:45:25.181602,0.078,0.469,0.296,122.683,-163.293,-14.207,4_10_1.csv
2018-07-10T13:45:25.229730,0.078,0.469,0.296,-30.183,-27.073,-86.402,4_10_1.csv
2018-07-10T13:45:25.273854,1.505,0.07,-0.057,-63.902,24.207,-81.402,4_10_1.csv
2018-07-10T13:45:25.338528,2.651,-0.181,0.007,-306.951,163.72,-5.0,4_10_1.csv
2018-07-10T13:45:25.393176,2.651,-0.181,0.007,-415.183,-4.329,-39.756,4_10_1.csv
2018-07-10T13:45:25.448326,1.359,-0.673,-0.231,-2.378,92.866,-87.073,4_10_1.csv
2018-07-10T13:45:25.498462,-0.298,-0.433,-0.068,102.866,127.805,-125.305,4_10_1.csv
2018-07-10T13:45:25.559627,-0.298,-0.433,-0.068,135.305,107.744,-125.488,4_10_1.csv
2018-07-10T13:45:25.604246,-0.134,-0.29,0.091,64.695,-15.488,-45.305,4_10_1.csv
2018-07-10T13:45:25.676439,0.879,-0.384,0.006,30.793,7.988,3.72,4_10_1.csv
2018-07-10T13:45:25.740610,2.906,-0.157,-0.043,-84.817,12.317,144.573,4_10_1.csv
2018-07-10T13:45:25.791746,2.906,-0.157,-0.043,-178.963,-65.183,243.232,4_10_1.csv
2018-07-10T13:45:25.838370,1.767,-0.333,0.358,-43.78,-126.037,193.476,4_10_1.csv
2018-07-10T13:45:25.885997,1.767,-0.333,0.358,277.439,-30.244,26.707,4_10_1.csv
2018-07-10T13:45:25.933123,-0.196,0.163,0.433,46.098,-29.085,-86.707,4_10_1.csv
2018-07-10T13:45:25.993785,-0.342,-0.035,0.1,15.244,81.768,-26.037,4_10_1.csv
2018-07-10T13:45:26.052945,0.767,-0.44,0.095,10.732,-56.037,30.183,4_10_1.csv
2018-07-10T13:45:26.120126,0.767,-0.44,0.095,61.037,30.549,23.415,4_10_1.csv
2018-07-10T13:45:26.165249,2.54,-0.248,-0.15,112.988,44.634,-15.671,4_10_1.csv
2018-07-10T13:45:26.213382,1.839,-0.3,0.324,-173.659,34.756,37.5,4_10_1.csv
2018-07-10T13:45:26.301620,0.013,-0.617,0.362,-184.878,-75.122,-150.427,4_10_1.csv
2018-07-10T13:45:26.368803,0.013,-0.617,0.362,-148.537,-25.61,-32.683,4_10_1.csv
2018-07-10T13:45:26.441001,-0.432,-0.594,0.088,43.049,-9.878,64.146,4_10_1.csv
2018-07-10T13:45:26.495145,0.58,-0.314,-0.017,62.866,48.537,51.402,4_10_1.csv
2018-07-10T13:45:26.539927,2.206,-0.23,-0.112,48.415,28.476,74.756,4_10_1.csv
2018-07-10T13:45:26.588056,2.206,-0.23,-0.112,-13.72,9.756,117.561,4_10_1.csv
2018-07-10T13:45:26.635185,2.21,-0.273,0.125,-44.878,-29.085,79.512,4_10_1.csv
2018-07-10T13:45:26.692339,0.539,-0.272,0.381,61.037,-40.183,-111.951,4_10_1.csv
2018-07-10T13:45:26.753505,0.539,-0.272,0.381,-137.5,-47.378,-118.171,4_10_1.csv
2018-07-10T13:45:26.823695,-0.298,-0.813,0.189,-61.098,3.963,-6.463,4_10_1.csv
2018-07-10T13:45:26.867386,0.11,-0.369,0.091,76.098,43.841,75.366,4_10_1.csv
2018-07-10T13:45:26.917519,0.11,-0.369,0.091,126.89,52.012,10.183,4_10_1.csv
2018-07-10T13:45:26.962143,1.685,-0.031,-0.096,121.22,58.841,-10.061,4_10_1.csv
2018-07-10T13:45:27.023306,2.563,-0.427,0.05,-141.768,35.183,89.878,4_10_1.csv
2018-07-10T13:45:27.081466,2.563,-0.427,0.05,-44.512,-50.305,48.963,4_10_1.csv
2018-07-10T13:45:27.137117,0.841,-0.573,0.359,77.012,-50.793,-53.537,4_10_1.csv
2018-07-10T13:45:27.196778,-0.412,-0.36,0.303,-81.463,-24.695,18.293,4_10_1.csv
2018-07-10T13:45:27.244912,-0.412,-0.36,0.303,-31.402,29.207,58.171,4_10_1.csv
2018-07-10T13:45:27.291034,-0.116,-0.146,0.085,39.634,16.22,35.244,4_10_1.csv
2018-07-10T13:45:27.349194,1.234,-0.206,0.031,13.72,47.012,0.61,4_10_1.csv
2018-07-10T13:45:27.415371,1.234,-0.206,0.031,-57.622,50.305,-28.537,4_10_1.csv
2018-07-10T13:45:27.476541,2.788,-0.413,-0.088,-126.585,21.341,44.878,4_10_1.csv
2018-07-10T13:45:27.524670,1.145,-0.534,0.355,24.329,-83.415,-38.78,4_10_1.csv
2018-07-10T13:45:27.572802,1.145,-0.534,0.355,124.878,-102.378,-108.902,4_10_1.csv
2018-07-10T13:45:27.677086,-0.088,-0.467,0.131,-122.744,23.72,-38.902,4_10_1.csv
2018-07-10T13:45:27.742764,1.029,-0.316,-0.08,86.402,46.829,-17.988,4_10_1.csv
2018-07-10T13:45:27.806436,1.029,-0.316,-0.08,101.342,76.707,0.793,4_10_1.csv
2018-07-10T13:45:27.852563,2.576,-0.016,0.014,-11.524,79.207,77.439,4_10_1.csv
2018-07-10T13:45:27.898686,2.576,-0.016,0.014,-109.085,-53.78,132.134,4_10_1.csv
2018-07-10T13:45:27.947821,1.57,-0.344,0.239,121.402,-10.0,-88.902,4_10_1.csv
2018-07-10T13:45:27.993944,-0.129,-0.332,0.367,42.012,-25.061,-98.476,4_10_1.csv
2018-07-10T13:45:28.050659,-0.129,-0.332,0.367,-77.073,1.463,-37.561,4_10_1.csv
2018-07-10T13:45:28.109817,-0.143,-0.389,0.157,29.39,-55.61,39.207,4_10_1.csv
2018-07-10T13:45:28.180008,0.968,-0.078,-0.044,-22.744,67.195,79.268,4_10_1.csv
2018-07-10T13:45:28.227133,2.179,-0.337,0.047,-136.768,34.329,108.902,4_10_1.csv
2018-07-10T13:45:28.274264,2.179,-0.337,0.047,-86.098,7.683,106.159,4_10_1.csv
2018-07-10T13:45:28.321389,1.708,-0.855,0.349,86.159,-3.415,-10.732,4_10_1.csv
2018-07-10T13:45:28.380552,1.708,-0.855,0.349,133.476,-27.5,-89.207,4_10_1.csv
2018-07-10T13:45:28.445227,0.102,-0.72,0.364,41.463,-19.451,-0.793,4_10_1.csv
2018-07-10T13:45:28.497869,-0.319,-0.144,0.139,129.146,9.085,47.866,4_10_1.csv
2018-07-10T13:45:28.542992,0.275,-0.124,0.164,61.037,24.329,18.598,4_10_1.csv
2018-07-10T13:45:28.592125,0.275,-0.124,0.164,5.61,22.195,27.561,4_10_1.csv
2018-07-10T13:45:28.639756,2.123,-0.181,-0.04,-45.366,70.122,0.488,4_10_1.csv
2018-07-10T13:45:28.693402,2.123,-0.181,-0.04,-120.732,98.841,20.183,4_10_1.csv
2018-07-10T13:45:28.750559,2.201,-0.424,0.145,-119.207,-114.268,-92.134,4_10_1.csv
2018-07-10T13:45:28.805705,0.475,-0.606,0.43,152.622,-149.512,-145.488,4_10_1.csv
2018-07-10T13:45:28.852836,0.475,-0.606,0.43,231.037,-61.951,-96.037,4_10_1.csv
2018-07-10T13:45:28.900964,-0.336,-0.283,0.543,15.732,-36.585,-19.695,4_10_1.csv
2018-07-10T13:45:28.946587,0.275,-0.494,0.124,-64.634,22.195,78.72,4_10_1.csv
2018-07-10T13:45:29.099396,1.995,-0.152,-0.056,-41.829,59.512,43.72,4_10_1.csv
2018-07-10T13:45:29.169587,2.336,-0.339,-0.002,-68.415,-21.341,-41.28,4_10_1.csv
2018-07-10T13:45:29.212702,0.771,-0.5,0.237,109.634,-23.415,-111.524,4_10_1.csv
2018-07-10T13:45:29.258831,0.771,-0.5,0.237,81.951,-34.573,-107.378,4_10_1.csv
2018-07-10T13:45:29.306959,-0.522,-0.462,0.276,-130.854,59.146,6.768,4_10_1.csv
2018-07-10T13:45:29.353088,0.129,-0.446,0.103,22.317,-103.598,11.951,4_10_1.csv
2018-07-10T13:45:29.412245,0.129,-0.446,0.103,153.72,26.22,20.915,4_10_1.csv
2018-07-10T13:45:29.477424,1.719,-0.082,-0.073,19.634,75.854,-20.427,4_10_1.csv
2018-07-10T13:45:29.528561,2.652,-0.189,0.01,-151.463,19.939,83.963,4_10_1.csv
2018-07-10T13:45:29.587721,0.885,-0.453,0.534,122.988,-74.085,-27.195,4_10_1.csv
2018-07-10T13:45:29.636852,0.885,-0.453,0.534,18.476,-70.549,-116.646,4_10_1.csv
2018-07-10T13:45:29.681972,-0.309,-0.667,0.404,-109.085,-81.646,-28.049,4_10_1.csv
2018-07-10T13:45:29.744639,-0.309,-0.667,0.404,69.817,58.598,132.012,4_10_1.csv
2018-07-10T13:45:29.808810,-0.031,-0.062,0.169,17.805,27.439,46.037,4_10_1.csv
2018-07-10T13:45:29.858442,1.167,-0.047,0.021,-1.89,83.902,28.354,4_10_1.csv
2018-07-10T13:45:29.915596,2.576,-0.294,-0.124,-143.537,107.683,-6.402,4_10_1.csv
2018-07-10T13:45:29.964226,2.576,-0.294,-0.124,-140.122,22.805,-9.451,4_10_1.csv
2018-07-10T13:45:30.010349,1.344,-0.594,0.287,102.744,-103.659,-97.988,4_10_1.csv
2018-07-10T13:45:30.074525,-0.285,-0.379,0.394,48.049,-21.768,-99.451,4_10_1.csv
2018-07-10T13:45:30.149730,-0.222,-0.524,0.143,-142.256,81.524,-48.841,4_10_1.csv
2018-07-10T13:45:30.212898,-0.222,-0.524,0.143,54.756,-68.902,-48.78,4_10_1.csv
2018-07-10T13:45:30.259025,1.031,-0.263,0.003,104.451,48.11,-32.012,4_10_1.csv
2018-07-10T13:45:30.307153,1.031,-0.263,0.003,59.146,59.634,-21.585,4_10_1.csv
2018-07-10T13:45:30.400406,1.809,-0.426,0.222,-53.232,-142.866,114.207,4_10_1.csv
2018-07-10T13:45:30.459569,1.809,-0.426,0.222,204.817,-87.683,25.854,4_10_1.csv
2018-07-10T13:45:30.524743,-0.137,-0.155,0.399,12.073,-49.329,-18.354,4_10_1.csv
2018-07-10T13:45:30.587913,-0.419,-0.188,0.16,-17.195,41.585,35.61,4_10_1.csv
2018-07-10T13:45:30.635039,0.635,-0.169,0.007,54.817,-50.488,10.305,4_10_1.csv
2018-07-10T13:45:30.681164,0.635,-0.169,0.007,65.732,29.817,-13.354,4_10_1.csv
2018-07-10T13:45:30.727286,2.697,-0.088,-0.238,-16.951,68.963,-22.317,4_10_1.csv
2018-07-10T13:45:30.803495,1.921,-0.51,0.259,-44.512,-46.22,13.902,4_10_1.csv
2018-07-10T13:45:30.858142,1.921,-0.51,0.259,105.671,-59.451,-73.902,4_10_1.csv
2018-07-10T13:45:30.914801,0.045,-0.689,0.141,-66.585,12.439,36.22,4_10_1.csv
2018-07-10T13:45:30.962431,-0.44,-0.135,0.132,70.854,71.402,64.451,4_10_1.csv
2018-07-10T13:45:31.011064,-0.44,-0.135,0.132,84.634,-2.561,-12.073,4_10_1.csv
2018-07-10T13:45:31.056186,0.254,-0.11,0.139,36.585,-7.622,-34.451,4_10_1.csv
2018-07-10T13:45:31.115347,2.387,-0.23,-0.151,-48.049,85.915,-29.695,4_10_1.csv
2018-07-10T13:45:31.176514,2.387,-0.23,-0.151,-124.878,134.451,25.732,4_10_1.csv
2018-07-10T13:45:31.227651,2.412,-0.407,0.053,-237.561,27.927,44.024,4_10_1.csv
2018-07-10T13:45:31.273778,2.412,-0.407,0.053,-73.11,-84.634,-51.28,4_10_1.csv
2018-07-10T13:45:31.322909,0.335,-0.623,0.367,-177.683,-34.817,-107.012,4_10_1.csv
2018-07-10T13:45:31.369038,-0.367,-0.799,0.073,-171.707,0.915,-16.951,4_10_1.csv
2018-07-10T13:45:31.434211,-0.367,-0.799,0.073,82.378,43.598,46.098,4_10_1.csv
2018-07-10T13:45:31.488360,0.12,-0.19,0.038,149.512,15.671,11.829,4_10_1.csv
2018-07-10T13:45:31.543506,1.699,-0.051,-0.105,67.378,36.646,16.037,4_10_1.csv
2018-07-10T13:45:31.592643,1.699,-0.051,-0.105,-39.756,72.866,38.354,4_10_1.csv
2018-07-10T13:45:31.634755,2.476,-0.292,-0.013,-116.951,9.634,119.39,4_10_1.csv
2018-07-10T13:45:31.680883,0.993,-0.4,0.229,152.439,-65.183,-26.463,4_10_1.csv
2018-07-10T13:45:31.760097,-0.422,-0.436,0.375,-62.744,-36.707,-20.976,4_10_1.csv
2018-07-10T13:45:31.812239,-0.422,-0.436,0.375,30.854,-27.012,-92.805,4_10_1.csv
2018-07-10T13:45:31.871398,-0.046,-0.275,0.254,81.951,-55.976,-70.244,4_10_1.csv
2018-07-10T13:45:31.931561,1.342,-0.178,-0.014,38.049,53.598,4.146,4_10_1.csv
2018-07-10T13:45:31.978687,1.342,-0.178,-0.014,-6.463,75.549,-11.28,4_10_1.csv
2018-07-10T13:45:32.024816,2.624,-0.323,-0.109,-67.256,36.646,42.805,4_10_1.csv
2018-07-10T13:45:32.083973,1.502,-0.35,0.192,57.927,-40.244,-6.646,4_10_1.csv
2018-07-10T13:45:32.145141,1.502,-0.35,0.192,51.707,-17.988,-68.293,4_10_1.csv
2018-07-10T13:45:32.198787,-0.236,-0.702,0.291,-151.768,-34.146,-75.793,4_10_1.csv
2018-07-10T13:45:32.247919,-0.282,-0.431,0.09,70.244,50.732,27.256,4_10_1.csv
2018-07-10T13:45:32.296047,-0.282,-0.431,0.09,99.39,-22.134,25.244,4_10_1.csv
2018-07-10T13:45:32.341668,0.653,-0.073,0.049,116.463,26.159,10.976,4_10_1.csv
2018-07-10T13:45:32.402476,2.342,-0.024,-0.158,-19.573,50.976,19.085,4_10_1.csv
2018-07-10T13:45:32.462138,2.342,-0.024,-0.158,-111.402,11.28,71.951,4_10_1.csv
2018-07-10T13:45:32.508763,2.062,-0.374,0.071,-73.963,-68.293,37.317,4_10_1.csv
2018-07-10T13:45:32.555890,2.062,-0.374,0.071,48.049,-70.915,-42.195,4_10_1.csv
2018-07-10T13:45:32.604022,0.313,-0.546,0.376,-80.793,-27.988,-48.171,4_10_1.csv
2018-07-10T13:45:32.649143,-0.424,-0.57,0.248,-121.524,16.829,-8.049,4_10_1.csv
2018-07-10T13:45:32.712316,-0.424,-0.57,0.248,9.146,36.463,43.537,4_10_1.csv
2018-07-10T13:45:32.769471,0.204,-0.237,0.09,93.902,43.902,-10.488,4_10_1.csv
2018-07-10T13:45:32.823617,1.97,-0.344,-0.118,71.037,57.866,-31.463,4_10_1.csv
2018-07-10T13:45:32.869742,1.97,-0.344,-0.118,-1.89,54.268,15.366,4_10_1.csv
2018-07-10T13:45:32.916869,2.514,-0.418,-0.092,-122.683,8.963,120.122,4_10_1.csv
2018-07-10T13:45:32.962494,2.514,-0.418,-0.092,-123.11,-106.646,85.427,4_10_1.csv
2018-07-10T13:45:33.021152,0.638,-0.383,0.057,45.305,-13.78,-40.366,4_10_1.csv
2018-07-10T13:45:33.122426,-0.525,-0.235,0.235,-7.683,40.488,-35.0,4_10_1.csv
2018-07-10T13:45:33.166045,0.035,-0.361,0.171,45.976,-35.854,-70.305,4_10_1.csv
2018-07-10T13:45:33.212671,1.631,-0.307,-0.124,134.878,13.537,-55.427,4_10_1.csv
2018-07-10T13:45:33.260799,1.631,-0.307,-0.124,110.854,74.207,-22.561,4_10_1.csv
2018-07-10T13:45:33.306928,2.567,-0.231,-0.062,-54.39,63.354,110.793,4_10_1.csv
2018-07-10T13:45:33.370099,0.928,-0.431,0.041,34.756,-64.512,18.72,4_10_1.csv
2018-07-10T13:45:33.422239,0.928,-0.431,0.041,32.439,1.28,-38.415,4_10_1.csv
2018-07-10T13:45:33.477891,-0.287,-0.455,0.171,-101.768,-21.707,-57.012,4_10_1.csv
2018-07-10T13:45:33.525520,-0.287,-0.455,0.171,-47.988,-45.854,-162.805,4_10_1.csv
2018-07-10T13:45:33.574152,-0.163,-0.287,0.066,72.012,28.354,77.683,4_10_1.csv
2018-07-10T13:45:33.618774,1.055,-0.165,0.006,85.488,-49.39,1.707,4_10_1.csv
2018-07-10T13:45:33.676931,1.055,-0.165,0.006,49.39,44.878,34.573,4_10_1.csv
2018-07-10T13:45:33.737095,2.863,-0.241,-0.101,-95.244,-10.732,85.549,4_10_1.csv
2018-07-10T13:45:33.792244,1.502,-0.429,0.179,33.11,-68.171,12.988,4_10_1.csv
2018-07-10T13:45:33.842879,1.502,-0.429,0.179,57.988,-26.28,-50.427,4_10_1.csv
2018-07-10T13:45:33.891007,-0.18,-0.454,0.111,-142.073,58.537,-46.22,4_10_1.csv
2018-07-10T13:45:33.932618,-0.358,-0.318,0.025,-50.732,77.012,-68.902,4_10_1.csv
2018-07-10T13:45:34.000298,-0.358,-0.318,0.025,5.976,-4.451,-21.829,4_10_1.csv
2018-07-10T13:45:34.056949,0.526,-0.236,0.071,118.354,50.976,-32.378,4_10_1.csv
2018-07-10T13:45:34.123626,2.366,-0.16,-0.02,58.72,70.793,5.122,4_10_1.csv
2018-07-10T13:45:34.170752,2.24,-0.323,0.133,-88.415,-67.805,89.085,4_10_1.csv
2018-07-10T13:45:34.213867,2.24,-0.323,0.133,42.866,-59.817,22.378,4_10_1.csv
2018-07-10T13:45:34.264001,0.31,-0.392,0.171,-13.171,-17.195,-31.098,4_10_1.csv
2018-07-10T13:45:34.319147,0.31,-0.392,0.171,-190.915,-30.854,-28.049,4_10_1.csv
2018-07-10T13:45:34.371289,-0.391,-0.514,0.107,80.976,28.841,-44.878,4_10_1.csv
2018-07-10T13:45:34.415404,0.105,-0.146,0.05,102.378,19.756,55.427,4_10_1.csv
2018-07-10T13:45:34.524197,1.71,-0.124,-0.055,95.793,15.976,-14.207,4_10_1.csv
2018-07-10T13:45:34.573332,2.729,-0.229,0.034,-44.878,15.427,80.061,4_10_1.csv
2018-07-10T13:45:34.618453,2.729,-0.229,0.034,-59.573,-61.159,63.171,4_10_1.csv
2018-07-10T13:45:34.679621,0.952,-0.348,0.208,-18.963,-60.305,-0.122,4_10_1.csv
2018-07-10T13:45:34.738780,-0.375,-0.689,0.009,-201.159,2.195,-31.037,4_10_1.csv
2018-07-10T13:45:34.791925,-0.375,-0.689,0.009,28.476,79.817,-31.22,4_10_1.csv
2018-07-10T13:45:34.836043,-0.233,-0.182,-0.03,81.89,68.171,44.756,4_10_1.csv
2018-07-10T13:45:34.887183,-0.233,-0.182,-0.03,120.305,-72.439,-30.793,4_10_1.csv
2018-07-10T13:45:34.931301,1.041,-0.125,-0.039,161.585,-2.805,-38.659,4_10_1.csv
