time,accel_x_list,accel_y_list,accel_z_list,gyro_x_list,gyro_y_list,gyro_z_list,filename
2018-07-06T11:02:30.053268,0.98,0.033,-0.017,-50.976,21.159,-78.659,5_10_3.csv
2018-07-06T11:02:30.108916,0.877,0.052,0.001,-29.207,16.524,-62.805,5_10_3.csv
2018-07-06T11:02:30.160053,0.877,0.052,0.001,-11.829,9.756,-42.988,5_10_3.csv
2018-07-06T11:02:30.207179,0.839,0.087,0.003,-0.976,-5.793,0.793,5_10_3.csv
2018-07-06T11:02:30.271851,0.888,0.103,0.02,-0.915,-14.573,23.841,5_10_3.csv
2018-07-06T11:02:30.318475,0.888,0.103,0.02,2.988,-22.256,45.183,5_10_3.csv
2018-07-06T11:02:30.363595,0.965,0.128,0.042,11.037,-30.793,77.256,5_10_3.csv
2018-07-06T11:02:30.426263,1.07,0.151,0.047,23.902,-32.744,84.39,5_10_3.csv
2018-07-06T11:02:30.477900,1.07,0.151,0.047,59.817,-32.012,79.695,5_10_3.csv
2018-07-06T11:02:30.520514,1.074,0.368,0.023,112.866,-28.537,57.927,5_10_3.csv
2018-07-06T11:02:30.572151,0.972,0.926,0.132,35.366,52.012,-86.341,5_10_3.csv
2018-07-06T11:02:30.683448,0.947,1.211,0.327,44.756,118.659,-226.098,5_10_3.csv
2018-07-06T11:02:30.724558,0.947,1.211,0.327,50.305,96.341,-246.585,5_10_3.csv
2018-07-06T11:02:30.779705,0.825,1.067,0.071,18.963,23.902,-267.988,5_10_3.csv
2018-07-06T11:02:30.832345,0.454,0.613,-0.271,95.0,-37.256,-268.11,5_10_3.csv
2018-07-06T11:02:30.878969,0.454,0.613,-0.271,145.732,-158.598,-265.61,5_10_3.csv
2018-07-06T11:02:30.929604,0.643,1.98,0.215,-172.927,-171.403,-295.732,5_10_3.csv
2018-07-06T11:02:30.975226,-0.097,0.803,0.393,-243.171,-43.171,-244.695,5_10_3.csv
2018-07-06T11:02:31.023354,-0.097,0.803,0.393,-29.512,91.768,-137.988,5_10_3.csv
2018-07-06T11:02:31.080005,-0.483,-0.316,-0.019,112.622,-2.927,64.207,5_10_3.csv
2018-07-06T11:02:31.133147,0.35,0.403,-0.305,57.622,-15.183,179.207,5_10_3.csv
2018-07-06T11:02:31.178769,0.35,0.403,-0.305,31.159,0.549,98.963,5_10_3.csv
2018-07-06T11:02:31.225894,0.01,0.188,-0.026,26.402,23.171,40.366,5_10_3.csv
2018-07-06T11:02:31.284049,0.01,0.188,-0.026,77.073,44.146,7.927,5_10_3.csv
2018-07-06T11:02:31.331676,-0.414,0.104,0.002,182.744,46.829,-52.744,5_10_3.csv
2018-07-06T11:02:31.387826,-0.672,2.563,-0.507,150.732,-16.098,-48.537,5_10_3.csv
2018-07-06T11:02:31.441970,-0.672,2.563,-0.507,-46.524,-68.78,-37.378,5_10_3.csv
2018-07-06T11:02:31.488093,-0.339,3.303,-0.82,-107.073,-94.634,-68.659,5_10_3.csv
2018-07-06T11:02:31.537725,-0.215,0.803,-0.029,-132.256,-6.707,42.683,5_10_3.csv
2018-07-06T11:02:31.583347,-0.215,0.803,-0.029,-116.829,-10.854,41.524,5_10_3.csv
2018-07-06T11:02:31.628971,-0.028,-0.864,0.19,13.78,-0.671,-20.122,5_10_3.csv
2018-07-06T11:02:31.684118,-0.028,-0.864,0.19,106.585,30.976,-51.159,5_10_3.csv
2018-07-06T11:02:31.722723,0.078,-0.196,-0.083,71.341,30.366,1.89,5_10_3.csv
2018-07-06T11:02:31.768846,0.078,-0.196,-0.083,8.476,54.39,47.439,5_10_3.csv
2018-07-06T11:02:31.817557,-0.053,0.113,-0.184,70.61,19.817,40.061,5_10_3.csv
2018-07-06T11:02:31.862678,-0.483,1.676,-0.174,83.232,8.171,16.28,5_10_3.csv
2018-07-06T11:02:31.908805,-0.483,1.676,-0.174,-15.488,20.488,-31.037,5_10_3.csv
2018-07-06T11:02:31.962949,-0.687,3.251,-0.535,-126.281,-3.232,-85.915,5_10_3.csv
2018-07-06T11:02:32.191856,0.025,-0.182,-0.019,59.695,56.402,18.598,5_10_3.csv
2018-07-06T11:02:32.236977,0.025,-0.182,-0.019,-19.512,69.878,47.988,5_10_3.csv
2018-07-06T11:02:32.286110,-0.192,0.479,-0.12,-9.695,55.549,19.451,5_10_3.csv
2018-07-06T11:02:32.332235,-0.192,0.479,-0.12,100.183,16.646,-26.159,5_10_3.csv
2018-07-06T11:02:32.379364,-0.35,1.261,0.071,67.134,-27.927,-148.293,5_10_3.csv
2018-07-06T11:02:32.430503,-0.687,2.566,-0.024,-51.524,-4.695,-158.598,5_10_3.csv
2018-07-06T11:02:32.473119,-0.687,2.566,-0.024,-94.573,65.427,-93.476,5_10_3.csv
2018-07-06T11:02:32.518742,-0.799,2.346,-0.428,33.293,61.829,5.0,5_10_3.csv
2018-07-06T11:02:32.567873,-0.799,2.346,-0.428,13.598,-26.463,45.793,5_10_3.csv
2018-07-06T11:02:32.611995,-0.019,-0.32,0.027,-80.427,-80.244,62.927,5_10_3.csv
2018-07-06T11:02:32.661126,0.04,-0.894,0.191,12.561,14.024,5.61,5_10_3.csv
2018-07-06T11:02:32.714272,0.04,-0.894,0.191,45.0,27.866,50.122,5_10_3.csv
2018-07-06T11:02:32.755382,-0.067,0.13,-0.113,11.829,57.622,97.988,5_10_3.csv
2018-07-06T11:02:32.801508,-0.067,0.13,-0.113,-8.598,61.037,88.841,5_10_3.csv
2018-07-06T11:02:32.849135,-0.083,1.489,-0.208,66.037,17.195,44.512,5_10_3.csv
2018-07-06T11:02:32.894756,-0.083,1.489,-0.208,101.829,-30.488,-15.0,5_10_3.csv
2018-07-06T11:02:32.942888,-0.553,3.881,-0.02,-217.195,17.256,-70.976,5_10_3.csv
2018-07-06T11:02:32.996029,-0.451,2.678,0.445,-297.927,-10.305,-5.183,5_10_3.csv
2018-07-06T11:02:33.040152,-0.451,2.678,0.445,-360.366,-48.659,-9.024,5_10_3.csv
2018-07-06T11:02:33.081262,0.132,-0.933,-0.102,-271.22,12.012,-27.378,5_10_3.csv
2018-07-06T11:02:33.130397,0.132,-0.933,-0.102,-110.061,66.22,-25.366,5_10_3.csv
2018-07-06T11:02:33.175517,-0.106,-0.813,-0.471,-32.256,68.659,-45.427,5_10_3.csv
2018-07-06T11:02:33.223650,0.044,-0.035,-0.352,118.049,19.451,47.561,5_10_3.csv
2018-07-06T11:02:33.275790,0.044,-0.035,-0.352,201.098,24.329,34.146,5_10_3.csv
2018-07-06T11:02:33.317904,-0.166,0.487,0.194,270.183,19.39,21.524,5_10_3.csv
2018-07-06T11:02:33.422687,-0.991,2.92,0.724,-260.061,33.72,-122.744,5_10_3.csv
2018-07-06T11:02:33.479338,-0.641,2.729,1.091,-103.232,-27.866,-86.89,5_10_3.csv
2018-07-06T11:02:33.519445,-0.641,2.729,1.091,-17.744,-44.573,16.341,5_10_3.csv
2018-07-06T11:02:33.569078,-0.512,0.811,0.605,-56.768,-78.293,64.756,5_10_3.csv
2018-07-06T11:02:33.620214,0.095,-0.712,-0.157,22.622,-27.256,-71.341,5_10_3.csv
2018-07-06T11:02:33.663830,0.095,-0.712,-0.157,57.5,47.256,-163.72,5_10_3.csv
2018-07-06T11:02:33.705942,0.09,-0.48,-0.096,82.866,77.317,-107.683,5_10_3.csv
2018-07-06T11:02:33.753570,0.09,-0.48,-0.096,130.671,62.195,17.073,5_10_3.csv
2018-07-06T11:02:33.800194,-0.096,0.061,0.092,159.329,43.537,53.598,5_10_3.csv
2018-07-06T11:02:33.852834,-0.096,0.061,0.092,172.561,-12.622,80.122,5_10_3.csv
2018-07-06T11:02:33.904973,-1.014,2.808,0.37,-195.915,29.024,-52.866,5_10_3.csv
2018-07-06T11:02:33.943075,-1.525,2.587,0.332,-142.256,18.598,-167.805,5_10_3.csv
2018-07-06T11:02:33.995849,-1.525,2.587,0.332,25.122,-48.354,-78.902,5_10_3.csv
2018-07-06T11:02:34.035956,-0.635,0.832,0.443,-24.024,-92.561,6.707,5_10_3.csv
2018-07-06T11:02:34.087097,-0.635,0.832,0.443,-82.5,-130.0,20.854,5_10_3.csv
2018-07-06T11:02:34.192379,0.211,-0.604,-0.079,126.098,13.537,-8.171,5_10_3.csv
2018-07-06T11:02:34.248028,0.211,-0.604,-0.079,141.159,45.915,64.085,5_10_3.csv
2018-07-06T11:02:34.286129,-0.207,0.448,-0.368,190.61,40.793,77.5,5_10_3.csv
2018-07-06T11:02:34.332753,-0.207,0.448,-0.368,348.171,-19.817,53.476,5_10_3.csv
2018-07-06T11:02:34.380884,-1.504,3.331,-0.391,119.146,26.098,-38.78,5_10_3.csv
2018-07-06T11:02:34.427006,-0.798,2.679,0.463,-38.78,-79.085,-106.646,5_10_3.csv
2018-07-06T11:02:34.474135,-0.798,2.679,0.463,-89.817,65.854,37.988,5_10_3.csv
2018-07-06T11:02:34.528781,-0.354,0.08,0.016,-221.768,37.5,62.012,5_10_3.csv
2018-07-06T11:02:34.582424,-0.354,0.08,0.016,-146.463,-6.585,-0.305,5_10_3.csv
2018-07-06T11:02:34.630552,0.107,-1.101,-0.001,361.22,8.232,-103.049,5_10_3.csv
2018-07-06T11:02:34.678179,0.042,0.21,-0.129,257.134,29.939,-55.732,5_10_3.csv
2018-07-06T11:02:34.918605,-0.888,0.912,0.14,-210.183,2.378,98.049,5_10_3.csv
2018-07-06T11:02:34.957711,-0.888,0.912,0.14,44.146,-59.634,106.22,5_10_3.csv
2018-07-06T11:02:35.032410,0.202,-0.625,0.15,334.085,32.134,-76.524,5_10_3.csv
2018-07-06T11:02:35.082042,-0.388,-0.079,-0.184,209.817,71.22,-41.28,5_10_3.csv
2018-07-06T11:02:35.129168,-0.388,-0.079,-0.184,108.659,62.439,2.5,5_10_3.csv
2018-07-06T11:02:35.177299,-0.415,0.187,-0.11,115.549,-13.72,27.378,5_10_3.csv
2018-07-06T11:02:35.221416,-0.415,0.187,-0.11,118.659,-66.341,45.488,5_10_3.csv
2018-07-06T11:02:35.285311,-1.132,2.27,-0.714,-128.598,-22.012,-92.5,5_10_3.csv
2018-07-06T11:02:35.334442,-1.258,2.673,-1.05,-7.012,-95.366,-171.342,5_10_3.csv
2018-07-06T11:02:35.379566,-1.258,2.673,-1.05,151.707,43.72,-121.829,5_10_3.csv
2018-07-06T11:02:35.424687,-0.79,1.128,-0.125,97.805,0.671,-70.976,5_10_3.csv
2018-07-06T11:02:35.473822,0.394,-1.06,0.267,-86.463,-122.256,-82.927,5_10_3.csv
2018-07-06T11:02:35.517940,0.394,-1.06,0.267,-65.366,-20.732,-36.159,5_10_3.csv
2018-07-06T11:02:35.567075,0.296,-1.017,0.014,-2.927,40.183,26.159,5_10_3.csv
2018-07-06T11:02:35.626233,0.296,-1.017,0.014,-3.598,82.134,73.537,5_10_3.csv
2018-07-06T11:02:35.680382,-0.187,0.341,-0.088,-88.72,75.976,130.427,5_10_3.csv
2018-07-06T11:02:35.726505,-1.818,2.207,-1.144,-58.293,138.842,47.805,5_10_3.csv
2018-07-06T11:02:35.771628,-1.818,2.207,-1.144,71.524,101.707,-68.902,5_10_3.csv
2018-07-06T11:02:35.816748,-1.84,2.661,-1.326,86.28,-101.646,-87.683,5_10_3.csv
2018-07-06T11:02:35.868385,-1.84,2.661,-1.326,-56.28,-101.463,21.707,5_10_3.csv
2018-07-06T11:02:35.920524,0.138,-0.05,0.053,-104.39,-190.915,-12.5,5_10_3.csv
2018-07-06T11:02:35.973165,0.412,-0.985,0.444,-2.073,-21.22,-10.732,5_10_3.csv
2018-07-06T11:02:36.019814,0.412,-0.985,0.444,35.61,45.183,29.512,5_10_3.csv
2018-07-06T11:02:36.214339,-1.941,2.666,-1.195,-72.744,58.963,-28.78,5_10_3.csv
2018-07-06T11:02:36.252446,-1.941,2.666,-1.195,14.878,-34.817,-61.159,5_10_3.csv
2018-07-06T11:02:36.300574,-1.299,1.652,-0.828,5.488,-26.585,-5.793,5_10_3.csv
2018-07-06T11:02:36.360739,0.304,-0.575,0.227,-89.512,-194.878,-50.671,5_10_3.csv
2018-07-06T11:02:36.409870,0.304,-0.575,0.227,-36.768,-163.781,-56.768,5_10_3.csv
2018-07-06T11:02:36.455997,0.252,-1.013,0.365,9.939,12.012,-14.512,5_10_3.csv
2018-07-06T11:02:36.507134,0.252,-1.013,0.365,74.512,45.061,37.805,5_10_3.csv
2018-07-06T11:02:36.550254,0.075,0.026,-0.006,126.281,70.183,79.756,5_10_3.csv
2018-07-06T11:02:36.600387,-1.018,1.889,-0.725,-19.39,94.024,120.488,5_10_3.csv
2018-07-06T11:02:36.650526,-1.018,1.889,-0.725,-48.72,162.805,21.402,5_10_3.csv
2018-07-06T11:02:36.714697,-2.032,3.066,-1.348,8.415,-33.598,-109.39,5_10_3.csv
2018-07-06T11:02:36.761323,-0.819,1.36,-0.104,-91.341,-115.183,22.744,5_10_3.csv
2018-07-06T11:02:36.804940,-0.819,1.36,-0.104,-183.598,-163.963,23.598,5_10_3.csv
2018-07-06T11:02:36.854071,0.349,-0.991,0.14,-171.037,-202.073,-29.268,5_10_3.csv
2018-07-06T11:02:36.896183,0.349,-0.991,0.14,-16.585,-97.073,-56.341,5_10_3.csv
2018-07-06T11:02:36.948322,0.102,-1.111,-0.141,195.244,-13.171,-45.427,5_10_3.csv
2018-07-06T11:02:36.994445,0.102,-1.111,-0.141,272.622,-35.0,6.037,5_10_3.csv
2018-07-06T11:02:37.035053,0.256,0.275,0.118,198.476,26.951,39.329,5_10_3.csv
2018-07-06T11:02:37.087193,-0.741,2.231,-0.585,-56.28,159.695,108.963,5_10_3.csv
2018-07-06T11:02:37.135320,-0.741,2.231,-0.585,-95.976,240.671,64.573,5_10_3.csv
2018-07-06T11:02:37.180443,-1.922,3.362,-1.008,6.829,45.427,-63.476,5_10_3.csv
2018-07-06T11:02:37.225564,-1.922,3.362,-1.008,-15.305,-59.512,-50.427,5_10_3.csv
2018-07-06T11:02:37.269686,-0.74,1.273,-0.114,-155.915,-103.598,-10.915,5_10_3.csv
2018-07-06T11:02:37.316811,-0.74,1.273,-0.114,-190.244,-178.171,-44.329,5_10_3.csv
2018-07-06T11:02:37.367952,0.306,-0.77,0.099,11.159,-49.268,-79.573,5_10_3.csv
2018-07-06T11:02:37.412070,0.252,-0.706,-0.001,100.122,-61.22,-51.28,5_10_3.csv
2018-07-06T11:02:37.693658,-1.718,3.457,-0.801,75.915,-11.341,17.683,5_10_3.csv
2018-07-06T11:02:37.752318,-0.199,0.333,0.065,-50.793,-120.61,-11.524,5_10_3.csv
2018-07-06T11:02:37.801952,-0.199,0.333,0.065,-88.354,-114.451,-41.829,5_10_3.csv
2018-07-06T11:02:37.848579,0.275,-1.226,0.123,16.768,71.89,-18.78,5_10_3.csv
2018-07-06T11:02:37.896707,0.017,-0.776,-0.304,85.0,72.317,47.927,5_10_3.csv
2018-07-06T11:02:37.941828,0.017,-0.776,-0.304,125.244,49.085,89.512,5_10_3.csv
2018-07-06T11:02:37.988953,-0.34,1.792,-0.476,141.524,19.634,84.695,5_10_3.csv
2018-07-06T11:02:38.039087,-0.34,1.792,-0.476,81.341,47.866,20.61,5_10_3.csv
2018-07-06T11:02:38.083222,-0.793,4.535,-0.504,-136.951,91.585,-66.951,5_10_3.csv
2018-07-06T11:02:38.128325,-0.65,1.43,-0.39,-214.878,91.951,-42.866,5_10_3.csv
2018-07-06T11:02:38.177960,-0.65,1.43,-0.39,-234.695,43.841,-33.659,5_10_3.csv
2018-07-06T11:02:38.222078,0.089,-1.0,0.029,-116.342,5.366,-56.159,5_10_3.csv
2018-07-06T11:02:38.269210,0.089,-1.0,0.029,-58.354,15.061,-71.951,5_10_3.csv
2018-07-06T11:02:38.322350,0.036,-0.77,-0.225,-9.268,14.817,-19.085,5_10_3.csv
2018-07-06T11:02:38.363463,0.036,-0.77,-0.225,203.415,9.695,30.61,5_10_3.csv
2018-07-06T11:02:38.408584,0.135,0.178,-0.211,211.829,5.488,35.61,5_10_3.csv
2018-07-06T11:02:38.458723,0.098,1.802,0.184,-19.695,37.622,62.195,5_10_3.csv
2018-07-06T11:02:38.502840,0.098,1.802,0.184,-228.598,161.281,28.476,5_10_3.csv
2018-07-06T11:02:38.549970,-1.189,3.648,-0.473,-204.329,209.512,-34.634,5_10_3.csv
2018-07-06T11:02:38.604114,-1.189,3.648,-0.473,-103.659,168.293,1.463,5_10_3.csv
2018-07-06T11:02:38.644725,-1.19,2.002,-0.397,-60.183,-12.134,-4.634,5_10_3.csv
2018-07-06T11:02:38.692354,0.309,-0.993,0.157,-68.902,-135.976,-98.902,5_10_3.csv
2018-07-06T11:02:38.739483,0.309,-0.993,0.157,46.768,-132.683,-67.073,5_10_3.csv
2018-07-06T11:02:38.782599,0.304,-0.937,-0.097,152.073,-134.268,55.793,5_10_3.csv
2018-07-06T11:02:38.858807,-0.083,0.208,-0.194,47.134,63.72,34.878,5_10_3.csv
2018-07-06T11:02:38.923981,-0.083,0.208,-0.194,53.902,21.951,52.195,5_10_3.csv
2018-07-06T11:02:38.973114,-0.656,2.068,0.015,-1.707,46.463,-38.11,5_10_3.csv
2018-07-06T11:02:39.027760,-1.18,3.29,-0.478,-56.463,24.695,-147.5,5_10_3.csv
2018-07-06T11:02:39.068368,-1.18,3.29,-0.478,-12.805,39.146,-74.939,5_10_3.csv
2018-07-06T11:02:39.113488,-0.611,1.795,-0.021,13.963,-99.085,35.244,5_10_3.csv
2018-07-06T11:02:39.159110,-0.611,1.795,-0.021,-65.366,-129.939,25.0,5_10_3.csv
2018-07-06T11:02:39.216262,0.282,-0.554,0.196,-106.281,-59.39,-40.671,5_10_3.csv
2018-07-06T11:02:39.269406,0.152,-1.123,-0.155,-59.451,24.024,-57.866,5_10_3.csv
2018-07-06T11:02:39.316531,0.152,-1.123,-0.155,21.402,56.768,-16.829,5_10_3.csv
2018-07-06T11:02:39.364664,-0.181,-0.284,-0.342,117.073,77.927,25.488,5_10_3.csv
2018-07-06T11:02:39.408782,-0.181,-0.284,-0.342,219.573,48.11,50.061,5_10_3.csv
2018-07-06T11:02:39.458921,-0.756,1.895,-0.297,107.805,-6.829,5.549,5_10_3.csv
2018-07-06T11:02:39.513065,-1.571,3.754,-0.43,12.439,-26.402,-78.537,5_10_3.csv
2018-07-06T11:02:39.570221,-0.731,1.604,-0.241,-71.037,-24.756,18.659,5_10_3.csv
2018-07-06T11:02:39.613336,-0.731,1.604,-0.241,-130.732,-55.915,9.207,5_10_3.csv
2018-07-06T11:02:39.666483,0.042,-0.662,0.043,-117.012,-101.707,-33.72,5_10_3.csv
2018-07-06T11:02:39.706590,0.042,-0.662,0.043,-44.451,-37.561,-63.476,5_10_3.csv
2018-07-06T11:02:39.785805,0.117,-0.808,-0.017,101.037,-57.988,-8.11,5_10_3.csv
2018-07-06T11:02:39.834438,0.222,0.051,0.134,175.122,-24.634,34.085,5_10_3.csv
2018-07-06T11:02:39.879058,0.222,0.051,0.134,156.281,-0.732,54.695,5_10_3.csv
2018-07-06T11:02:39.925181,-0.533,1.751,0.415,50.732,44.451,19.573,5_10_3.csv
2018-07-06T11:02:39.975320,-2.084,3.618,0.012,-370.976,82.256,-39.39,5_10_3.csv
2018-07-06T11:02:40.020440,-2.084,3.618,0.012,-326.159,-1.951,-52.439,5_10_3.csv
2018-07-06T11:02:40.067567,-0.911,1.366,-0.073,-90.488,-34.146,-29.024,5_10_3.csv
2018-07-06T11:02:40.119205,-0.911,1.366,-0.073,10.854,-132.195,-33.354,5_10_3.csv
2018-07-06T11:02:40.392016,0.129,1.07,-0.427,180.488,113.476,170.671,5_10_3.csv
2018-07-06T11:02:40.440647,0.129,1.07,-0.427,94.939,84.451,181.342,5_10_3.csv
2018-07-06T11:02:40.489277,-0.655,4.635,-0.346,57.439,49.756,60.549,5_10_3.csv
2018-07-06T11:02:40.535902,-0.317,2.996,-0.121,25.305,-17.744,-38.171,5_10_3.csv
2018-07-06T11:02:40.584030,-0.317,2.996,-0.121,-83.537,-50.183,2.866,5_10_3.csv
2018-07-06T11:02:40.635667,0.239,-0.39,-0.248,-170.122,-102.195,-15.305,5_10_3.csv
2018-07-06T11:02:40.676777,0.239,-0.39,-0.248,-127.866,-82.195,-64.573,5_10_3.csv
2018-07-06T11:02:40.721897,0.084,-0.978,-0.006,-65.61,25.305,-100.671,5_10_3.csv
2018-07-06T11:02:40.770025,0.084,-0.978,-0.006,-66.341,34.878,-35.244,5_10_3.csv
2018-07-06T11:02:40.818157,-0.112,-0.525,0.066,-97.683,74.329,54.756,5_10_3.csv
2018-07-06T11:02:40.862274,-0.333,0.514,0.26,-22.988,23.049,77.012,5_10_3.csv
2018-07-06T11:02:40.916424,-0.333,0.514,0.26,-8.049,-28.049,59.451,5_10_3.csv
2018-07-06T11:02:40.975585,-0.583,3.793,0.659,-32.439,-18.11,-0.732,5_10_3.csv
2018-07-06T11:02:41.020225,-0.683,2.947,0.515,223.232,53.171,-72.378,5_10_3.csv
2018-07-06T11:02:41.067350,-0.683,2.947,0.515,46.463,-98.841,-20.61,5_10_3.csv
2018-07-06T11:02:41.115985,0.012,-0.27,0.298,-152.866,-125.305,-27.256,5_10_3.csv
2018-07-06T11:02:41.164114,0.012,-0.27,0.298,-111.707,-82.683,-29.39,5_10_3.csv
2018-07-06T11:02:41.213250,0.067,-1.131,0.085,17.5,20.305,-32.073,5_10_3.csv
2018-07-06T11:02:41.268397,-0.142,0.032,-0.038,120.488,43.598,53.72,5_10_3.csv
2018-07-06T11:02:41.316531,-0.142,0.032,-0.038,116.342,57.561,17.683,5_10_3.csv
2018-07-06T11:02:41.364660,-0.394,0.905,-0.001,110.061,40.488,-26.646,5_10_3.csv
2018-07-06T11:02:41.408783,-0.394,0.905,-0.001,77.866,31.341,-54.451,5_10_3.csv
2018-07-06T11:02:41.457914,-1.551,2.906,-0.384,-9.207,70.0,-113.476,5_10_3.csv
2018-07-06T11:02:41.508053,-1.493,2.225,-0.562,52.744,5.671,-3.354,5_10_3.csv
2018-07-06T11:02:41.587768,0.128,0.06,0.251,12.378,-227.012,55.488,5_10_3.csv
2018-07-06T11:02:41.633391,0.128,0.06,0.251,-64.024,-236.098,15.305,5_10_3.csv
2018-07-06T11:02:41.678514,0.406,-0.968,0.202,-52.256,-51.768,-5.549,5_10_3.csv
2018-07-06T11:02:41.722634,0.406,-0.968,0.202,18.049,0.61,24.512,5_10_3.csv
2018-07-06T11:02:41.784301,0.108,-0.601,-0.287,165.549,71.28,30.732,5_10_3.csv
2018-07-06T11:02:41.841957,-0.012,0.549,-0.237,253.963,74.512,49.756,5_10_3.csv
2018-07-06T11:02:41.896107,-0.012,0.549,-0.237,148.354,37.073,105.915,5_10_3.csv
2018-07-06T11:02:41.941228,-0.917,3.737,-0.598,-87.5,39.817,85.305,5_10_3.csv
2018-07-06T11:02:42.004901,-1.01,3.526,-0.448,-97.012,68.659,-52.561,5_10_3.csv
2018-07-06T11:02:42.052527,-1.01,3.526,-0.448,-185.671,0.549,46.89,5_10_3.csv
2018-07-06T11:02:42.102159,0.089,-0.187,-0.061,-220.427,-46.22,-27.012,5_10_3.csv
2018-07-06T11:02:42.147280,0.138,-1.19,0.048,5.305,6.951,-86.037,5_10_3.csv
2018-07-06T11:02:42.199419,0.138,-1.19,0.048,-26.951,-9.024,20.854,5_10_3.csv
2018-07-06T11:02:42.254064,0.126,-0.317,-0.24,103.72,-14.207,17.317,5_10_3.csv
2018-07-06T11:02:42.301692,0.126,-0.317,-0.24,259.146,-3.171,3.232,5_10_3.csv
2018-07-06T11:02:42.348819,-0.046,0.415,0.107,92.988,34.695,69.146,5_10_3.csv
2018-07-06T11:02:42.398953,-0.848,2.658,-0.582,-73.841,75.549,86.768,5_10_3.csv
2018-07-06T11:02:42.443073,-0.848,2.658,-0.582,-123.963,61.585,33.293,5_10_3.csv
2018-07-06T11:02:42.488695,-0.609,4.053,-0.653,32.622,-51.402,-70.427,5_10_3.csv
2018-07-06T11:02:42.536324,-0.609,4.053,-0.653,15.488,-5.244,-60.793,5_10_3.csv
2018-07-06T11:02:42.581444,-0.166,0.443,0.035,26.707,27.988,-48.354,5_10_3.csv
2018-07-06T11:02:42.629577,0.219,-1.08,0.158,-68.72,-52.073,-72.378,5_10_3.csv
2018-07-06T11:02:42.683722,0.219,-1.08,0.158,-75.915,37.012,-48.598,5_10_3.csv
2018-07-06T11:02:42.725839,0.044,-0.515,-0.153,-18.841,61.28,15.915,5_10_3.csv
2018-07-06T11:02:42.768953,0.044,-0.515,-0.153,26.951,74.817,34.878,5_10_3.csv
2018-07-06T11:02:42.818089,-0.565,0.068,0.129,56.707,41.768,62.378,5_10_3.csv
2018-07-06T11:02:42.862206,-0.565,0.068,0.129,65.305,12.561,94.878,5_10_3.csv
2018-07-06T11:02:42.946435,-1.356,3.029,-0.332,-160.183,-177.622,-21.098,5_10_3.csv
2018-07-06T11:02:42.999576,-0.272,3.363,-0.307,-50.549,-38.659,-66.646,5_10_3.csv
2018-07-06T11:02:43.049713,-0.146,0.802,0.531,-131.524,40.427,31.646,5_10_3.csv
2018-07-06T11:02:43.097841,-0.146,0.802,0.531,-265.488,-0.427,79.695,5_10_3.csv
2018-07-06T11:02:43.146976,-0.07,-1.158,-0.016,-185.854,10.549,43.354,5_10_3.csv
2018-07-06T11:02:43.191095,-0.059,-0.74,-0.412,88.476,109.085,-59.939,5_10_3.csv
2018-07-06T11:02:43.238224,-0.059,-0.74,-0.412,188.415,76.829,46.159,5_10_3.csv
2018-07-06T11:02:43.295377,0.087,0.367,-0.134,215.976,113.354,27.561,5_10_3.csv
2018-07-06T11:02:43.348522,0.087,0.367,-0.134,179.512,36.646,87.195,5_10_3.csv
2018-07-06T11:02:43.394646,-0.985,3.206,-0.289,-110.122,66.768,-53.72,5_10_3.csv
2018-07-06T11:02:43.441776,-1.02,3.219,0.165,-84.634,4.939,-58.354,5_10_3.csv
2018-07-06T11:02:43.488902,-1.02,3.219,0.165,-54.207,-26.89,116.281,5_10_3.csv
2018-07-06T11:02:43.539041,-0.53,-0.009,-0.069,-210.732,111.159,124.939,5_10_3.csv
2018-07-06T11:02:43.588171,-0.53,-0.009,-0.069,-68.476,30.427,-31.098,5_10_3.csv
2018-07-06T11:02:43.649837,-0.195,-0.646,-0.229,80.854,-61.585,-11.89,5_10_3.csv
2018-07-06T11:02:43.693454,0.363,-0.061,0.026,-18.415,-48.841,13.11,5_10_3.csv
2018-07-06T11:02:43.745593,0.363,-0.061,0.026,22.805,17.439,38.659,5_10_3.csv
2018-07-06T11:02:43.799740,-0.296,0.162,0.251,-80.61,-28.963,66.829,5_10_3.csv
2018-07-06T11:02:43.847868,-0.551,2.615,0.633,-150.244,-16.646,44.207,5_10_3.csv
2018-07-06T11:02:43.900013,-0.551,2.615,0.633,-188.963,-7.561,-34.756,5_10_3.csv
2018-07-06T11:02:43.958170,-0.311,3.478,1.155,47.561,18.476,14.146,5_10_3.csv
2018-07-06T11:02:44.004893,-0.408,0.243,0.278,-64.024,0.305,-15.427,5_10_3.csv
2018-07-06T11:02:44.052520,-0.408,0.243,0.278,-9.573,-46.585,-106.281,5_10_3.csv
2018-07-06T11:02:44.098141,-0.121,-1.059,-0.256,6.951,24.268,-174.268,5_10_3.csv
2018-07-06T11:02:44.146270,-0.121,-1.059,-0.256,81.585,-21.463,-66.037,5_10_3.csv
2018-07-06T11:02:44.199912,0.26,-0.251,-0.207,160.061,-10.305,6.89,5_10_3.csv
2018-07-06T11:02:44.318228,-1.416,3.418,0.032,-84.817,85.244,-77.988,5_10_3.csv
2018-07-06T11:02:44.363850,-1.416,3.418,0.032,-74.634,-16.768,-81.341,5_10_3.csv
2018-07-06T11:02:44.411479,-0.938,1.976,0.296,-55.793,-40.976,17.988,5_10_3.csv
2018-07-06T11:02:44.455596,-0.938,1.976,0.296,-120.061,-25.671,19.268,5_10_3.csv
2018-07-06T11:02:44.504732,-0.014,-1.045,0.086,-99.695,-57.561,-48.171,5_10_3.csv
2018-07-06T11:02:44.556871,0.12,-1.133,-0.144,106.098,42.866,-63.293,5_10_3.csv
2018-07-06T11:02:44.596983,0.12,-1.133,-0.144,189.39,-27.378,84.634,5_10_3.csv
2018-07-06T11:02:44.644108,0.476,0.609,0.314,128.72,11.829,131.281,5_10_3.csv
2018-07-06T11:02:44.693245,0.476,0.609,0.314,-128.842,61.585,223.171,5_10_3.csv
2018-07-06T11:02:44.737362,-0.708,2.764,0.45,-218.232,122.988,169.329,5_10_3.csv
2018-07-06T11:02:44.784490,-0.708,2.764,0.45,-0.366,96.159,-34.085,5_10_3.csv
2018-07-06T11:02:44.838637,-1.317,3.568,0.247,-106.281,-12.195,-41.768,5_10_3.csv
2018-07-06T11:02:44.883258,0.097,0.253,0.322,-66.646,-116.402,-48.659,5_10_3.csv
2018-07-06T11:02:44.925874,0.097,0.253,0.322,-83.476,-115.0,-52.317,5_10_3.csv
2018-07-06T11:02:44.976009,0.177,-1.477,0.049,-70.61,64.756,-46.707,5_10_3.csv
2018-07-06T11:02:45.019126,0.177,-1.477,0.049,-51.22,133.659,44.329,5_10_3.csv
2018-07-06T11:02:45.068257,-0.075,-0.25,-0.332,-86.463,59.207,167.866,5_10_3.csv
2018-07-06T11:02:45.121404,-0.119,0.968,0.24,187.561,-10.122,83.902,5_10_3.csv
2018-07-06T11:02:45.176051,-0.119,0.968,0.24,123.842,-2.622,33.963,5_10_3.csv
2018-07-06T11:02:45.224683,-0.875,2.996,0.869,14.268,12.317,-25.244,5_10_3.csv
2018-07-06T11:02:45.271811,-0.875,2.996,0.869,-4.939,4.634,-54.695,5_10_3.csv
2018-07-06T11:02:45.384625,-0.007,-0.459,0.246,-17.378,-28.476,-46.951,5_10_3.csv
2018-07-06T11:02:45.431289,-0.007,-0.459,0.246,54.939,-46.707,-55.427,5_10_3.csv
2018-07-06T11:02:45.492452,-0.128,-1.263,-0.156,321.707,-51.098,-67.012,5_10_3.csv
2018-07-06T11:02:45.539076,0.016,-0.076,-0.188,285.061,-38.171,-28.72,5_10_3.csv
2018-07-06T11:02:45.583216,0.016,-0.076,-0.188,149.085,29.695,9.024,5_10_3.csv
2018-07-06T11:02:45.682482,-1.383,3.875,-1.185,-124.573,63.293,-25.244,5_10_3.csv
2018-07-06T11:02:45.723591,-1.383,3.875,-1.185,-122.439,34.878,-26.951,5_10_3.csv
2018-07-06T11:02:45.770716,-0.44,1.054,-0.345,-113.476,-8.476,-26.768,5_10_3.csv
2018-07-06T11:02:45.828871,-0.44,1.054,-0.345,-137.134,-122.073,-39.573,5_10_3.csv
2018-07-06T11:02:45.880008,0.261,-1.631,0.287,-73.11,-68.232,-47.317,5_10_3.csv
2018-07-06T11:02:45.926632,-0.004,-0.42,-0.028,85.122,29.39,59.512,5_10_3.csv
2018-07-06T11:02:45.975262,-0.004,-0.42,-0.028,25.793,56.646,89.268,5_10_3.csv
2018-07-06T11:02:46.022387,0.104,0.509,0.238,-14.573,4.939,128.11,5_10_3.csv
2018-07-06T11:02:46.071017,0.104,0.509,0.238,-69.268,-25.671,164.634,5_10_3.csv
2018-07-06T11:02:46.119145,0.077,3.53,-0.465,-18.537,27.622,113.232,5_10_3.csv
2018-07-06T11:02:46.162260,0.077,3.53,-0.465,-10.488,64.573,33.293,5_10_3.csv
2018-07-06T11:02:46.208383,-0.718,3.113,-0.853,-35.305,-17.317,-24.329,5_10_3.csv
2018-07-06T11:02:46.256010,-0.009,-0.022,0.304,-31.159,-123.842,-40.732,5_10_3.csv
2018-07-06T11:02:46.302888,-0.009,-0.022,0.304,-69.817,-124.817,-18.049,5_10_3.csv
2018-07-06T11:02:46.351017,0.091,-1.126,0.462,-25.793,-28.11,-11.768,5_10_3.csv
2018-07-06T11:02:46.408169,-0.123,0.19,0.061,49.085,30.366,47.012,5_10_3.csv
2018-07-06T11:02:46.462313,-0.123,0.19,0.061,2.317,32.317,24.817,5_10_3.csv
2018-07-06T11:02:46.508436,0.141,2.439,0.26,-30.0,25.976,-44.878,5_10_3.csv
2018-07-06T11:02:46.566090,-0.527,2.94,-0.12,-117.073,116.463,-137.744,5_10_3.csv
2018-07-06T11:02:46.615221,-0.527,2.94,-0.12,-79.329,219.939,-39.329,5_10_3.csv
2018-07-06T11:02:46.662346,-0.928,0.912,-0.117,-25.732,9.512,-27.622,5_10_3.csv
2018-07-06T11:02:46.716491,-0.928,0.912,-0.117,-8.963,-148.171,-116.463,5_10_3.csv
2018-07-06T11:02:46.786177,0.466,-1.609,0.508,47.744,48.476,-45.671,5_10_3.csv
2018-07-06T11:02:46.835809,0.031,-0.498,-0.088,202.5,119.207,-10.488,5_10_3.csv
2018-07-06T11:02:46.883436,0.031,-0.498,-0.088,250.732,103.11,-4.39,5_10_3.csv
2018-07-06T11:02:46.931564,-0.648,1.167,-0.552,19.451,39.817,12.683,5_10_3.csv
2018-07-06T11:02:47.042863,-1.718,3.196,-1.031,-163.232,-98.659,-98.11,5_10_3.csv
2018-07-06T11:02:47.093999,-1.351,1.648,-0.127,-137.012,-45.915,28.171,5_10_3.csv
2018-07-06T11:02:47.144138,0.134,-0.931,0.485,6.646,-138.415,24.024,5_10_3.csv
2018-07-06T11:02:47.191263,0.134,-0.931,0.485,138.415,-138.902,5.0,5_10_3.csv
2018-07-06T11:02:47.238395,0.277,-0.856,0.091,254.756,-17.012,4.878,5_10_3.csv
2018-07-06T11:02:47.289531,0.277,-0.856,0.091,242.012,50.671,22.134,5_10_3.csv
2018-07-06T11:02:47.330645,-0.181,0.25,-0.364,-52.744,77.866,45.0,5_10_3.csv
2018-07-06T11:02:47.377771,-0.998,1.587,-0.539,-44.451,44.634,35.488,5_10_3.csv
2018-07-06T11:02:47.426907,-0.998,1.587,-0.539,-40.061,1.829,-58.476,5_10_3.csv
2018-07-06T11:02:47.473029,-1.342,3.124,-0.206,-75.61,-116.829,-127.988,5_10_3.csv
2018-07-06T11:02:47.519154,-1.342,3.124,-0.206,-77.256,-23.354,-81.829,5_10_3.csv
2018-07-06T11:02:47.573299,-0.964,1.435,0.042,39.329,-37.988,41.463,5_10_3.csv
2018-07-06T11:02:47.632958,0.155,-0.566,0.114,-70.671,-89.512,25.793,5_10_3.csv
2018-07-06T11:02:47.678580,0.155,-0.566,0.114,-116.159,19.573,-5.976,5_10_3.csv
2018-07-06T11:02:47.728713,0.042,-1.092,-0.203,-11.646,68.78,-1.89,5_10_3.csv
2018-07-06T11:02:47.769323,0.042,-1.092,-0.203,114.939,65.793,39.634,5_10_3.csv
2018-07-06T11:02:47.816449,-0.265,0.124,-0.193,66.463,8.841,104.268,5_10_3.csv
2018-07-06T11:02:47.871601,-1.313,3.043,-0.781,21.585,25.793,56.463,5_10_3.csv
2018-07-06T11:02:47.913714,-1.313,3.043,-0.781,13.354,-25.488,-64.39,5_10_3.csv
2018-07-06T11:02:47.956834,-1.252,2.597,-0.754,-40.427,-54.024,-59.207,5_10_3.csv
2018-07-06T11:02:48.006968,-1.252,2.597,-0.754,24.573,-110.549,57.561,5_10_3.csv
2018-07-06T11:02:48.051089,0.255,0.045,0.37,-17.744,-216.098,90.0,5_10_3.csv
2018-07-06T11:02:48.102225,0.352,-0.958,0.469,-38.78,15.732,-61.159,5_10_3.csv
2018-07-06T11:02:48.156372,0.352,-0.958,0.469,37.195,84.085,-32.988,5_10_3.csv
2018-07-06T11:02:48.208512,-0.194,-0.279,-0.178,77.927,120.427,17.866,5_10_3.csv
2018-07-06T11:02:48.254634,-0.715,1.524,-0.729,94.512,92.927,37.561,5_10_3.csv
2018-07-06T11:02:48.302765,-0.715,1.524,-0.729,47.134,22.073,43.72,5_10_3.csv
2018-07-06T11:02:48.347885,-1.02,4.107,-0.534,-143.537,-17.256,1.037,5_10_3.csv
2018-07-06T11:02:48.487329,-0.526,1.157,0.322,-361.098,123.902,-29.573,5_10_3.csv
2018-07-06T11:02:48.551500,0.087,-1.054,-0.403,45.488,53.354,-98.049,5_10_3.csv
2018-07-06T11:02:48.620687,0.163,-0.757,-0.5,185.305,-39.146,159.695,5_10_3.csv
2018-07-06T11:02:48.665306,0.1,0.987,0.099,297.378,-107.195,225.732,5_10_3.csv
2018-07-06T11:02:48.711430,0.1,0.987,0.099,247.988,-66.768,173.963,5_10_3.csv
2018-07-06T11:02:48.756048,-0.762,4.064,0.254,36.646,21.89,-33.537,5_10_3.csv
2018-07-06T11:02:48.799668,-0.762,4.064,0.254,-172.988,9.146,-139.268,5_10_3.csv
2018-07-06T11:02:48.856819,-0.601,2.427,-0.141,-179.451,-11.829,-112.439,5_10_3.csv
2018-07-06T11:02:48.900941,0.402,-1.412,0.076,-97.012,-168.598,-89.39,5_10_3.csv
2018-07-06T11:02:48.942051,0.402,-1.412,0.076,5.61,-68.598,-141.585,5_10_3.csv
2018-07-06T11:02:48.993191,0.142,-1.206,0.029,155.244,48.72,-27.256,5_10_3.csv
2018-07-06T11:02:49.049340,0.142,-1.206,0.029,118.049,82.012,102.317,5_10_3.csv
2018-07-06T11:02:49.096471,0.046,-0.166,-0.196,94.39,119.573,131.402,5_10_3.csv
2018-07-06T11:02:49.154626,-0.088,2.292,-0.7,199.024,37.683,132.744,5_10_3.csv
2018-07-06T11:02:49.193737,-0.088,2.292,-0.7,15.427,-42.744,140.427,5_10_3.csv
2018-07-06T11:02:49.236852,0.265,4.604,-0.712,-114.207,-38.049,16.524,5_10_3.csv
2018-07-06T11:02:49.284985,0.265,4.604,-0.712,84.817,-44.39,-68.11,5_10_3.csv
2018-07-06T11:02:49.333113,-0.232,1.011,0.447,25.122,-34.695,13.293,5_10_3.csv
2018-07-06T11:02:49.379238,-0.232,1.011,0.447,-11.341,-57.622,-2.195,5_10_3.csv
2018-07-06T11:02:49.433981,-0.098,-0.888,0.424,-27.744,37.927,-67.744,5_10_3.csv
2018-07-06T11:02:49.473588,-0.118,-0.507,-0.258,28.049,32.073,-13.902,5_10_3.csv
2018-07-06T11:02:49.519090,-0.118,-0.507,-0.258,58.049,23.537,-34.939,5_10_3.csv
2018-07-06T11:02:49.567721,0.031,0.1,0.291,79.878,1.646,-24.756,5_10_3.csv
2018-07-06T11:02:49.613342,0.031,0.1,0.291,10.793,23.171,-0.732,5_10_3.csv
2018-07-06T11:02:49.660969,-0.583,3.292,0.106,-98.476,116.707,-22.073,5_10_3.csv
2018-07-06T11:02:49.775775,-1.212,3.265,-1.029,-86.28,-7.134,-63.049,5_10_3.csv
2018-07-06T11:02:49.818388,-0.396,-0.158,-0.035,-68.659,-139.024,-18.537,5_10_3.csv
2018-07-06T11:02:49.864010,0.304,-1.527,0.333,-36.89,-82.378,-47.439,5_10_3.csv
2018-07-06T11:02:49.910635,0.304,-1.527,0.333,9.939,5.915,30.915,5_10_3.csv
2018-07-06T11:02:49.957760,0.111,-0.604,-0.171,85.671,52.317,92.378,5_10_3.csv
2018-07-06T11:02:50.003883,0.111,-0.604,-0.171,110.671,21.463,138.476,5_10_3.csv
2018-07-06T11:02:50.054520,-0.061,1.441,-0.279,93.049,-13.78,139.695,5_10_3.csv
2018-07-06T11:02:50.098638,-0.061,1.441,-0.279,47.5,-40.732,105.0,5_10_3.csv
2018-07-06T11:02:50.146772,-0.686,3.696,0.101,-127.683,-46.768,-173.781,5_10_3.csv
2018-07-06T11:02:50.191891,-1.053,2.298,-0.005,-86.951,33.293,-105.305,5_10_3.csv
2018-07-06T11:02:50.237016,-1.053,2.298,-0.005,7.561,-51.402,-40.061,5_10_3.csv
2018-07-06T11:02:50.285145,-0.064,0.054,0.259,-39.817,-138.11,-48.11,5_10_3.csv
2018-07-06T11:02:50.339294,-0.064,0.054,0.259,-67.744,-148.781,-39.939,5_10_3.csv
2018-07-06T11:02:50.472165,0.165,-0.195,-0.277,52.805,49.268,211.89,5_10_3.csv
2018-07-06T11:02:50.537845,-0.152,2.936,-0.129,18.537,0.976,147.561,5_10_3.csv
2018-07-06T11:02:50.587978,-1.013,3.642,0.649,-92.256,67.439,-263.354,5_10_3.csv
2018-07-06T11:02:50.631097,-1.013,3.642,0.649,-87.439,122.561,-273.11,5_10_3.csv
2018-07-06T11:02:50.685243,-0.65,0.683,0.196,-129.695,38.841,-128.598,5_10_3.csv
2018-07-06T11:02:50.741396,-0.65,0.683,0.196,-127.744,-58.415,-71.585,5_10_3.csv
2018-07-06T11:02:50.786517,0.522,-1.376,-0.301,61.768,23.049,-0.976,5_10_3.csv
2018-07-06T11:02:50.833143,0.186,-0.473,-0.166,55.854,63.659,90.61,5_10_3.csv
2018-07-06T11:02:50.943938,-0.686,1.745,0.369,-32.073,36.707,144.878,5_10_3.csv
2018-07-06T11:02:50.987557,-0.686,1.745,0.369,-175.061,-20.61,50.61,5_10_3.csv
2018-07-06T11:02:51.035685,-1.612,2.352,1.574,-352.561,52.805,-132.195,5_10_3.csv
2018-07-06T11:02:51.135957,-0.878,0.786,1.519,-137.317,-54.146,56.463,5_10_3.csv
2018-07-06T11:02:51.177069,0.206,-0.745,-0.57,-56.22,-22.988,17.317,5_10_3.csv
2018-07-06T11:02:51.223192,0.206,-0.745,-0.57,71.159,44.634,2.744,5_10_3.csv
2018-07-06T11:02:51.269816,0.031,-0.695,-0.833,127.744,17.317,84.146,5_10_3.csv
2018-07-06T11:02:51.315941,-0.006,0.581,-0.166,378.902,-81.341,99.878,5_10_3.csv
2018-07-06T11:02:51.366075,-0.006,0.581,-0.166,401.524,-84.085,56.28,5_10_3.csv
2018-07-06T11:02:51.422230,-1.206,4.038,0.696,185.976,-29.268,-18.902,5_10_3.csv
2018-07-06T11:02:51.471361,-0.863,2.6,1.007,-496.098,-88.049,-121.585,5_10_3.csv
2018-07-06T11:02:51.519493,-0.863,2.6,1.007,-561.342,-27.927,33.476,5_10_3.csv
2018-07-06T11:02:51.567622,0.221,-0.805,-0.085,-269.573,8.354,62.866,5_10_3.csv
2018-07-06T11:02:51.615754,0.221,-0.805,-0.085,-50.854,37.683,-10.0,5_10_3.csv
2018-07-06T11:02:51.664884,0.014,-0.845,-0.764,-0.671,70.0,-37.805,5_10_3.csv
2018-07-06T11:02:51.714021,-0.03,-0.205,-0.286,230.488,-41.037,105.244,5_10_3.csv
2018-07-06T11:02:51.784711,-0.03,-0.205,-0.286,271.22,-62.439,103.842,5_10_3.csv
2018-07-06T11:02:51.832338,0.213,2.456,1.688,-172.927,82.561,55.0,5_10_3.csv
2018-07-06T11:02:51.880466,-0.834,2.217,1.655,-167.683,238.963,2.439,5_10_3.csv
2018-07-06T11:02:51.927592,-0.834,2.217,1.655,280.793,275.549,14.634,5_10_3.csv
2018-07-06T11:02:51.972712,-1.257,1.255,-0.309,81.707,104.39,49.085,5_10_3.csv
2018-07-06T11:02:52.044403,-0.159,-1.411,-0.986,-59.39,-84.268,-74.512,5_10_3.csv
2018-07-06T11:02:52.098046,-0.159,-1.411,-0.986,178.11,-34.085,-66.707,5_10_3.csv
2018-07-06T11:02:52.145172,0.171,-0.686,-0.229,281.281,-129.39,93.72,5_10_3.csv
2018-07-06T11:02:52.192298,0.171,-0.686,-0.229,214.268,-166.524,136.646,5_10_3.csv
2018-07-06T11:02:52.237919,0.018,2.505,0.558,63.78,-38.171,-48.841,5_10_3.csv
2018-07-06T11:02:52.287050,-0.732,3.406,0.554,5.671,1.89,-178.354,5_10_3.csv
2018-07-06T11:02:52.334807,-0.732,3.406,0.554,-12.805,43.963,-127.683,5_10_3.csv
2018-07-06T11:02:52.380930,-0.763,0.885,-0.261,22.927,27.439,-10.732,5_10_3.csv
2018-07-06T11:02:52.601476,-0.109,0.674,-0.186,173.598,124.024,45.854,5_10_3.csv
2018-07-06T11:02:52.650108,-0.109,0.674,-0.186,102.378,113.476,66.89,5_10_3.csv
2018-07-06T11:02:52.693223,-1.337,3.414,-1.099,-15.671,117.073,8.902,5_10_3.csv
2018-07-06T11:02:52.748377,-1.337,3.414,-1.099,-118.354,-0.671,-80.122,5_10_3.csv
2018-07-06T11:02:52.801019,-1.131,2.737,-0.785,-36.524,-53.72,-67.927,5_10_3.csv
2018-07-06T11:02:52.847646,-0.169,0.065,0.218,-42.561,-121.402,-47.5,5_10_3.csv
2018-07-06T11:02:52.893769,-0.169,0.065,0.218,-62.561,-169.634,-38.78,5_10_3.csv
2018-07-06T11:02:52.944907,0.534,-1.301,0.416,-12.988,-102.134,-40.183,5_10_3.csv
2018-07-06T11:02:52.988022,0.534,-1.301,0.416,89.878,0.732,-14.634,5_10_3.csv
2018-07-06T11:02:53.037153,0.204,-0.549,0.042,142.012,79.268,33.78,5_10_3.csv
2018-07-06T11:02:53.093302,-0.246,0.549,-0.689,140.732,104.878,97.988,5_10_3.csv
2018-07-06T11:02:53.145441,-0.246,0.549,-0.689,124.634,144.756,81.463,5_10_3.csv
2018-07-06T11:02:53.194071,-1.287,2.931,-1.67,149.817,154.512,4.024,5_10_3.csv
2018-07-06T11:02:53.240696,-0.863,2.386,-1.256,1.829,-34.207,-46.037,5_10_3.csv
2018-07-06T11:02:53.285315,-0.863,2.386,-1.256,-270.793,-4.573,88.659,5_10_3.csv
2018-07-06T11:02:53.332440,-0.203,0.105,-0.412,-496.159,-44.146,154.878,5_10_3.csv
2018-07-06T11:02:53.378563,-0.203,0.105,-0.412,-444.146,-52.561,104.207,5_10_3.csv
2018-07-06T11:02:53.425689,-0.153,-1.356,-0.343,-99.817,-28.841,-11.707,5_10_3.csv
2018-07-06T11:02:53.474819,-0.153,-1.356,-0.343,200.305,-89.878,31.585,5_10_3.csv
2018-07-06T11:02:53.520441,0.051,0.249,-0.083,181.342,-103.232,60.854,5_10_3.csv
2018-07-06T11:02:53.566564,-0.044,2.026,0.159,130.915,-76.646,-1.28,5_10_3.csv
2018-07-06T11:02:53.614693,-0.044,2.026,0.159,34.512,-4.512,-35.549,5_10_3.csv
2018-07-06T11:02:53.662821,-0.822,3.452,-0.516,-27.805,28.476,-90.549,5_10_3.csv
2018-07-06T11:02:53.709947,-0.822,3.452,-0.516,-36.22,43.78,-81.646,5_10_3.csv
2018-07-06T11:02:53.755067,-0.712,1.278,-0.489,10.732,-2.5,-6.22,5_10_3.csv
2018-07-06T11:02:53.854331,0.365,-0.687,0.784,55.427,14.085,-74.756,5_10_3.csv
2018-07-06T11:02:53.897447,0.179,-0.784,0.102,40.488,25.061,-33.72,5_10_3.csv
2018-07-06T11:02:53.961617,0.179,-0.784,0.102,126.524,101.951,-18.841,5_10_3.csv
2018-07-06T11:02:54.010922,0.093,-0.141,-0.389,90.61,111.342,65.0,5_10_3.csv
2018-07-06T11:02:54.053536,-0.532,2.648,-1.323,-65.732,80.122,113.781,5_10_3.csv
2018-07-06T11:02:54.103669,-0.532,2.648,-1.323,-109.207,26.585,2.866,5_10_3.csv
2018-07-06T11:02:54.149292,-0.78,3.619,-1.245,-138.72,-22.073,-108.232,5_10_3.csv
2018-07-06T11:02:54.202433,-0.78,3.619,-1.245,-132.378,0.366,-42.439,5_10_3.csv
2018-07-06T11:02:54.256577,-0.104,0.407,-0.129,-90.0,-97.683,-53.72,5_10_3.csv
2018-07-06T11:02:54.300695,0.193,-1.341,0.366,-13.902,-46.341,-79.024,5_10_3.csv
2018-07-06T11:02:54.351831,0.193,-1.341,0.366,54.512,32.5,-67.378,5_10_3.csv
2018-07-06T11:02:54.399459,0.047,-0.369,-0.147,61.463,34.39,10.854,5_10_3.csv
2018-07-06T11:02:54.448589,-0.012,0.746,-0.075,115.488,62.622,22.256,5_10_3.csv
2018-07-06T11:02:54.495214,-0.012,0.746,-0.075,83.293,22.622,28.78,5_10_3.csv
2018-07-06T11:02:54.536323,-1.264,2.75,-0.751,-132.256,88.78,-27.134,5_10_3.csv
2018-07-06T11:02:54.583449,-1.264,2.75,-0.751,-135.915,84.817,-14.085,5_10_3.csv
2018-07-06T11:02:54.633081,-1.042,3.14,-0.962,6.22,-56.768,-17.683,5_10_3.csv
2018-07-06T11:02:54.680708,-1.042,3.14,-0.962,-11.037,-13.963,-14.146,5_10_3.csv
2018-07-06T11:02:54.729839,0.097,-0.298,0.202,-45.549,-112.683,-67.195,5_10_3.csv
2018-07-06T11:02:54.784485,0.195,-1.167,0.245,7.073,25.183,-68.354,5_10_3.csv
2018-07-06T11:02:54.834117,0.195,-1.167,0.245,69.817,31.22,-2.012,5_10_3.csv
2018-07-06T11:02:54.880741,0.074,-0.099,-0.234,128.963,30.793,49.329,5_10_3.csv
2018-07-06T11:02:54.938896,-0.322,1.272,-0.366,149.268,16.524,71.463,5_10_3.csv
2018-07-06T11:02:54.996663,-0.322,1.272,-0.366,-4.329,-7.744,30.854,5_10_3.csv
2018-07-06T11:02:55.035767,-1.137,3.706,-1.2,-253.537,78.963,-4.878,5_10_3.csv
2018-07-06T11:02:55.086402,-1.137,3.706,-1.2,-161.22,37.561,3.537,5_10_3.csv
2018-07-06T11:02:55.138541,-0.877,1.988,-0.573,-90.305,-76.28,-38.963,5_10_3.csv
2018-07-06T11:02:55.237805,0.329,-1.094,0.415,257.866,-70.915,-145.244,5_10_3.csv
2018-07-06T11:02:55.289443,0.243,-0.637,0.193,81.341,21.707,-12.5,5_10_3.csv
2018-07-06T11:02:55.332056,0.156,0.321,-0.101,-68.354,106.098,51.585,5_10_3.csv
2018-07-06T11:02:55.380185,0.156,0.321,-0.101,-217.561,93.476,164.146,5_10_3.csv
2018-07-06T11:02:55.432913,-0.885,1.618,-0.724,-134.268,47.195,127.073,5_10_3.csv
2018-07-06T11:02:55.472017,-0.885,1.618,-0.724,285.61,39.085,-186.707,5_10_3.csv
2018-07-06T11:02:55.520150,-1.795,2.957,-1.513,114.39,52.683,-212.012,5_10_3.csv
2018-07-06T11:02:55.573292,-0.685,0.688,-0.922,-19.878,22.988,22.988,5_10_3.csv
2018-07-06T11:02:55.614405,-0.685,0.688,-0.922,-39.512,-159.268,44.085,5_10_3.csv
2018-07-06T11:02:55.660528,0.443,-0.742,0.659,-176.159,-139.695,83.78,5_10_3.csv
2018-07-06T11:02:55.708661,0.443,-0.742,0.659,-275.061,74.329,163.415,5_10_3.csv
2018-07-06T11:02:55.753781,-0.034,-0.545,-0.131,-189.695,43.171,221.89,5_10_3.csv
2018-07-06T11:02:55.800911,-0.034,-0.545,-0.131,-111.646,46.341,214.39,5_10_3.csv
2018-07-06T11:02:55.857061,-0.057,-0.111,-0.423,155.488,-46.646,100.854,5_10_3.csv
2018-07-06T11:02:55.908889,0.205,3.227,-0.263,383.354,-109.085,21.951,5_10_3.csv
2018-07-06T11:02:55.957018,0.205,3.227,-0.263,49.024,-35.549,-29.573,5_10_3.csv
2018-07-06T11:02:56.005150,-0.041,4.077,-0.604,-136.646,-6.341,-72.5,5_10_3.csv
2018-07-06T11:02:56.052275,-0.041,4.077,-0.604,-191.951,10.915,-36.951,5_10_3.csv
2018-07-06T11:02:56.098400,0.064,0.377,-0.063,-189.512,-60.183,-25.976,5_10_3.csv
2018-07-06T11:02:56.150542,-0.1,-1.718,0.172,-4.939,35.244,-95.183,5_10_3.csv
2018-07-06T11:02:56.194160,-0.1,-1.718,0.172,136.646,94.878,-106.037,5_10_3.csv
2018-07-06T11:02:56.238782,-0.004,-0.625,-0.411,355.732,23.537,-9.268,5_10_3.csv
2018-07-06T11:02:56.304458,0.002,0.841,-0.63,280.244,62.988,12.927,5_10_3.csv
2018-07-06T11:02:56.359605,0.002,0.841,-0.63,70.122,64.634,71.098,5_10_3.csv
2018-07-06T11:02:56.413248,-0.734,3.707,-1.791,-52.988,30.366,22.561,5_10_3.csv
2018-07-06T11:02:56.460375,-0.453,2.499,-0.892,-88.72,-71.037,-70.793,5_10_3.csv
2018-07-06T11:02:56.503990,-0.453,2.499,-0.892,-123.537,-102.439,-35.915,5_10_3.csv
2018-07-06T11:02:56.667753,0.01,-1.453,0.134,89.756,22.439,72.927,5_10_3.csv
2018-07-06T11:02:56.706864,0.208,0.026,-0.044,122.561,49.024,110.427,5_10_3.csv
2018-07-06T11:02:56.752986,0.208,0.026,-0.044,25.61,73.293,177.5,5_10_3.csv
2018-07-06T11:02:56.807137,-0.096,2.355,-0.112,-120.183,42.683,186.951,5_10_3.csv
2018-07-06T11:02:56.848246,-0.096,2.355,-0.112,-122.012,13.902,28.963,5_10_3.csv
2018-07-06T11:02:56.893953,-0.208,4.042,-0.652,-86.463,12.317,-109.268,5_10_3.csv
2018-07-06T11:02:56.943084,-0.251,1.813,-0.274,-15.549,-10.61,-67.317,5_10_3.csv
2018-07-06T11:02:56.987204,-0.251,1.813,-0.274,-69.329,-96.159,-83.049,5_10_3.csv
2018-07-06T11:02:57.036337,0.078,-0.917,0.443,-109.024,-97.927,-127.256,5_10_3.csv
2018-07-06T11:02:57.091487,0.078,-0.917,0.443,-122.073,47.988,-176.951,5_10_3.csv
2018-07-06T11:02:57.134604,0.139,-1.038,-0.091,-95.183,54.146,-114.756,5_10_3.csv
2018-07-06T11:02:57.174712,0.139,-1.038,-0.091,37.134,25.122,17.439,5_10_3.csv
2018-07-06T11:02:57.223802,0.329,-0.376,-0.3,93.72,53.72,135.244,5_10_3.csv
2018-07-06T11:02:57.269925,-0.415,1.929,-0.081,58.841,-42.561,212.256,5_10_3.csv
2018-07-06T11:02:57.318058,-0.415,1.929,-0.081,-35.122,-46.646,130.488,5_10_3.csv
2018-07-06T11:02:57.388748,-0.873,4.24,-0.047,-22.866,-62.561,-156.22,5_10_3.csv
2018-07-06T11:02:57.442394,-0.308,1.857,0.142,-23.232,-64.817,-58.171,5_10_3.csv
2018-07-06T11:02:57.488520,-0.308,1.857,0.142,-72.683,-59.39,-32.561,5_10_3.csv
2018-07-06T11:02:57.552693,0.255,-1.26,0.124,22.134,14.695,-24.573,5_10_3.csv
2018-07-06T11:02:57.598816,0.33,-1.411,-0.262,112.927,87.439,25.61,5_10_3.csv
2018-07-06T11:02:57.645946,0.33,-1.411,-0.262,205.427,76.951,148.049,5_10_3.csv
2018-07-06T11:02:57.696080,0.182,0.609,-0.293,247.317,97.195,172.378,5_10_3.csv
2018-07-06T11:02:57.741206,0.182,0.609,-0.293,144.329,74.939,199.146,5_10_3.csv
2018-07-06T11:02:57.784321,-0.589,3.155,-0.4,-7.744,16.098,-116.281,5_10_3.csv
2018-07-06T11:02:57.835463,-0.357,3.225,-1.338,-74.268,4.207,-168.11,5_10_3.csv
2018-07-06T11:02:57.946263,-0.065,0.88,-0.339,-116.281,-125.732,-0.244,5_10_3.csv
2018-07-06T11:02:57.992386,0.101,-1.292,0.544,-71.341,-75.915,-36.28,5_10_3.csv
2018-07-06T11:02:58.041522,0.101,-1.292,0.544,21.646,42.561,-59.695,5_10_3.csv
2018-07-06T11:02:58.080627,-0.01,-0.572,0.175,71.524,74.573,5.732,5_10_3.csv
2018-07-06T11:02:58.133774,-0.01,-0.572,0.175,58.354,91.402,56.646,5_10_3.csv
2018-07-06T11:02:58.180900,-0.482,1.416,0.043,-5.671,77.5,78.232,5_10_3.csv
2018-07-06T11:02:58.222513,-0.482,1.416,0.043,-65.305,59.817,2.988,5_10_3.csv
2018-07-06T11:02:58.270142,-1.021,3.493,-0.333,-177.683,-30.305,-252.256,5_10_3.csv
2018-07-06T11:02:58.329304,-0.728,1.854,-0.404,-33.171,-6.402,-156.463,5_10_3.csv
2018-07-06T11:02:58.377433,-0.728,1.854,-0.404,90.854,-105.183,-3.415,5_10_3.csv
2018-07-06T11:02:58.426566,0.236,-0.183,0.513,-162.683,-97.988,29.024,5_10_3.csv
2018-07-06T11:02:58.474193,0.227,-1.362,0.126,-53.841,58.476,-19.207,5_10_3.csv
2018-07-06T11:02:58.534854,0.227,-1.362,0.126,129.756,75.488,52.561,5_10_3.csv
2018-07-06T11:02:58.584988,0.128,-0.317,-0.218,155.61,76.341,119.146,5_10_3.csv
2018-07-06T11:02:58.635623,-0.13,1.985,-0.27,95.915,27.134,152.073,5_10_3.csv
2018-07-06T11:02:58.675229,-0.13,1.985,-0.27,71.22,43.902,73.78,5_10_3.csv
2018-07-06T11:02:58.724360,-0.866,4.156,-0.877,79.573,105.305,-57.378,5_10_3.csv
2018-07-06T11:02:58.771485,-0.866,4.156,-0.877,153.842,47.195,-75.854,5_10_3.csv
2018-07-06T11:02:58.818611,-0.259,1.104,-0.028,18.963,-89.695,12.622,5_10_3.csv
2018-07-06T11:02:58.864236,-0.259,1.104,-0.028,-98.72,-82.317,0.671,5_10_3.csv
2018-07-06T11:02:58.915372,0.016,-1.257,0.438,17.439,33.78,-57.561,5_10_3.csv
2018-07-06T11:02:58.958493,-0.027,-0.314,0.071,13.537,28.049,36.28,5_10_3.csv
2018-07-06T11:02:59.003613,-0.027,-0.314,0.071,-1.951,15.244,79.207,5_10_3.csv
2018-07-06T11:02:59.051747,-0.205,0.938,0.184,1.037,-5.61,74.512,5_10_3.csv
2018-07-06T11:02:59.097870,-0.205,0.938,0.184,-27.744,15.854,18.415,5_10_3.csv
2018-07-06T11:02:59.148009,-0.973,3.769,-0.541,-49.512,34.878,-69.573,5_10_3.csv
2018-07-06T11:02:59.215188,-0.752,2.662,-0.797,-106.585,-40.122,-131.463,5_10_3.csv
2018-07-06T11:02:59.433265,-0.097,0.217,-0.706,167.012,141.829,62.622,5_10_3.csv
2018-07-06T11:02:59.472372,-0.097,0.217,-0.706,115.061,93.78,70.366,5_10_3.csv
2018-07-06T11:02:59.521001,-0.551,0.764,-0.332,160.305,31.341,58.902,5_10_3.csv
2018-07-06T11:02:59.568628,-0.551,0.764,-0.332,129.085,-2.622,59.512,5_10_3.csv
2018-07-06T11:02:59.617759,-1.188,3.32,-0.691,-83.232,-19.207,34.024,5_10_3.csv
2018-07-06T11:02:59.667392,-1.188,3.32,-0.691,-102.927,-65.366,-68.963,5_10_3.csv
2018-07-06T11:02:59.708000,-0.763,2.82,-0.624,38.171,-45.427,-47.866,5_10_3.csv
2018-07-06T11:02:59.754627,-0.125,-0.14,0.158,-0.366,-106.342,-20.183,5_10_3.csv
2018-07-06T11:02:59.802755,-0.125,-0.14,0.158,-47.805,-97.744,-70.244,5_10_3.csv
2018-07-06T11:02:59.846877,0.278,-1.126,0.093,-120.671,16.037,-52.683,5_10_3.csv
2018-07-06T11:02:59.896008,0.278,-1.126,0.093,-74.39,62.439,11.951,5_10_3.csv
2018-07-06T11:02:59.951159,-0.113,-0.167,-0.136,31.402,79.817,45.122,5_10_3.csv
