ax,ay,az,gx,gy,gz
-0.924072,-0.138672,0.178589,1.940913,-0.347276,0.395213
-0.878052,-0.129517,0.167236,2.118812,-0.297209,0.349407
-0.899902,-0.083984,0.170654,2.225338,-0.282295,0.216249
-0.956665,-0.026123,0.163086,2.256231,-0.327036,0.152333
-0.983765,-0.006714,0.153931,2.240252,-0.394148,0.100135
-1.009155,0.021118,0.147461,2.186989,-0.461260,0.021305
-1.003540,0.028076,0.143066,2.147574,-0.507066,-0.041545
-1.016479,0.081421,0.099609,2.078332,-0.546481,-0.184291
-1.140991,0.168091,0.133179,1.771536,-0.544350,-0.320645
-1.168579,0.146606,0.158081,1.582984,-0.564590,-0.316384
-1.025146,0.117432,0.123047,1.536112,-0.567786,-0.307862
-0.975708,0.104858,0.091553,1.645834,-0.602940,-0.356864
-1.007202,0.137695,0.088989,1.822668,-0.638094,-0.432498
-1.126099,0.239624,0.115112,1.836517,-0.651942,-0.398409
-1.105469,0.264648,0.109375,1.827995,-0.641289,-0.323841
-1.061768,0.250610,0.115234,1.898302,-0.602940,-0.236489
-1.017700,0.262573,0.116089,1.996306,-0.546481,-0.140615
-1.004395,0.300537,0.104126,2.003763,-0.471912,-0.067112
-1.096680,0.342896,0.108398,1.878062,-0.400540,-0.005326
-1.177368,0.399536,0.128052,1.573396,-0.329167,0.042611
-1.175415,0.410767,0.169556,1.184575,-0.241815,0.109722
-1.110962,0.403931,0.267456,0.764860,-0.006392,0.193878
-0.955811,0.300537,0.404419,0.356864,0.093743,0.249272
-0.780884,0.222168,0.410156,0.368582,0.041545,0.299339
-0.605835,0.184692,0.313232,0.470847,-0.104396,0.321710
-0.530396,0.198120,0.340088,0.350472,-0.108657,0.239685
-0.684692,0.134644,0.398315,0.344081,-0.175769,0.157659
-0.822754,0.103516,0.336304,0.430367,-0.319579,0.083091
-0.861084,0.070557,0.267700,0.544350,-0.491087,0.038350
-0.859131,0.039917,0.230957,0.704140,-0.630637,-0.041545
-0.866577,0.072021,0.238892,0.817058,-0.662595,-0.162986
-0.881104,0.104004,0.270752,0.923585,-0.512392,-0.278034
-0.802002,0.151733,0.280518,1.051416,-0.390952,-0.331297
-0.736572,0.194946,0.265137,1.124920,-0.270577,-0.409062
-0.749268,0.234741,0.309570,1.098288,-0.162986,-0.458064
-0.782837,0.257080,0.372803,1.058873,-0.104396,-0.444215
-0.786987,0.250854,0.369019,1.115332,-0.134223,-0.386691
-0.790649,0.244873,0.349854,1.181379,-0.206661,-0.350472
-0.808960,0.249023,0.357178,1.235707,-0.291883,-0.322775
-0.831543,0.240356,0.358765,1.344364,-0.358994,-0.294013
-0.852051,0.255493,0.334351,1.414672,-0.427171,-0.311057
-0.813721,0.235718,0.286377,1.551026,-0.466586,-0.340885
-0.751343,0.250122,0.244995,1.692706,-0.476173,-0.364321
-0.734619,0.284058,0.203491,1.809885,-0.466586,-0.415453
-0.765991,0.337402,0.174561,1.833321,-0.437824,-0.482565
-0.826172,0.393799,0.139160,1.764079,-0.419714,-0.544350
-0.891479,0.441406,0.141357,1.629855,-0.370712,-0.575243
-0.976562,0.441895,0.147949,1.502023,-0.298274,-0.548611
-1.090210,0.400879,0.102661,1.584049,-0.223706,-0.482565
-1.287598,0.456421,0.101929,1.588310,-0.140615,-0.492152
-1.376709,0.515991,0.173584,1.474327,-0.038350,-0.366451
-1.047363,0.496826,0.164307,1.415737,0.050067,-0.207727
-0.893188,0.440308,0.171387,1.401889,0.115049,-0.056459
-0.865967,0.400024,0.157593,1.443434,0.115049,0.038350
-0.907959,0.409668,0.167358,1.393366,0.093743,0.068177
-0.957642,0.405273,0.189941,1.257013,0.076699,0.096939
-0.961670,0.374512,0.189209,1.128116,0.076699,0.103331
-0.984131,0.345215,0.186279,0.990696,0.096939,0.084156
-1.041748,0.339844,0.209595,0.825580,0.136354,0.077764
-1.068604,0.319702,0.218384,0.683900,0.147007,0.152333
-0.946655,0.235718,0.250854,0.684965,0.180030,0.252468
-0.873657,0.225098,0.275391,0.755273,0.223706,0.303600
-0.846069,0.234009,0.294678,0.786165,0.249272,0.324906
-0.854980,0.216431,0.239502,0.843690,0.171508,0.328102
-0.855103,0.213379,0.163086,0.838363,0.020240,0.275904
-0.859985,0.216553,0.153198,0.785100,-0.105461,0.190682
-0.907104,0.241455,0.228149,0.686031,-0.145941,0.083091
-0.931030,0.248901,0.199463,0.680704,-0.175769,0.035154
-0.929932,0.252441,0.132324,0.678574,-0.234358,-0.027697
-0.918701,0.262451,0.092773,0.648746,-0.353668,-0.127832
-0.877441,0.355835,0.017456,0.573112,-0.398409,-0.247141
-0.864990,0.449829,0.089722,0.245011,-0.274838,-0.322775
-0.881104,0.433350,0.205078,-0.120375,-0.013848,-0.214118
-0.979370,0.336426,0.178589,-0.250337,0.116114,-0.106526
-1.071899,0.333008,0.083130,-0.238619,0.007457,-0.061785
-1.093872,0.262817,0.040039,-0.140615,-0.215184,-0.002131
-1.084106,0.206543,0.030762,0.133158,-0.418649,-0.039415
-1.066406,0.257446,0.081421,0.373908,-0.470847,-0.129962
-1.051147,0.271118,0.130371,0.576308,-0.321710,-0.224771
-1.068359,0.288940,0.088623,0.796818,-0.213053,-0.307862
-1.045532,0.313843,0.049683,0.811732,-0.158724,-0.401605
-0.998657,0.368286,0.024414,0.731837,-0.139550,-0.517719
-0.947632,0.432129,0.082764,0.497479,-0.034088,-0.605070
-0.964844,0.420044,0.114258,0.332363,0.088417,-0.629572
-1.047241,0.374023,0.095093,0.343015,0.140615,-0.659399
-1.122314,0.375488,0.086670,0.338754,0.149137,-0.726511
-1.138794,0.434204,0.097778,0.199205,0.139550,-0.769121
-1.079834,0.519165,0.133545,-0.175769,0.157659,-0.752077
-0.973511,0.511597,0.331421,-0.524110,0.322775,-0.455933
-0.956909,0.329590,0.280273,-0.378169,0.259925,-0.161920
-0.944214,0.193481,0.188232,0.021305,0.069242,0.074569
-0.923462,0.106323,0.103882,0.486826,-0.142745,0.242880
-0.945923,0.120728,0.069458,0.811732,-0.364321,0.290817
-0.918213,0.185059,0.070679,0.920389,-0.558199,0.324906
-0.860107,0.206665,0.115601,0.888431,-0.623180,0.349407
-0.819214,0.201538,0.156738,0.849016,-0.552872,0.358994
-0.779541,0.161011,0.148193,0.837298,-0.406931,0.318514
-0.749634,0.128418,0.136475,0.965130,-0.241815,0.205596
-0.714600,0.117676,0.129272,1.032242,-0.192813,0.090548
-0.689453,0.140137,0.190063,1.072722,-0.126767,-0.005326
-0.728271,0.143921,0.199707,1.141964,-0.123571,-0.106526
-0.772217,0.153198,0.155151,1.193097,-0.202400,-0.204531
-0.795288,0.175781,0.128052,1.233577,-0.299339,-0.317449
-0.815796,0.222900,0.133423,1.210141,-0.356864,-0.413323
-0.817383,0.291138,0.169434,1.059939,-0.304666,-0.461260
-0.825317,0.290649,0.192383,0.928911,-0.171508,-0.445281
-0.829224,0.273682,0.181885,0.879909,-0.036219,-0.400540
-0.822510,0.261353,0.165649,0.903345,0.091613,-0.321710
-0.794678,0.265015,0.160034,0.933172,0.140615,-0.288687
-0.805420,0.283081,0.155762,0.929976,0.180030,-0.248207
-0.840820,0.278442,0.147827,0.920389,0.202400,-0.240750
-0.897827,0.278564,0.139893,0.903345,0.219445,-0.265251
-1.004150,0.280396,0.133423,0.886300,0.227967,-0.323841
-1.130859,0.274048,0.108887,0.893757,0.205596,-0.370712
-1.229858,0.277466,0.070190,0.899084,0.158724,-0.409062
-1.332153,0.295410,0.059692,0.860734,0.140615,-0.483630
-1.447754,0.350952,0.078125,0.661529,0.184291,-0.589091
-1.529907,0.442871,0.100586,0.415453,0.230097,-0.577374
-1.446533,0.471191,0.096436,0.129962,0.237554,-0.498544
-1.268433,0.472412,0.116943,-0.141680,0.248207,-0.332363
-1.051270,0.435669,0.146240,-0.360060,0.278034,-0.096939
-0.896118,0.365234,0.153564,-0.493218,0.309992,0.155529
-0.860718,0.306030,0.128052,-0.560329,0.262055,0.297209
-0.871460,0.291138,0.079468,-0.627441,0.120375,0.366451
-0.895264,0.287109,0.029053,-0.765925,-0.089482,0.416519
-0.937378,0.255859,-0.004517,-0.917193,-0.334493,0.438889
-0.997803,0.211304,-0.059692,-0.988566,-0.668986,0.477239
-1.079834,0.115967,-0.047607,-0.838363,-0.771252,0.502805
-1.061646,0.082642,-0.059448,-0.539024,-0.765925,0.546481
-0.991821,0.066284,-0.079224,-0.188552,-0.674313,0.604005
-0.950684,0.070801,-0.090454,0.119310,-0.531567,0.648746
-0.953979,0.078857,-0.086792,0.378169,-0.377104,0.676443
-0.963501,0.098999,-0.075073,0.548611,-0.242880,0.677508
-0.955566,0.119141,-0.064697,0.608266,-0.159790,0.637028
-0.948364,0.121338,-0.062134,0.625310,-0.135289,0.576308
-0.934448,0.131104,-0.071045,0.569917,-0.192813,0.436759
-0.888062,0.144897,-0.080322,0.459129,-0.237554,0.312123
-0.909058,0.164795,-0.040161,0.299339,-0.222640,0.162986
-0.902222,0.185791,-0.015015,0.197074,-0.191748,0.206661
-0.873535,0.146484,-0.009888,0.109722,-0.186421,0.235424
-0.867676,0.098145,0.007935,0.134223,-0.180030,0.132093
-0.874512,0.121704,0.040405,0.196009,-0.085221,0.014914
-0.890259,0.161743,0.007813,0.138484,0.012783,0.005326
-0.913330,0.134277,-0.035278,0.003196,0.027697,-0.107592
-0.932739,0.129639,-0.044678,-0.067112,-0.020240,-0.191748
-0.951294,0.128052,-0.008179,-0.080960,-0.107592,-0.291883
-0.953735,0.092163,0.013428,-0.027697,-0.139550,-0.390952
-0.957520,0.061279,0.043945,0.087352,-0.116114,-0.533698
-0.992920,0.021118,0.089111,0.383495,-0.054329,-0.698814
-1.040161,0.049438,0.133301,0.693487,0.034088,-0.907606
-1.083252,0.107910,0.156616,0.932107,0.098004,-1.075917
-1.116211,0.167358,0.152344,1.053547,0.115049,-1.204815
-1.168213,0.244263,0.117432,1.003479,0.059655,-1.340103
-1.264038,0.297485,0.093140,0.872452,-0.027697,-1.461543
-1.384644,0.403687,0.145508,0.447411,-0.058590,-1.547830
-1.486206,0.440674,0.122559,0.283360,-0.185356,-1.391236
-1.337769,0.469116,0.070435,0.094809,-0.364321,-1.153682
-1.106812,0.459961,0.057861,-0.083091,-0.466586,-0.835168
-0.919678,0.396606,0.060059,-0.189617,-0.444215,-0.528371
-0.832153,0.323486,0.050659,-0.211988,-0.351537,-0.192813
-0.838379,0.243408,0.044312,-0.134223,-0.257794,0.082025
-0.888672,0.190796,0.037964,0.004261,-0.210922,0.319579
-0.939453,0.169556,0.062744,0.105461,-0.200270,0.469782
-0.968384,0.152588,0.087280,0.233293,-0.202400,0.560329
-0.955444,0.147095,0.091431,0.448477,-0.193878,0.591222
-0.858398,0.171997,0.092163,0.532632,-0.169377,0.542220
-0.801514,0.166870,0.086426,0.575243,-0.135289,0.483630
-0.764893,0.155151,0.066406,0.573112,-0.112918,0.404801
-0.751221,0.172485,0.066162,0.497479,-0.085221,0.330232
-0.778442,0.164551,0.091919,0.427171,-0.042611,0.327036
-0.802734,0.156860,0.096313,0.402670,-0.008522,0.343015
-0.789673,0.149170,0.097046,0.340885,0.028762,0.335558
-0.824463,0.124146,0.098267,0.265251,0.078830,0.246076
-0.874878,0.139282,0.130615,0.074569,0.177899,0.227967
-0.910522,0.113159,0.161133,-0.030893,0.259925,0.149137
-0.945068,0.118774,0.165527,-0.136354,0.309992,0.050067
-0.947876,0.108521,0.168457,-0.211988,0.317449,-0.024501
-0.934448,0.094116,0.192871,-0.263120,0.321710,-0.063916
-0.911499,0.056641,0.202148,-0.211988,0.304666,-0.044741
-0.888672,0.036255,0.190552,-0.092678,0.275904,-0.052198
-0.879272,0.047485,0.190430,0.039415,0.229032,-0.058590
-0.874878,0.054077,0.178467,0.175769,0.173638,-0.057524
-0.880859,0.080688,0.155762,0.248207,0.117179,-0.077764
-0.922852,0.069458,0.119995,0.385626,0.006392,-0.049002
-0.952637,0.018433,0.111694,0.534763,-0.030893,-0.067112
-1.024658,0.031128,0.099243,0.700944,-0.042611,-0.107592
-1.098389,0.039551,0.082397,0.863930,-0.068177,-0.128897
-1.131104,0.010254,0.043823,1.080179,-0.103331,-0.092678
-1.176880,-0.020874,0.013184,1.317733,-0.140615,-0.040480
-1.256104,-0.060913,-0.027222,1.633051,-0.172573,0.025566
-1.360352,-0.107544,-0.055786,1.956892,-0.182160,0.024501
-1.420654,-0.067993,-0.022583,2.118812,-0.127832,-0.025566
-1.390869,0.003784,0.019653,2.087919,-0.005326,-0.117179
-1.217896,0.119385,0.044312,1.856757,0.047937,-0.209857
-1.071655,0.210815,0.067871,1.557417,0.067112,-0.301470
-0.962280,0.309204,0.078735,1.177118,0.044741,-0.344081
-0.947632,0.358398,0.105713,0.720119,-0.024501,-0.341950
-0.966187,0.306763,0.119141,0.388822,-0.094809,-0.181095
-0.989014,0.235352,0.128296,0.254598,-0.157659,-0.076699
-1.048706,0.218384,0.122681,0.283360,-0.283360,-0.042611
-1.057129,0.225464,0.089600,0.302535,-0.443150,0.055394
-1.011719,0.218506,0.091187,0.224771,-0.530502,0.144876
-0.999146,0.141602,0.041016,0.154463,-0.572047,0.389887
-0.979980,0.073120,0.009399,0.136354,-0.574178,0.512392
-0.948853,0.045044,-0.010620,0.109722,-0.556068,0.581635
-0.941162,0.041748,-0.018677,0.075634,-0.503870,0.610397
-0.944946,0.051025,-0.019165,0.005326,-0.436759,0.592287
-0.942505,0.039551,-0.010010,-0.106526,-0.356864,0.548611
-0.972534,0.043091,0.007568,-0.221575,-0.300405,0.456999
-0.940796,0.052856,0.013306,-0.307862,-0.263120,0.355798
-0.899780,0.077393,0.019653,-0.386691,-0.230097,0.237554
-0.865234,0.069458,0.033936,-0.460194,-0.175769,0.098004
-0.855713,0.043335,0.048584,-0.422910,-0.151268,-0.014914
-0.880249,0.055420,0.060547,-0.384561,-0.135289,-0.142745
-0.940552,0.051025,0.095337,-0.352603,-0.094809,-0.264186
-1.030273,0.010132,0.113281,-0.197074,-0.075634,-0.332363
-1.047485,-0.004517,0.104736,0.047937,-0.104396,-0.404801
-1.044189,0.014771,0.098755,0.256729,-0.141680,-0.464455
-1.068970,0.025879,0.115356,0.404801,-0.155529,-0.508131
-1.113647,0.073975,0.162476,0.459129,-0.118244,-0.563525
-1.146973,0.104126,0.208618,0.444215,-0.057524,-0.576308
-1.133545,0.067383,0.216553,0.575243,-0.056459,-0.516653
-1.067261,0.000122,0.183472,0.813862,-0.115049,-0.523045
-1.140991,0.045166,0.157593,0.952347,-0.192813,-0.604005
-1.244019,0.098389,0.137085,0.982174,-0.315318,-0.623180
-1.281616,0.112183,0.109131,0.957673,-0.422910,-0.597614
-1.258423,0.109497,0.118896,0.913997,-0.430367,-0.583765
-1.194214,0.094849,0.162109,0.965130,-0.324906,-0.556068
-1.067261,0.107422,0.199463,1.076983,-0.166181,-0.497479
-0.913208,0.119385,0.215576,1.160073,-0.054329,-0.412258
-0.783081,0.131470,0.203003,1.215467,-0.041545,-0.288687
-0.710205,0.156250,0.188721,1.171791,-0.080960,-0.255664
-0.739868,0.152344,0.187134,1.134507,-0.154463,-0.233293
-0.770874,0.150146,0.149902,1.100419,-0.266316,-0.196009
-0.791748,0.149902,0.118042,1.047155,-0.370712,-0.165116
-0.823853,0.142944,0.110962,1.025850,-0.432498,-0.144876
-0.858887,0.136963,0.109009,1.047155,-0.399474,-0.131028
-0.915894,0.134033,0.116821,1.106810,-0.278034,-0.117179
-0.969482,0.140991,0.132324,1.146225,-0.127832,-0.101200
-0.966675,0.132080,0.138550,1.140899,-0.019175,0.020240
-0.964233,0.097290,0.213013,1.185640,-0.103331,0.165116
-0.903809,0.098389,0.291138,1.325189,-0.223706,0.276969
-0.824585,0.112061,0.360962,1.438108,-0.256729,0.317449
-0.764282,0.088379,0.411621,1.479653,-0.229032,0.301470
-0.742310,0.072021,0.427246,1.461543,-0.171508,0.284426
-0.721680,0.071899,0.402100,1.389105,-0.113983,0.256729
-0.717041,0.069214,0.371826,1.306015,-0.047937,0.197074
-0.738525,0.066040,0.344971,1.283644,0.031958,0.091613
-0.758545,0.089722,0.311035,1.270861,0.116114,-0.046872
-0.776245,0.107788,0.275879,1.196293,0.253533,-0.256729
-0.826782,0.107422,0.252197,1.140899,0.344081,-0.404801
-0.875122,0.095947,0.247437,1.136638,0.404801,-0.557134
-0.935425,0.102905,0.215576,1.164335,0.420780,-0.708401
-1.023560,0.105591,0.192749,1.266600,0.401605,-0.817058
-1.096069,0.159302,0.160767,1.334777,0.343015,-0.907606
-1.153931,0.216553,0.116699,1.303884,0.248207,-0.928911
-1.245239,0.238647,0.073608,1.198423,0.199205,-0.906540
-1.472168,0.268188,0.136841,0.961934,0.242880,-0.943825
-1.636230,0.358765,0.223267,0.720119,0.308927,-0.804275
-1.508301,0.394897,0.223267,0.744620,0.311057,-0.485761
-1.125610,0.387085,0.177002,0.737163,0.253533,-0.272708
-0.948730,0.372681,0.188477,0.625310,0.242880,-0.039415
-0.906494,0.336548,0.241577,0.501740,0.286556,0.256729
-0.945068,0.235962,0.313232,0.643420,0.287622,0.439954
-1.027222,0.188599,0.325806,1.025850,0.203466,0.552872
-1.083984,0.200317,0.264648,1.302819,-0.003196,0.625310
-1.060547,0.232056,0.167114,1.365670,-0.252468,0.732902
-1.058960,0.250366,0.084595,1.238903,-0.503870,0.853277
-1.106323,0.256226,0.026733,0.790427,-0.913997,1.013067
-1.201050,0.204712,-0.020264,0.499609,-1.160073,1.155812
-1.182495,0.152710,-0.022095,0.281230,-1.264469,1.275122
-1.160278,0.073975,0.023560,0.262055,-1.078048,1.334777
-1.140869,0.029785,0.028687,0.364321,-0.780839,1.342234
-1.056152,0.027100,0.025635,0.458064,-0.468717,1.336907
-0.975952,0.013306,0.025269,0.573112,-0.211988,1.287905
-0.919556,0.035156,0.036743,0.626376,-0.046872,1.186705
-0.870728,0.076538,0.071777,0.540089,0.035154,1.079113
-0.845825,0.091309,0.081909,0.393083,0.024501,0.936368
-0.828247,0.089233,0.064087,0.156594,-0.122505,0.858603
-0.786865,0.057129,0.055054,0.052198,-0.257794,0.770186
-0.757324,0.029663,0.048096,0.010653,-0.374973,0.666856
-0.740723,-0.004517,0.036499,0.030893,-0.449542,0.532632
-0.740356,-0.033936,0.023804,0.108657,-0.470847,0.341950
-0.753418,-0.042114,0.010986,0.224771,-0.445281,0.094809
-0.792725,-0.030273,0.033936,0.325971,-0.346211,-0.233293
-0.884399,-0.014526,0.085327,0.435693,-0.190682,-0.588026
-0.995728,-0.004395,0.092041,0.582700,-0.089482,-0.920389
-1.089478,0.006592,0.070068,0.842625,-0.162986,-1.366735
-1.187744,0.029785,0.024780,1.049286,-0.320645,-1.584049
-1.222290,0.063843,-0.008179,1.266600,-0.487891,-1.721468
-1.312988,0.084839,-0.050293,1.457282,-0.606136,-1.849300
-1.499023,0.138428,-0.033936,1.579788,-0.619984,-1.973936
-1.621582,0.212524,0.015625,1.628790,-0.515588,-1.966479
-1.576416,0.261108,0.073120,1.618137,-0.320645,-1.843974
-1.416260,0.318604,0.121094,1.502023,-0.074569,-1.668205
-1.267090,0.353882,0.162964,1.255947,0.105461,-1.394432
-1.099609,0.323364,0.171631,1.032242,0.148072,-0.860734
-0.937134,0.268677,0.093994,0.935303,0.020240,-0.665791
-0.876221,0.240967,0.061646,0.860734,-0.154463,-0.618919
-0.898682,0.219971,0.064209,0.817058,-0.355798,-0.544350
-0.910400,0.170288,0.073364,0.813862,-0.542220,-0.442085
-0.902710,0.108032,0.072632,0.901214,-0.646616,-0.373908
-0.879395,0.062134,0.052612,1.107875,-0.673247,-0.364321
-0.832642,0.043091,0.027710,1.378453,-0.624245,-0.405866
-0.818115,0.041870,0.018921,1.669270,-0.514523,-0.506001
-0.854858,0.066772,0.007568,1.957957,-0.402670,-0.607201
-0.845703,0.115479,-0.001343,2.227469,-0.287622,-0.641289
-0.828735,0.158691,0.003784,2.311625,-0.241815,-0.616788
-0.809937,0.189209,0.042603,2.333995,-0.143811,-0.548611
-0.814331,0.221924,0.009888,2.319082,-0.059655,-0.472978
-0.799805,0.264771,-0.015869,2.119877,0.037284,-0.409062
-0.805420,0.299072,0.036377,1.720403,0.218379,-0.336624
-0.863892,0.306519,0.093628,1.318798,0.390952,-0.297209
-0.925171,0.329346,0.138672,0.904410,0.520915,-0.303600
-0.946655,0.323730,0.208374,0.521980,0.596548,-0.270577
-0.917114,0.282227,0.281738,0.250337,0.629572,-0.180030
-0.869873,0.156860,0.337646,0.106526,0.640224,-0.150202
-0.866089,0.121460,0.337646,0.173638,0.629572,-0.148072
-0.898804,0.089355,0.353882,0.283360,0.599744,-0.202400
-0.929321,0.095337,0.362183,0.388822,0.541155,-0.279099
-0.975586,0.120850,0.376831,0.425041,0.491087,-0.358994
-1.040405,0.140259,0.393188,0.467651,0.387756,-0.414388
-1.052124,0.169922,0.353760,0.484696,0.279099,-0.445281
-1.053223,0.182739,0.304077,0.464455,0.178964,-0.427171
-1.077881,0.178345,0.266968,0.413323,0.067112,-0.374973
-1.104736,0.187988,0.240601,0.514523,-0.026632,-0.222640
-1.239136,0.222412,0.261719,0.657268,-0.077764,-0.144876
-1.298462,0.268433,0.269531,0.807471,-0.067112,-0.076699
-1.300415,0.331543,0.265137,0.817058,0.008522,-0.019175
-1.276123,0.389282,0.239380,0.615723,0.109722,0.076699
-1.271118,0.427246,0.221436,0.274838,0.158724,0.155529
-1.212524,0.439575,0.231934,-0.123571,0.166181,0.349407
-1.096191,0.340698,0.227417,-0.397344,0.107592,0.653007
-0.972900,0.257324,0.196533,-0.499609,0.019175,0.918258
-0.936035,0.144653,0.173218,-0.511327,-0.138484,1.079113
-0.956177,0.122559,0.105347,-0.327036,-0.369647,1.401889
-1.028320,0.049927,0.064331,-0.184291,-0.550742,1.495632
-1.080078,0.038452,0.060181,-0.025566,-0.622115,1.447695
-1.140747,0.040527,0.038086,0.100135,-0.500674,1.433846
-1.113281,0.018433,-0.011719,0.127832,-0.334493,1.441303
-1.083130,0.001587,-0.068115,0.063916,-0.207727,1.321994
-1.058716,0.015381,-0.102905,0.012783,-0.112918,1.205880
-1.092896,0.031250,-0.095581,-0.024501,-0.083091,1.095092
-1.140015,0.023315,-0.074829,-0.050067,-0.175769,0.956608
-1.098877,0.007690,-0.066895,-0.054329,-0.374973,0.884170
-0.987183,-0.020752,-0.075195,0.034088,-0.477239,0.851147
-0.922974,0.001343,-0.047363,0.104396,-0.550742,0.752077
-0.902588,0.041992,-0.000122,0.095874,-0.594418,0.613593
-0.901978,0.068726,0.023193,0.046872,-0.607201,0.502805
-0.889771,0.078125,0.035034,-0.015979,-0.537959,0.423975
-0.870361,0.067749,0.042358,-0.051133,-0.413323,0.349407
-0.859253,0.048462,0.051392,-0.050067,-0.267381,0.267381
-0.856812,0.022705,0.068726,-0.010653,-0.122505,0.176834
-0.845459,0.010620,0.077881,0.072438,0.254598,0.007457
-0.848877,0.003174,0.089600,0.196009,0.055394,-0.129962
-0.859253,0.012573,0.085571,0.275904,0.064981,-0.274838
-0.932495,0.044434,0.067871,0.297209,0.052198,-0.404801
-0.971436,0.067017,0.052612,0.278034,0.043676,-0.542220
-1.046387,0.030396,0.070312,0.198139,0.066046,-0.778709
-1.076538,0.041870,0.086304,0.209857,0.140615,-1.114267
-1.181641,0.068359,0.090698,0.271643,0.232228,-1.234642
-1.240723,0.086548,0.106445,0.308927,0.284426,-1.279383
-1.251709,0.105713,0.103271,0.358994,0.296144,-1.349691
-1.322266,0.124390,0.068481,0.376038,0.221575,-1.409345
-1.439697,0.133667,0.094360,0.425041,0.187487,-1.529720
-1.468384,0.156738,0.100830,0.597614,0.147007,-1.552091
-1.342651,0.201782,0.092773,0.715858,0.116114,-1.467935
-1.175049,0.225830,0.099854,0.781904,0.125701,-1.337973
-1.049561,0.245117,0.130859,0.818123,0.172573,-1.174987
-0.975830,0.211060,0.126709,0.908671,0.168312,-0.970456
-0.950073,0.172974,0.097778,1.018393,0.121440,-0.824515
-0.974365,0.153687,0.070068,1.135572,0.011718,-0.702010
-0.987549,0.143311,0.072876,1.245295,-0.121440,-0.577374
-0.973389,0.125610,0.105957,1.441303,-0.278034,-0.494283
-0.946289,0.101807,0.120239,1.612811,-0.318514,-0.427171
-0.884888,0.070190,0.097534,1.858887,-0.357929,-0.386691
-0.802979,0.084106,0.063965,2.068744,-0.381365,-0.376038
-0.745483,0.114380,0.035645,2.190185,-0.389887,-0.373908
-0.722778,0.163330,0.019043,2.167814,-0.373908,-0.405866
-0.719116,0.246460,0.034302,1.938782,-0.304666,-0.430367
-0.758301,0.310913,0.084961,1.529720,-0.184291,-0.467651
-0.787354,0.330688,0.102661,1.076983,-0.086286,-0.474043
-0.780518,0.298828,0.109619,0.536893,0.040480,-0.512392
-0.780151,0.249512,0.135864,0.329167,0.123571,-0.544350
-0.823608,0.250854,0.160156,0.160855,0.204531,-0.574178
-0.855835,0.266357,0.190063,0.025566,0.284426,-0.572047
-0.870117,0.276001,0.214966,-0.094809,0.367516,-0.550742
-0.878418,0.273560,0.221436,-0.174703,0.421845,-0.494283
-0.882935,0.269897,0.226685,-0.251403,0.461260,-0.436759
-0.925171,0.276611,0.235962,-0.344081,0.485761,-0.369647
-0.960083,0.294434,0.248047,-0.451672,0.496413,-0.290817
-1.029175,0.306641,0.255859,-0.589091,0.495348,-0.185356
-1.121338,0.298218,0.244263,-0.770186,0.421845,-0.067112
-1.204834,0.267456,0.224121,-0.800014,0.350472,0.057524
-1.280884,0.192505,0.174561,-0.694553,0.216249,0.321710
-1.307251,0.095459,0.127563,-0.518784,0.078830,0.519849
-1.332642,0.088501,0.124023,-0.349407,-0.011718,0.607201
-1.386230,0.132446,0.128662,-0.263120,-0.056459,0.676443
-1.419678,0.130615,0.118896,-0.252468,-0.082025,0.761664
-1.323975,0.113403,0.069824,-0.258859,-0.118244,0.876713
-1.196045,0.116699,0.028198,-0.322775,-0.132093,0.947020
-1.092651,0.148071,0.028320,-0.509197,-0.084156,1.053547
-0.946533,0.176270,0.035156,-0.688161,-0.015979,1.155812
-0.921021,0.126465,0.017090,-0.819189,0.018110,1.246360
-0.942505,0.128540,-0.012573,-0.936368,-0.017044,1.259143
-0.997070,0.122070,-0.038452,-1.068461,-0.107592,1.245295
-1.060547,0.092285,-0.061890,-1.181379,-0.233293,1.227185
-1.090576,0.068237,-0.081665,-1.255947,-0.346211,1.186705
-1.141968,0.030151,-0.090454,-1.252751,-0.444215,1.117463
-1.173584,-0.002075,-0.088989,-1.143029,-0.510262,1.021589
-1.160767,-0.029663,-0.093384,-0.919324,-0.550742,0.910801
-1.075928,-0.032715,-0.104736,-0.490022,-0.542220,0.850081
-1.044922,-0.014771,-0.108032,-0.210922,-0.518784,0.817058
-1.003296,0.015259,-0.099487,-0.014914,-0.472978,0.804275
-0.972168,0.042603,-0.070801,0.092678,-0.403735,0.793622
-0.959961,0.068970,-0.057129,0.149137,-0.348342,0.787231
-0.947876,0.087402,-0.035889,0.101200,-0.313188,0.748881
-0.977417,0.078735,-0.001953,0.047937,-0.303600,0.700944
-0.979248,0.073120,-0.019775,0.047937,-0.360060,0.645550
-0.954102,0.070679,-0.030151,0.027697,-0.409062,0.573112
-0.929810,0.062622,-0.012817,0.038350,-0.368582,0.484696
-0.908936,0.064941,0.012817,0.036219,-0.269512,0.434628
-0.935913,0.058350,0.026367,0.007457,-0.178964,0.399474
-0.964722,0.041016,0.039185,-0.028762,-0.124636,0.313188
-0.998535,0.026001,0.039795,-0.044741,-0.115049,0.185356
-1.044067,0.014038,0.043945,-0.039415,-0.123571,0.033023
-1.090698,0.008789,0.059814,-0.005326,-0.126767,-0.112918
-1.125244,0.020386,0.099854,0.008522,-0.085221,-0.239685
-1.159302,0.008911,0.134155,0.062851,-0.023436,-0.340885
-1.201050,-0.028076,0.108887,0.205596,-0.052198,-0.542220
-1.245605,-0.057983,0.088745,0.540089,-0.098004,-0.702010
-1.269409,-0.054321,0.104126,0.796818,-0.092678,-0.830907
-1.276245,-0.006958,0.113159,0.961934,-0.044741,-0.961934
-1.205688,0.056641,0.125122,1.015197,0.025566,-1.054612
-1.100952,0.108765,0.131592,0.938498,0.112918,-1.174987
-1.040894,0.178955,0.158813,0.731837,0.190682,-1.253817
-0.961182,0.199707,0.233154,0.478304,0.274838,-1.276187
-0.922363,0.170898,0.245728,0.386691,0.282295,-1.267665
-0.912964,0.129395,0.206909,0.422910,0.202400,-1.266600
-0.932861,0.106323,0.149414,0.645550,-0.087352,-1.214402
-0.967773,0.088623,0.063477,0.844755,-0.331297,-1.172857
-0.980957,0.107544,0.035645,1.041829,-0.537959,-1.112136
-1.005737,0.119263,0.025635,1.260208,-0.660464,-1.041829
-1.018066,0.117432,0.017212,1.520133,-0.691357,-0.950216
-0.994629,0.107178,-0.006592,1.816277,-0.651942,-0.838363
-0.951538,0.092651,-0.048950,2.125203,-0.584830,-0.730772
-0.921875,0.112549,-0.049194,2.342517,-0.461260,-0.646616
-0.908447,0.123779,-0.007446,2.472480,-0.300405,-0.565656
-0.868896,0.155151,-0.009644,2.534265,-0.131028,-0.492152
-0.817993,0.206299,-0.001587,2.335061,-0.064981,-0.476173
-0.796997,0.237915,0.037720,2.055961,-0.010653,-0.468717
-0.783569,0.215698,0.069824,1.793906,0.031958,-0.432498
-0.855469,0.199585,0.065186,1.624529,0.037284,-0.428236
-0.743164,0.204956,0.073853,1.458348,0.058590,-0.431432
-0.785889,0.204468,0.104248,1.319863,0.153398,-0.460194
-0.879639,0.185791,0.137573,1.249556,0.237554,-0.513458
-0.831421,0.177734,0.141113,1.235707,0.334493,-0.529437
-0.848267,0.198120,0.139771,1.250621,0.428236,-0.434628
-0.893311,0.194214,0.152832,1.215467,0.512392,-0.306796
-0.981445,0.176514,0.153320,1.171791,0.549677,-0.272708
-1.100586,0.140503,0.142090,1.161139,0.535828,-0.255664
-1.155151,0.154419,0.115967,1.154747,0.479369,-0.225836
-1.217407,0.126221,0.094238,1.154747,0.437824,-0.223706
-1.286377,0.098145,0.090820,1.194162,0.427171,-0.270577
-1.390625,0.132324,0.115723,1.213337,0.452738,-0.284426
-1.371460,0.188110,0.156372,1.208010,0.469782,-0.219445
-1.213135,0.173950,0.169067,1.203749,0.468717,-0.177899
-1.038574,0.151611,0.177612,1.231446,0.446346,-0.010653
-0.848145,0.149414,0.226929,1.297493,0.426106,0.162986
-0.841431,0.101440,0.241699,1.356082,0.363255,0.337689
-0.879028,0.071533,0.237549,1.356082,0.273773,0.450607
-0.964966,0.030884,0.218018,1.337973,0.107592,0.549677
-1.052124,-0.034424,0.174072,1.357147,-0.127832,0.665791
-1.143433,-0.115601,0.129395,1.457282,-0.401605,0.764860
-1.200928,-0.223267,0.085327,1.684184,-0.698814,0.892692
-1.218994,-0.288940,0.051392,1.986719,-0.931041,0.949151
-1.225464,-0.274292,0.068848,2.226404,-0.984305,0.922519
-1.247070,-0.260132,0.138672,2.362757,-0.798949,0.858603
-1.202515,-0.171875,0.143677,2.273275,-0.664725,0.712662
-1.180908,-0.095093,0.125488,1.963283,-0.606136,0.549677
-1.185791,0.037842,0.124146,1.377388,-0.689226,0.354733
-1.164063,0.135010,0.119995,0.656203,-0.859669,0.167247
-1.140991,0.062988,0.110107,0.236489,-1.012002,0.083091
-1.087769,-0.037109,0.093872,0.245011,-1.120659,0.064981
-1.008057,-0.106201,0.062378,0.580569,-1.164335,0.056459
-0.936523,-0.128296,0.022339,1.110006,-1.180313,0.013848
-0.880737,-0.083496,0.002686,1.887649,-1.067395,-0.133158
-0.886597,0.053589,0.014893,2.022938,-0.942759,-0.240750
-0.875610,0.119141,0.016113,2.047439,-0.803210,-0.347276
-0.856079,0.158081,-0.003418,1.918542,-0.697748,-0.470847
-0.872681,0.172119,-0.037231,1.712946,-0.674313,-0.609331
-0.901611,0.166748,-0.072266,1.510546,-0.704140,-0.751012
-0.930908,0.158569,-0.092773,1.372061,-0.719054,-0.890561
-0.969238,0.172974,-0.075317,1.282579,-0.650877,-1.006675
-0.999390,0.181885,-0.050903,1.259143,-0.528371,-1.082309
-1.005981,0.192261,-0.054321,1.265535,-0.390952,-1.130246
-1.029297,0.190674,-0.060913,1.333712,-0.238619,-1.156878
-1.067993,0.203979,-0.055786,1.383779,-0.175769,-1.151551
-1.095703,0.214233,-0.047485,1.426390,-0.138484,-1.122789
-1.138916,0.235596,-0.019653,1.457282,-0.102265,-1.080179
-1.173096,0.241699,-0.029297,1.565939,-0.094809,-1.004545
-1.268921,0.248169,-0.049316,1.731055,-0.107592,-0.957673
-1.298218,0.203979,-0.013306,2.183793,-0.061785,-0.833037
-1.200806,0.125366,0.073975,2.875150,0.139550,-0.623180
-1.019775,0.121338,0.118286,3.425892,0.366451,-0.343015
-0.798340,0.249146,0.183228,3.474894,0.592287,0.003196
-0.670410,0.416870,0.212280,2.753710,0.545416,0.125701
-0.775146,0.452881,0.165894,2.095376,0.422910,0.172573
-0.922119,0.383423,0.130249,1.560613,0.211988,0.233293
-1.042236,0.292725,0.107056,1.208010,-0.077764,0.211988
-1.085327,0.223999,0.083618,0.986435,-0.381365,0.187487
-1.055786,0.221924,0.043457,0.773382,-0.593353,0.115049
-1.009888,0.232666,0.103516,0.588026,-0.632767,0.055394
-0.944824,0.146362,0.150513,0.667921,-0.480434,0.121440
-0.860229,0.061890,0.121582,0.893757,-0.276969,0.148072
-0.807495,0.042603,0.088867,1.340103,-0.063916,0.129962
-0.792114,0.139282,0.099365,1.443434,0.029827,0.061785
-0.765869,0.216675,0.141968,1.275122,0.129962,-0.007457
-0.758911,0.281494,0.169678,0.915063,0.218379,-0.124636
-0.795776,0.294434,0.201904,0.501740,0.281230,-0.210922
-0.829712,0.266602,0.195557,0.144876,0.285491,-0.253533
-0.856201,0.196167,0.194092,-0.039415,0.272708,-0.281230
-0.891846,0.160400,0.207397,0.001065,0.241815,-0.283360
-0.906006,0.152588,0.208984,0.133158,0.199205,-0.262055
-0.885132,0.190063,0.202271,0.529437,0.216249,-0.191748
-0.891235,0.236450,0.221558,0.313188,0.259925,-0.150202
-0.905884,0.225464,0.252441,0.331297,0.311057,-0.096939
-0.927124,0.188965,0.242798,0.448477,0.327036,-0.045806
-0.957642,0.200684,0.228516,0.530502,0.304666,-0.045806
-0.960449,0.223389,0.222046,0.539024,0.259925,-0.021305
-0.920044,0.229492,0.235474,0.520915,0.250337,-0.023436
-0.947876,0.234253,0.270386,0.524110,0.274838,-0.012783
-0.970947,0.210205,0.269043,0.584830,0.275904,-0.023436
-0.970947,0.203979,0.227539,0.649812,0.229032,-0.047937
-0.964233,0.211670,0.178955,0.614658,0.132093,-0.066046
-1.007446,0.214355,0.169312,0.572047,0.091613,-0.101200
-1.062256,0.226807,0.154663,0.508131,0.058590,-0.148072
-1.079834,0.199829,0.109741,0.429302,0.047937,-0.180030
-1.100220,0.171265,0.081421,0.350472,0.060720,-0.202400
-1.142822,0.104004,0.093262,0.352603,0.129962,-0.188552
-1.226196,0.056885,0.042114,0.468717,0.171508,-0.178964
-1.333862,0.056030,-0.030029,0.539024,0.131028,-0.210922
-1.392090,0.057983,-0.051025,0.539024,0.077764,-0.238619
-1.424805,0.063965,-0.025635,0.455933,0.092678,-0.345146
-1.387451,0.168335,-0.022705,0.282295,0.115049,-0.454868
-1.255859,0.238403,-0.026733,-0.077764,0.147007,-0.513458
-1.064575,0.259399,-0.004639,-0.537959,0.210922,-0.471912
-0.872559,0.286133,0.035400,-1.034372,0.316384,-0.364321
-0.759644,0.202271,0.056519,-1.386975,0.407996,-0.201335
-0.778320,0.097778,0.022583,-1.466870,0.385626,-0.117179
-0.798096,0.061279,-0.001099,-1.383779,0.254598,-0.113983
-0.786377,0.056885,-0.039307,-1.257013,0.049002,-0.086286
-0.831421,0.042969,-0.055176,-1.131311,-0.143811,-0.056459
-0.916992,0.003662,-0.112915,-0.777643,-0.437824,0.023436
-0.958740,-0.033447,-0.159424,-0.481500,-0.574178,0.110788
-0.957031,-0.064453,-0.191040,-0.181095,-0.635963,0.169377
-1.026123,-0.053223,-0.186157,0.075634,-0.604005,0.157659
-1.120117,-0.006104,-0.173828,0.290817,-0.541155,0.099070
-1.175659,0.060791,-0.154907,0.397344,-0.434628,0.051133
-1.116333,0.091309,-0.135254,0.432498,-0.297209,0.047937
-1.097290,0.080688,-0.116699,0.417584,-0.174703,0.010653
-1.051514,0.151367,-0.091431,0.339819,-0.086286,0.107592
-0.979980,0.152344,-0.056274,0.139550,-0.026632,0.101200
-0.941040,0.179687,-0.019531,-0.024501,-0.005326,0.142745
-0.900757,0.173584,0.007690,-0.206661,0.014914,0.225836
-0.885376,0.135376,0.019775,-0.358994,0.014914,0.282295
-0.885010,0.103516,0.026367,-0.459129,-0.003196,0.300405
-0.878540,0.076904,0.031006,-0.499609,-0.033023,0.297209
-0.875610,0.059570,0.030884,-0.504936,-0.063916,0.255664
-0.889282,0.049561,0.034058,-0.487891,-0.084156,0.190682
-0.907959,0.057983,0.030518,-0.466586,-0.111853,0.160855
-0.904663,0.020874,0.025269,-0.411192,-0.140615,0.088417
-0.951172,0.007080,0.024658,-0.200270,-0.189617,0.007457
-1.043945,0.020508,0.020142,-0.015979,-0.234358,-0.074569
-1.106079,0.034058,0.003418,0.158724,-0.290817,-0.144876
-1.145874,0.035156,-0.024658,0.331297,-0.356864,-0.166181
-1.191772,0.016113,-0.043335,0.533698,-0.399474,-0.176834
-1.256836,0.013672,-0.045166,0.763795,-0.397344,-0.172573
-1.314575,0.008179,-0.051025,0.986435,-0.369647,-0.132093
-1.355835,-0.002686,-0.041016,1.149421,-0.325971,-0.070307
-1.311279,0.012085,-0.018311,1.254882,-0.256729,-0.018110
-1.271606,0.029175,0.004395,1.173922,-0.117179,-0.111853
-1.154541,0.119019,0.080444,0.894822,-0.004261,-0.134223
-1.014282,0.164185,0.160156,0.464455,0.110788,-0.184291
-0.877075,0.132080,0.219849,0.088417,0.178964,-0.158724
-0.749023,0.056885,0.205200,-0.066046,0.180030,-0.170442
-0.714966,0.000610,0.166504,0.000000,0.101200,-0.093743
-0.733032,-0.046753,0.147583,0.196009,-0.027697,-0.010653
-0.765259,-0.066772,0.146240,0.447411,-0.173638,0.061785
-0.858887,-0.079468,0.144409,0.710532,-0.299339,0.056459
-1.013184,-0.019897,0.133789,0.876713,-0.418649,-0.269512
-1.093018,0.018188,0.099609,0.948086,-0.560329,-0.005326
-1.009766,0.041504,0.068604,0.927846,-0.573112,-0.015979
-0.951904,0.068604,0.071289,0.847951,-0.497479,-0.044741
-0.912231,0.076538,0.095093,0.740359,-0.339819,-0.061785
-0.871826,0.084229,0.117554,0.617854,-0.154463,-0.062851
-0.834839,0.097290,0.139771,0.471912,0.014914,-0.062851
-0.817993,0.101196,0.156982,0.308927,0.124636,-0.061785
-0.809814,0.080566,0.174072,0.168312,0.171508,-0.069242
-0.807373,0.048706,0.187622,0.116114,0.175769,-0.069242
-0.815552,0.036377,0.192627,0.189617,0.109722,-0.076699
-0.793213,0.001343,0.169067,0.302535,0.052198,-0.092678
-0.813599,-0.000732,0.163208,0.430367,0.018110,-0.086286
-0.835815,0.014771,0.169067,0.543285,0.024501,-0.061785
-0.851929,0.047363,0.187622,0.575243,0.079895,-0.058590
-0.878662,0.058350,0.209351,0.552872,0.161920,-0.063916
-0.905151,0.063110,0.215210,0.511327,0.221575,-0.086286
-0.950195,0.064575,0.213501,0.474043,0.236489,-0.105461
-0.982910,0.071045,0.203857,0.442085,0.210922,-0.119310
-1.049316,0.071777,0.193237,0.447411,0.151268,-0.164051
-1.085815,0.063843,0.164429,0.589091,0.055394,-0.038350
-1.082764,0.005859,0.130005,0.809601,0.005326,-0.003196
-1.134888,-0.005371,0.082764,1.078048,-0.015979,0.018110
-1.316284,-0.035645,0.028076,1.336907,-0.028762,0.011718
-1.558350,-0.033936,0.033569,1.572331,-0.024501,-0.037284
-1.637207,0.017334,0.039551,1.739578,-0.034088,-0.034088
-1.420898,0.061890,0.041748,1.745969,0.019175,0.046872
-1.119507,0.077271,0.070312,1.617072,0.161920,0.118244
-0.858032,0.080933,0.110352,1.397627,0.363255,0.142745
-0.718750,0.133667,0.136963,0.817058,0.617854,0.021305
-0.793945,0.184692,0.174072,0.257794,0.643420,-0.080960
-0.850342,0.158325,0.148071,-0.254598,0.501740,-0.104396
-0.890747,0.118896,0.089111,-0.609331,0.235424,-0.109722
-0.979248,0.025757,0.040039,-0.733967,-0.078830,-0.088417
-1.088745,-0.034668,0.013062,-0.617854,-0.397344,-0.070307
-1.166016,-0.091675,-0.028442,-0.251403,-0.700944,0.013848
-1.145142,-0.125977,-0.072144,0.267381,-0.894822,0.142745
-1.084229,-0.166016,-0.093506,0.850081,-0.927846,0.295078
-1.052856,-0.174194,-0.092529,1.448760,-0.807471,0.478304
-1.010742,-0.134033,-0.091553,2.131595,-0.471912,0.586961
-1.018921,-0.094604,-0.072998,2.364888,-0.216249,0.627441
-1.104248,-0.034424,-0.042358,2.394716,-0.042611,0.599744
-1.146362,0.080811,-0.020752,2.153966,-0.020240,0.539024
-1.108521,0.118164,-0.002808,1.737447,-0.109722,0.508131
-0.995850,0.070190,0.020752,1.367800,-0.220510,0.467651
-0.884155,0.051514,0.038452,1.140899,-0.328102,0.334493
-0.794800,0.073242,0.039795,0.996023,-0.395213,0.190682
-0.741211,0.098633,0.028564,0.829841,-0.426106,0.054329
-0.776489,0.115845,0.020020,0.551807,-0.426106,-0.169377
-0.900635,0.113403,0.024658,0.404801,-0.398409,-0.331297
-1.024292,0.090332,0.029541,0.330232,-0.378169,-0.481500
-1.113403,0.054810,0.025391,0.393083,-0.400540,-0.613593
-1.160645,0.039551,0.016479,0.567786,-0.441020,-0.720119
-1.210938,0.027710,0.003784,0.847951,-0.512392,-0.784035
-1.209229,0.029419,-0.018066,1.182444,-0.597614,-0.779774
-1.205078,0.015625,-0.034302,1.506285,-0.659399,-0.715858
-1.215942,-0.057617,-0.055054,1.895106,-0.677508,-0.610397
-1.275391,-0.048340,-0.077026,2.250905,-0.633833,-0.641289
-1.364258,0.040039,-0.057129,2.493785,-0.502805,-0.710532
-1.317383,0.116455,-0.029175,2.348909,-0.374973,-0.775513
-1.214111,0.238770,0.003174,1.928129,-0.219445,-0.917193
-1.098267,0.347778,0.048828,1.216532,-0.084156,-1.008806
-0.916504,0.379639,0.096558,0.450607,-0.002131,-0.973652
-0.730469,0.303833,0.093872,-0.092678,0.022371,-0.775513
-0.641968,0.162476,0.059692,-0.286556,0.018110,-0.558199
-0.697754,0.029663,0.039429,-0.151268,-0.045806,-0.436759
-0.819336,-0.046021,0.045166,0.232228,-0.175769,-0.379234
-0.923340,-0.065674,0.058472,1.040764,-0.441020,-0.262055
-0.973145,-0.111206,0.035400,1.653291,-0.569917,-0.153398
-0.957031,-0.084351,-0.010742,2.240252,-0.637028,-0.113983
-0.944092,-0.013794,-0.046021,2.685533,-0.640224,-0.118244
-0.947876,0.057007,-0.043335,2.947588,-0.551807,-0.106526
-0.958496,0.090210,0.023437,3.076485,-0.349407,-0.071373
-0.944336,0.072876,0.070068,3.224557,-0.134223,0.029827
-0.882812,0.085937,0.026611,3.350258,-0.080960,0.095874
-0.782837,0.132690,0.022949,3.275690,-0.067112,0.132093
-0.719727,0.186401,0.087280,3.025352,-0.008522,0.093743
-0.723022,0.285767,0.215820,2.246644,0.198139,0.003196
-0.790161,0.281250,0.273315,1.591506,0.332363,-0.067112
-0.857178,0.218262,0.302612,1.057808,0.390952,-0.156594
-0.891357,0.180176,0.300781,0.697748,0.387756,-0.276969
-0.918213,0.147949,0.317993,0.496413,0.362190,-0.385626
-0.944214,0.116455,0.330322,0.445281,0.327036,-0.484696
-0.958984,0.097900,0.327271,0.475108,0.289752,-0.574178
-0.982300,0.094482,0.309204,0.564590,0.247141,-0.648746
-1.004395,0.105957,0.309082,0.727576,0.209857,-0.693487
-1.032227,0.141235,0.307983,0.986435,0.164051,-0.694553
-1.040527,0.227539,0.306519,1.026915,0.156594,-0.624245
-1.015015,0.252197,0.311035,1.016263,0.170442,-0.514523
-1.000122,0.283325,0.291748,0.977913,0.173638,-0.410127
-0.988037,0.306763,0.256226,0.915063,0.129962,-0.273773
-0.963623,0.293457,0.203247,0.862865,0.068177,-0.099070
-1.034180,0.258545,0.148437,0.833037,0.014914,0.049002
-1.168579,0.231567,0.140015,0.811732,-0.039415,0.150202
-1.282227,0.210937,0.137573,0.852212,-0.088417,0.245011
-1.328247,0.193970,0.122070,0.938498,-0.111853,0.334493
-1.316650,0.236816,0.096436,1.026915,-0.082025,0.361125
-1.205200,0.250732,0.090454,1.023720,-0.037284,0.381365
-1.056763,0.288208,0.098633,0.942759,0.045806,0.464455
-0.891602,0.304443,0.112793,0.754208,0.147007,0.551807
-0.784058,0.313110,0.138672,0.471912,0.238619,0.606136
-0.750244,0.319214,0.164429,0.136354,0.274838,0.642355
-0.742432,0.330933,0.170654,-0.267381,0.237554,0.650877
-0.771606,0.323730,0.143677,-0.677508,0.123571,0.666856
-0.860229,0.299805,0.095703,-1.067395,-0.050067,0.675378
-0.993286,0.254517,0.056274,-1.551026,-0.373908,0.658334
-1.172119,0.183350,-0.001831,-1.776862,-0.566721,0.622115
-1.251709,0.186768,-0.038086,-2.130530,-0.649812,0.568851
-1.342285,0.295654,-0.053223,-3.057310,-0.719054,0.396279
-1.405151,0.126221,-0.040894,-3.253319,-0.817058,0.399474
-1.338135,-0.016602,0.015137,-2.898586,-0.670052,0.291883
-1.210327,-0.123291,0.073975,-2.037852,-0.422910,0.262055
-1.100342,-0.157471,0.095337,-0.933172,-0.263120,0.274838
-1.018311,-0.121094,0.072632,-0.063916,-0.236489,0.383495
-0.981567,-0.069946,0.038208,0.399474,-0.316384,0.610397
-0.966797,-0.033081,0.033081,0.889496,-0.561395,0.771252
-0.877319,-0.003906,0.049927,1.074852,-0.641289,0.845820
-0.816162,-0.024902,0.068115,1.320928,-0.618919,0.876713
-0.763916,-0.054443,0.070190,1.657552,-0.494283,0.857538
-0.737793,-0.042114,0.062134,1.873801,-0.315318,0.778709
-0.737915,-0.014038,0.060181,1.920673,-0.145941,0.676443
-0.748047,0.006958,0.062012,1.817342,-0.011718,0.506001
-0.776978,0.038330,0.066406,1.584049,0.088417,0.290817
-0.813232,0.050171,0.065186,1.287905,0.152333,0.012783
-0.861694,0.061768,0.066040,0.827711,0.189617,-0.516653
-0.983398,0.066528,0.059448,0.540089,0.175769,-0.849016
-1.065308,0.048584,0.056030,0.330232,0.154463,-1.133442
-1.143188,0.008667,0.057251,0.363255,0.139550,-1.421063
-1.236938,0.020020,0.063721,0.628506,0.160855,-1.636247
-1.308472,0.053345,0.067139,0.957673,0.225836,-1.752361
-1.436646,0.108032,0.101440,1.235707,0.292948,-1.819472
-1.538574,0.171631,0.132568,1.433846,0.338754,-1.770470
-1.574341,0.263428,0.139282,1.519068,0.300405,-1.606419
-1.478027,0.308838,0.144531,1.460478,0.206661,-1.210141
-1.166016,0.381836,0.194580,1.317733,0.061785,-0.899084
-1.002930,0.349731,0.189209,1.326255,-0.098004,-0.630637
-0.877319,0.300659,0.123779,1.383779,-0.314253,-0.446346
-0.796875,0.270142,0.050171,1.401889,-0.513458,-0.376038
-0.828369,0.252563,0.033813,1.407215,-0.678574,-0.262055
-0.876953,0.220825,0.041992,1.429585,-0.834102,-0.139550
-0.889648,0.178101,0.035767,1.516937,-0.904410,-0.043676
-0.892578,0.151611,0.022461,1.654356,-0.871387,-0.012783
-0.883179,0.151367,0.005127,1.805624,-0.777643,-0.020240
-0.858276,0.166504,-0.009155,1.932390,-0.565656,-0.045806
-0.817871,0.181030,-0.022461,1.919607,-0.413323,-0.083091
-0.800659,0.202393,-0.035400,1.827995,-0.285491,-0.123571
-0.785645,0.233765,-0.039429,1.655422,-0.177899,-0.154463
-0.766235,0.261353,-0.001465,1.401889,-0.047937,-0.166181
-0.758179,0.262817,0.043701,1.192031,0.111853,-0.133158
-0.768921,0.274780,0.076660,0.912932,0.235424,-0.108657
-0.787109,0.257690,0.089233,0.614658,0.314253,-0.080960
-0.804932,0.254028,0.143066,0.327036,0.418649,-0.091613
-0.852661,0.250122,0.218140,0.059655,0.622115,-0.152333
-0.922241,0.246582,0.320435,-0.374973,0.766991,-0.207727
-0.936035,0.223389,0.363403,-0.647681,0.870321,-0.254598
-0.956665,0.210815,0.376343,-0.891627,0.885235,-0.294013
-0.962280,0.199463,0.371948,-1.098288,0.836233,-0.303600
-0.964111,0.165771,0.357788,-1.232512,0.747816,-0.289752
-0.993042,0.117188,0.357544,-1.274057,0.663660,-0.288687
-1.053467,0.088989,0.356812,-1.208010,0.526241,-0.317449
-1.081055,0.085937,0.334473,-1.058873,0.322775,-0.320645
-1.077393,0.088013,0.286255,-0.857538,0.104396,-0.281230
-1.066040,0.098511,0.234985,-0.555003,-0.171508,-0.225836
-1.124878,0.136841,0.156860,-0.381365,-0.327036,-0.167247
-1.230103,0.157471,0.124146,-0.246076,-0.450607,-0.094809
-1.328003,0.168579,0.100830,-0.131028,-0.503870,0.033023
-1.401855,0.181030,0.095703,-0.028762,-0.472978,0.135289
-1.408081,0.212280,0.101685,0.053263,-0.388822,0.269512
-1.322632,0.240967,0.088135,0.112918,-0.275904,0.413323
-1.210205,0.217896,0.066284,0.074569,-0.169377,0.560329
-1.094116,0.214233,0.070190,0.005326,-0.088417,0.712662
-0.972168,0.183838,0.092773,-0.074569,-0.078830,0.926780
-0.875000,0.152344,0.102295,-0.202400,-0.109722,1.036503
-0.844849,0.129761,0.104370,-0.315318,-0.168312,1.064200
-0.877930,0.121460,0.104614,-0.453803,-0.255664,1.020524
-0.948730,0.115845,0.098633,-0.641289,-0.358994,0.948086
-1.048340,0.077881,0.091064,-0.812797,-0.479369,0.817058
-1.109619,0.054932,0.065552,-0.895888,-0.626376,0.687096
-1.126831,0.026489,0.024170,-0.867126,-0.770186,0.576308
-1.116821,0.007813,-0.016968,-0.765925,-0.886300,0.484696
-1.090332,-0.000488,-0.048584,-0.556068,-0.955543,0.438889
-1.091797,0.011475,-0.068237,-0.133158,-0.919324,0.412258
-1.106934,0.031006,-0.066162,0.159790,-0.814928,0.441020
-1.094482,0.038696,-0.057495,0.463390,-0.670052,0.536893
-1.037842,0.047729,-0.055786,0.723315,-0.509197,0.672182
-0.961548,0.057617,-0.059570,0.916128,-0.367516,0.781904
-0.903809,0.072266,-0.065918,1.034372,-0.271643,0.852212
-0.862793,0.093628,-0.062866,1.023720,-0.206661,0.878844
-0.840820,0.107178,-0.051636,0.890561,-0.151268,0.875648
-0.825806,0.111084,-0.041016,0.665791,-0.092678,0.841559
-0.807373,0.099854,-0.025635,0.387756,0.005326,0.724380
-0.790161,0.052734,-0.008179,0.018110,0.075634,0.581635
-0.800171,0.004395,0.008423,-0.133158,0.151268,0.366451
-0.817749,-0.033081,0.027100,-0.168312,0.235424,0.090548
-0.842651,-0.046387,0.041382,-0.123571,0.320645,-0.237554
-0.887573,-0.041138,0.065186,-0.069242,0.409062,-0.595483
-0.963013,-0.030029,0.111450,-0.035154,0.490022,-0.938498
-1.061890,-0.064453,0.137939,0.137419,0.499609,-1.216532
-1.145508,-0.139648,0.151978,0.634898,0.441020,-1.427455
-1.206665,-0.147705,0.114746,1.171791,0.319579,-1.628790
-1.316772,-0.139893,0.055298,1.910020,0.037284,-1.895106
-1.535034,0.044312,0.062988,2.211490,-0.109722,-1.981393
-1.584839,0.166504,0.114990,2.229599,-0.107592,-2.094311
-1.642090,0.280518,0.197266,1.992045,0.031958,-2.075136
-1.561523,0.331909,0.258423,1.670335,0.208792,-2.124138
-1.491943,0.411133,0.272705,1.320928,0.255664,-1.964348
-1.344482,0.434570,0.246704,1.051416,0.074569,-1.596832
-1.095093,0.383911,0.186768,0.882039,-0.238619,-1.249556
-0.840088,0.284180,0.113647,0.827711,-0.483630,-0.975783
-0.701416,0.184937,0.058838,0.911867,-0.635963,-0.741424
-0.779297,0.137085,0.052002,1.221859,-0.719054,-0.545416
-0.840698,0.139771,0.048340,1.493501,-0.840494,-0.314253
-0.865356,0.112305,0.022339,1.788580,-0.940629,-0.122505
-0.881836,0.118530,-0.007935,2.073005,-0.969391,-0.047937
-0.883545,0.154175,-0.037109,2.283928,-0.935303,0.022371
-0.868530,0.175781,-0.058838,2.375541,-0.834102,0.052198
-0.851440,0.178589,-0.072632,2.377671,-0.683900,0.069242
-0.825928,0.171875,-0.072754,2.354235,-0.506001,0.085221
-0.785278,0.156006,-0.056519,2.368084,-0.304666,0.128897
-0.740723,0.129517,-0.032349,2.526808,-0.020240,0.199205
-0.675903,0.162476,-0.012451,2.540657,0.143811,0.218379
-0.662720,0.188232,0.059692,2.446913,0.320645,0.232228
-0.677856,0.221680,0.112427,2.250905,0.482565,0.221575
-0.697754,0.262085,0.161377,1.852496,0.630637,0.153398
-0.739746,0.294800,0.246948,1.286840,0.795753,0.077764
-0.795532,0.297607,0.357910,0.640224,0.969391,-0.038350
-0.871948,0.252319,0.475220,0.076699,1.135572,-0.147007
-0.969482,0.171875,0.546875,-0.238619,1.194162,-0.259925
-1.063721,0.094971,0.573853,-0.030893,1.045025,-0.340885
-1.159424,-0.026978,0.521973,0.017044,0.808536,-0.357929
-1.162720,-0.061646,0.400269,0.404801,0.496413,-0.376038
-1.159546,-0.063599,0.257568,0.796818,0.226901,-0.399474
-1.303833,-0.039307,0.183716,1.139833,0.028762,-0.507066
-1.566284,0.091797,0.272949,1.323059,-0.297209,-0.643420
-1.565308,0.243164,0.290527,1.446630,-0.641289,-0.494283
-1.278564,0.313354,0.203857,1.493501,-0.711597,-0.311057
-1.106689,0.369629,0.136475,1.340103,-0.568851,-0.220510
-1.050049,0.377319,0.155640,1.021589,-0.296144,-0.050067
-0.979858,0.318359,0.226685,0.637028,0.155529,0.322775
-0.903320,0.237793,0.271118,0.562460,0.317449,0.479369
-0.911255,0.246338,0.250732,0.464455,0.276969,0.535828
-0.948975,0.243286,0.221558,0.339819,0.079895,0.551807
-0.989380,0.208984,0.202271,0.241815,-0.160855,0.605070
-1.100342,0.159424,0.158203,0.204531,-0.504936,0.566721
-1.192505,0.177124,0.080444,0.211988,-0.882039,0.896953
-1.243408,0.060913,0.034424,0.269512,-1.267665,1.024785
-1.315063,-0.003662,0.015869,0.514523,-1.578723,0.951282
-1.343994,0.000488,0.007446,0.888431,-1.691641,1.218663
-1.195923,-0.025391,0.007690,1.461543,-1.529720,1.368865
-1.093994,-0.021606,0.047729,1.788580,-1.195227,1.446630
-1.016602,-0.008911,0.073364,2.036787,-0.833037,1.458348
-0.958008,0.013184,0.077881,2.110290,-0.564590,1.416802
-0.908936,0.032349,0.070801,2.003763,-0.454868,1.316667
-0.862305,0.049561,0.073853,1.759818,-0.459129,1.163269
-0.823242,0.061523,0.082886,1.434912,-0.516653,0.956608
-0.793823,0.076416,0.117432,1.049286,-0.565656,0.707336
-0.771729,0.064697,0.171143,0.660464,-0.582700,0.437824
-0.770020,0.019043,0.185181,0.316384,-0.647681,-0.005326
-0.766235,-0.041748,0.175293,0.224771,-0.717989,-0.312123
-0.769043,-0.087036,0.177246,0.299339,-0.784035,-0.645550
-0.803101,-0.102905,0.213135,0.567786,-0.778709,-0.978978
-0.882080,-0.060913,0.243408,1.048221,-0.703075,-1.300688
-1.007568,0.023437,0.241333,1.536112,-0.628506,-1.536112
-1.131836,0.100342,0.211548,1.839713,-0.610397,-1.689510
-1.250610,0.187256,0.156128,1.936652,-0.717989,-1.793906
-1.310547,0.255005,0.116577,1.910020,-0.893757,-1.834386
-1.301025,0.298218,0.099487,1.853561,-1.134507,-1.823733
-1.320190,0.274170,0.012939,1.915346,-1.275122,-1.799232
-1.411621,0.258301,-0.046021,2.133726,-1.350756,-1.812016
-1.451294,0.314575,-0.076782,2.410694,-1.242099,-1.814146
-1.384766,0.422119,-0.109497,2.479937,-0.951282,-1.775797
-1.268677,0.518555,-0.132080,2.288189,-0.607201,-1.673531
-1.156006,0.592651,-0.135986,1.949435,-0.336624,-1.528655
-0.985352,0.636719,-0.128052,1.562744,-0.196009,-1.319863
-0.801880,0.653320,-0.089844,1.198423,-0.147007,-1.047155
-0.661255,0.599854,-0.056030,0.922519,-0.122505,-0.688161
-0.598267,0.481323,-0.071289,0.862865,-0.058590,-0.206661
-0.698242,0.395264,-0.052368,0.901214,-0.027697,-0.043676
-0.760986,0.381714,0.004883,0.843690,-0.070307,0.058590
-0.792847,0.344238,0.067505,0.766991,-0.138484,0.093743
-0.839600,0.301147,0.099854,0.747816,-0.197074,0.087352
-0.894897,0.270996,0.102783,0.778709,-0.241815,0.019175
-0.902588,0.262573,0.109619,0.822384,-0.250337,-0.007457
-0.874878,0.244019,0.123657,0.890561,-0.200270,0.022371
-0.848145,0.234131,0.142700,0.951282,-0.099070,0.040480
-0.828857,0.239136,0.181274,0.977913,0.113983,0.077764
-0.799072,0.260010,0.261597,0.822384,0.287622,0.122505
-0.801392,0.260376,0.304199,0.625310,0.413323,0.128897
-0.801025,0.269897,0.336304,0.323841,0.495348,0.121440
-0.821655,0.257813,0.373413,-0.047937,0.541155,0.110788
-0.848267,0.235962,0.389648,-0.411192,0.548611,0.083091
-0.835083,0.213989,0.411499,-0.740359,0.561395,0.052198
-0.831909,0.163452,0.438110,-0.955543,0.590157,0.008522
-0.845581,0.131226,0.453247,-1.038633,0.629572,-0.062851
-0.886353,0.087158,0.488403,-0.991762,0.672182,-0.015979
-0.926025,0.017944,0.415649,-0.508131,0.551807,-0.017044
-0.949585,0.014893,0.354370,-0.125701,0.413323,-0.018110
-0.961426,0.048462,0.315063,0.173638,0.273773,-0.055394
-0.976807,0.096191,0.272095,0.409062,0.144876,-0.083091
-0.988892,0.148804,0.219727,0.545416,0.051133,-0.075634
-0.987061,0.173340,0.168579,0.607201,0.007457,-0.047937
-1.000366,0.177979,0.125244,0.659399,0.028762,-0.023436
-1.098389,0.170898,0.118652,0.664725,0.131028,-0.039415
-1.212158,0.181641,0.179443,0.664725,0.287622,-0.068177
-1.234863,0.219482,0.223267,0.668986,0.500674,-0.075634
-1.170898,0.247192,0.218628,0.654073,0.530502,-0.056459
-1.045166,0.276123,0.210083,0.608266,0.434628,0.020240
-0.895874,0.258911,0.168945,0.545416,0.269512,0.156594
-0.830933,0.203613,0.116089,0.486826,0.134223,0.279099
-0.880615,0.173950,0.104492,0.432498,-0.004261,0.295078
-0.979614,0.191528,0.105347,0.387756,-0.190682,0.280165
-1.060669,0.210327,0.082153,0.292948,-0.394148,0.258859
-1.102539,0.203735,0.045288,0.193878,-0.552872,0.248207
-1.102295,0.187378,0.011230,0.135289,-0.628506,0.240750
-1.090332,0.166138,-0.018555,0.216249,-0.602940,0.230097
-1.045288,0.143921,-0.032471,0.358994,-0.511327,0.249272
-1.014282,0.118286,-0.036011,0.563525,-0.389887,0.292948
-0.961182,0.095337,-0.044434,0.823450,-0.275904,0.372843
-0.899902,0.078003,-0.048340,1.090831,-0.170442,0.463390
-0.879028,0.057129,-0.046387,1.348625,-0.093743,0.512392
-0.930542,0.056030,-0.043945,1.568070,-0.045806,0.453803
-1.007690,0.089233,-0.023682,1.702293,-0.019175,0.306796
-1.048340,0.138672,-0.010132,1.753426,-0.006392,0.133158
-1.046509,0.200073,-0.019165,1.561678,-0.037284,-0.129962
-0.997559,0.270752,-0.054199,1.263404,-0.093743,-0.257794
-0.969971,0.283325,-0.056641,0.940629,-0.136354,-0.380300
-0.939087,0.282959,-0.031616,0.665791,-0.122505,-0.448477
-0.908447,0.258667,-0.015137,0.502805,-0.060720,-0.471912
-0.910034,0.230957,-0.004395,0.423975,0.005326,-0.482565
-0.916626,0.204712,0.006592,0.452738,0.043676,-0.480434
-0.934448,0.186157,0.023804,0.552872,0.057524,-0.492152
-0.957031,0.188232,0.040283,0.675378,0.030893,-0.476173
-0.916016,0.187622,0.040771,0.770186,0.012783,-0.520915
-0.995850,0.194092,0.025269,0.864995,-0.090548,-0.645550
-0.979736,0.222168,0.013916,0.845820,-0.135289,-0.649812
-1.022705,0.208618,0.007324,0.843690,-0.143811,-0.747816
-1.097778,0.220703,0.017700,0.838363,-0.107592,-0.861799
-1.179321,0.231445,0.041992,0.806406,-0.047937,-0.951282
-1.239136,0.242920,0.064087,0.792557,0.003196,-1.009871
-1.292725,0.237671,0.052490,0.805340,-0.014914,-1.030111
-1.335205,0.221558,-0.003906,0.874582,-0.127832,-1.041829
-1.389648,0.246582,-0.012329,0.876713,-0.241815,-1.083374
-1.414185,0.257813,0.022705,0.965130,-0.257794,-0.989631
-1.365845,0.265991,-0.005005,1.048221,-0.278034,-0.860734
-1.140015,0.317017,-0.026733,0.965130,-0.313188,-0.664725
-0.865967,0.290527,-0.010742,0.787231,-0.288687,-0.383495
-0.677246,0.214600,0.000000,0.646616,-0.193878,-0.103331
-0.704346,0.171387,0.031006,0.535828,-0.063916,0.075634
-0.825562,0.101318,0.060669,0.481500,0.020240,0.230097
-0.906738,0.083618,0.099976,0.436759,0.052198,0.294013
-0.957397,0.082397,0.117798,0.384561,0.010653,0.311057
-0.971069,0.083374,0.112427,0.336624,-0.079895,0.007457
-0.974976,0.081665,0.096558,0.340885,-0.267381,0.246076
-0.941406,0.050171,0.083374,0.431432,-0.397344,0.262055
-0.882812,0.040283,0.074951,0.600809,-0.478304,0.286556
-0.853149,0.089844,0.070801,0.744620,-0.495348,0.305731
-0.857910,0.131226,0.058228,0.793622,-0.464455,0.338754
-0.878784,0.156860,0.062744,0.721184,-0.389887,0.380300
-0.907593,0.147827,0.069092,0.576308,-0.303600,0.419714
-0.921997,0.138672,0.082031,0.405866,-0.218379,0.420780
-0.911255,0.142090,0.100464,0.219445,-0.134223,0.412258
-0.896484,0.138184,0.121948,-0.054329,-0.003196,0.397344
-0.900269,0.075439,0.142090,-0.175769,0.059655,0.402670
-0.904297,0.034180,0.148560,-0.240750,0.099070,0.381365
-0.913452,0.017090,0.152710,-0.324906,0.115049,0.351537
-0.890991,0.019287,0.153687,-0.442085,0.128897,0.302535
-0.879761,0.018921,0.150269,-0.606136,0.145941,0.241815
-0.828979,0.012207,0.118774,-0.873517,0.156594,0.203466
-0.770020,0.022339,0.088135,-1.301754,0.165116,0.102265
-0.767090,-0.051025,0.078003,-1.513741,0.193878,0.037284
-0.821899,-0.113770,0.109985,-1.505219,0.302535,-0.072438
-0.869629,-0.157471,0.101196,-1.080179,0.397344,-0.208792
-0.929199,-0.120850,0.071777,-0.727576,0.370712,-0.296144
-1.044067,-0.119507,0.065674,-0.373908,0.295078,-0.344081
-1.159180,-0.090942,0.079468,0.042611,0.248207,-0.373908
-1.279663,-0.045044,0.045776,0.462325,0.182160,-0.353668
-1.392090,-0.053589,-0.034790,0.817058,0.074569,-0.298274
-1.516968,-0.003784,-0.045166,1.013067,0.046872,-0.262055
-1.597656,0.163940,0.011719,0.674313,0.133158,-0.250337
-1.567749,0.260620,0.041870,-0.153398,0.119310,-0.122505
-1.358643,0.199829,0.105103,-0.804275,0.012783,0.155529
-0.991211,-0.001587,0.218384,-0.665791,0.074569,0.230097
-0.829590,-0.087524,0.312622,-0.199205,0.218379,0.272708
-0.775513,-0.102783,0.347778,0.321710,0.346211,0.319579
-0.805054,-0.069946,0.333862,0.688161,0.355798,0.354733
-0.908203,-0.060303,0.279053,1.004545,0.148072,0.339819
-0.974854,-0.013184,0.208618,1.235707,-0.189617,0.255664
-0.997925,0.051025,0.116333,1.307080,-0.591222,0.232228
-1.030762,0.070312,0.031860,1.252751,-0.955543,0.255664
-1.082520,0.074585,-0.050171,1.182444,-1.239968,0.340885
-1.135742,0.007080,-0.145142,1.268731,-1.503089,0.541155
-1.130493,-0.109131,-0.178711,1.570200,-1.509480,0.629572
-1.105103,-0.098511,-0.187744,1.925999,-1.350756,0.664725
-1.074219,-0.059570,-0.176025,2.139052,-1.048221,0.657268
-1.041870,-0.002686,-0.146484,2.155031,-0.689226,0.599744
-0.985718,0.006470,-0.120850,2.027199,-0.356864,0.526241
-0.946777,0.060547,-0.080811,1.774731,-0.098004,0.386691
-0.933350,0.119019,-0.055054,1.396562,0.019175,0.233293
-0.914917,0.140503,-0.037109,0.949151,0.019175,0.094809
-0.878906,0.120850,-0.015503,0.372843,-0.040480,-0.078830
-0.901367,0.116577,0.043091,0.069242,-0.043676,-0.173638
-0.920776,0.096802,0.069580,-0.134223,-0.056459,-0.226901
-0.894043,0.073975,0.069092,-0.222640,-0.080960,-0.230097
-0.868408,0.021362,0.059814,-0.174703,-0.121440,-0.237554
-0.900635,-0.010010,0.052612,0.022371,-0.188552,-0.190682
-0.893555,-0.061035,0.050049,0.303600,-0.241815,-0.340885
-0.980835,-0.024658,0.052368,0.607201,-0.289752,-0.390952
-1.044800,-0.016357,0.057007,0.882039,-0.316384,-0.527306
-1.100220,0.015991,0.046387,1.117463,-0.338754,-0.581635
-1.110840,0.016602,0.016724,1.419998,-0.417584,-0.655138
-1.062378,0.030029,-0.004761,1.622398,-0.449542,-0.729706
-1.130127,0.024414,-0.050537,1.815211,-0.483630,-0.853277
-1.290039,0.040649,-0.068237,1.982458,-0.507066,-1.043960
-1.398926,0.100342,-0.062256,2.085789,-0.500674,-1.178183
-1.375000,0.157593,-0.054321,2.090050,-0.448477,-1.258078
-1.254150,0.227295,-0.038818,1.993111,-0.355798,-1.303884
-1.078857,0.322876,0.005859,1.761948,-0.180030,-1.262339
-0.910522,0.429443,0.039673,1.171791,0.042611,-1.139833
-0.792603,0.416748,0.058350,0.298274,0.328102,-0.856473
-0.726440,0.273315,0.081177,0.023436,0.422910,-0.684965
-0.739502,0.162109,0.099854,0.046872,0.420780,-0.573112
-0.786865,0.091187,0.117676,0.256729,0.365386,-0.510262
-0.879517,0.062500,0.146729,0.543285,0.265251,-0.472978
-0.972412,0.050293,0.173584,0.878844,0.135289,-0.401605
-1.058350,0.037720,0.162354,1.274057,-0.031958,-0.314253
-1.109863,0.048218,0.139038,1.652226,-0.208792,-0.191748
-1.119873,0.036377,0.161621,1.966479,-0.315318,-0.003196
-1.121948,-0.024292,0.149170,2.412825,-0.401605,0.319579
-1.071411,-0.029785,0.104736,3.022156,-0.445281,0.492152
-0.939209,0.051147,0.155640,3.145727,-0.339819,0.615723
-0.881226,0.118164,0.232422,2.974220,-0.138484,0.648746
-0.868530,0.175659,0.286865,2.491655,0.046872,0.609331
-0.883545,0.205444,0.307129,1.734251,0.103331,0.519849
-0.887817,0.139038,0.310791,0.974717,0.015979,0.413323
-0.868652,0.065796,0.312622,0.510262,-0.090548,0.308927
-0.837402,0.009155,0.329956,0.295078,-0.165116,0.156594
-0.814697,-0.037842,0.332397,0.250337,-0.196009,-0.008522
-0.802246,-0.076172,0.323120,0.565656,-0.135289,-0.197074
-0.807617,-0.078979,0.286377,0.927846,-0.072438,-0.299339
-0.826172,-0.009399,0.261597,1.198423,0.025566,-0.381365
-0.861572,0.071167,0.256470,1.329451,0.133158,-0.421845
-0.911621,0.123413,0.246338,1.263404,0.169377,-0.462325
-0.941528,0.150635,0.235962,1.091897,0.176834,-0.494283
-0.982178,0.165039,0.228638,0.899084,0.169377,-0.521980
-1.040894,0.150757,0.218872,0.730772,0.141680,-0.523045
-1.066895,0.124634,0.204834,0.674313,0.113983,-0.494283
-1.086548,0.107788,0.174072,0.737163,0.096939,-0.427171
-1.156738,0.094482,0.138062,0.907606,0.100135,-0.400540
-1.285156,0.118530,0.167480,0.993892,0.152333,-0.399474
-1.286987,0.162598,0.187256,1.080179,0.226901,-0.390952
-1.254272,0.224365,0.165161,1.108941,0.262055,-0.343015
-1.207397,0.286621,0.142700,1.020524,0.245011,-0.248207
-1.128296,0.321777,0.147095,0.839429,0.215184,-0.095874
-1.033936,0.312866,0.190674,0.628506,0.217314,0.091613
-0.927734,0.261108,0.247803,0.481500,0.253533,0.294013
-0.866699,0.216431,0.278442,0.429302,0.246076,0.434628
-0.854370,0.198975,0.265991,0.355798,0.101200,0.498544
-0.953857,0.181030,0.206177,0.281230,-0.093743,0.490022
-1.029053,0.176392,0.157471,0.204531,-0.377104,0.534763
-1.061157,0.165649,0.109985,0.109722,-0.675378,0.616788
-1.094482,0.134277,0.068237,0.011718,-0.939564,0.656203
-1.158569,0.096802,0.029907,0.003196,-1.132377,0.706271
-1.216675,0.055664,0.014526,0.099070,-1.192031,0.773382
-1.231323,0.011475,0.006592,0.306796,-1.148355,0.836233
-1.203247,-0.019287,0.013794,0.572047,-1.003479,0.884170
-1.136230,-0.035767,0.018188,0.905475,-0.780839,0.901214
-1.065186,-0.018555,-0.003784,1.330516,-0.416519,0.874582
-0.995483,0.017700,0.005371,1.445564,-0.241815,0.824515
-0.957886,0.020508,0.001953,1.521198,-0.132093,0.765925
-0.917603,0.020630,-0.006592,1.571266,-0.092678,0.699879
-0.893066,0.046265,-0.015137,1.486045,-0.123571,0.599744
-0.861938,0.076050,-0.016235,1.285775,-0.182160,0.512392
-0.833252,0.103516,-0.000366,1.008806,-0.229032,0.447411
-0.806274,0.096924,0.017822,0.733967,-0.265251,0.382430
-0.787720,0.070435,0.027222,0.499609,-0.315318,0.283360
-0.774658,0.034424,0.017090,0.231162,-0.474043,0.144876
-0.752686,0.027954,0.017212,0.152333,-0.525176,0.026632
-0.768066,0.032837,0.035522,0.177899,-0.475108,-0.208792
-0.810791,0.030762,0.053467,0.314253,-0.332363,-0.499609
-0.892090,0.037231,0.053711,0.503870,-0.138484,-0.721184
-0.971802,0.030762,0.052124,0.758469,0.074569,-0.997088
-1.066040,0.063477,0.041260,1.121724,0.253533,-1.176052
-1.171875,0.093384,0.031738,1.507350,0.352603,-1.298558
-1.266602,0.148804,0.026367,1.792841,0.317449,-1.349691
-1.308960,0.236084,0.026489,1.879127,0.204531,-1.275122
-1.327026,0.349243,0.036255,1.752361,0.031958,-1.178183
-1.406738,0.395264,0.057007,1.568070,-0.036219,-1.117463
-1.470459,0.461182,0.114380,1.206945,-0.037284,-1.051416
-1.451416,0.480591,0.171387,0.744620,0.020240,-0.964065
-1.381226,0.444946,0.198975,0.292948,0.087352,-0.849016
-1.240356,0.417725,0.210327,-0.077764,0.103331,-0.742490
-1.044434,0.390015,0.210449,-0.374973,0.066046,-0.630637
-0.864258,0.330200,0.192749,-0.557134,-0.021305,-0.521980
-0.726562,0.251587,0.156372,-0.608266,-0.140615,-0.425041
-0.660400,0.176147,0.119263,-0.434628,-0.295078,-0.318514
-0.723389,0.071655,0.106812,-0.138484,-0.403735,-0.262055
-0.786011,0.035767,0.114258,0.232228,-0.513458,-0.205596
-0.831909,0.023193,0.111938,0.625310,-0.589091,-0.177899
-0.862427,0.047485,0.100830,0.965130,-0.606136,-0.194943
-0.883057,0.102173,0.086304,1.192031,-0.581635,-0.226901
-0.907959,0.140015,0.059082,1.317733,-0.547546,-0.254598
-0.922485,0.156860,0.030518,1.373126,-0.513458,-0.280165
-0.921631,0.173584,0.012939,1.389105,-0.467651,-0.275904
-0.912231,0.200195,0.020020,1.369931,-0.384561,-0.197074
-0.881226,0.227905,0.081177,1.269796,-0.159790,-0.078830
-0.853394,0.231079,0.092407,1.204815,-0.029827,0.060720
-0.838989,0.230225,0.109619,1.091897,0.071373,0.177899
-0.833740,0.230469,0.142700,0.936368,0.151268,0.283360
-0.850708,0.230713,0.188232,0.698814,0.238619,0.366451
-0.883179,0.223022,0.220215,0.394148,0.309992,0.427171
-0.912231,0.197876,0.255493,0.076699,0.363255,0.487891
-0.930786,0.146606,0.321655,-0.272708,0.386691,0.513458
-0.926758,0.036621,0.370117,-0.450607,0.335558,0.521980
-0.897827,-0.012085,0.374268,-0.536893,0.232228,0.437824
-0.869995,-0.073730,0.363037,-0.566721,0.159790,0.325971
-0.863037,-0.135986,0.354614,-0.392017,0.120375,0.147007
-0.885376,-0.159180,0.329102,-0.088417,0.140615,-0.006392
-0.936890,-0.111938,0.293579,0.350472,0.204531,-0.110788
-1.005859,-0.011963,0.261597,0.751012,0.153398,-0.202400
-1.041992,0.051758,0.215332,0.976848,0.106526,-0.255664
-1.076904,0.148926,0.182007,0.977913,0.092678,-0.322775
-1.169067,0.212769,0.130493,0.660464,0.072438,-0.404801
-1.287354,0.195923,0.126831,0.350472,0.059655,-0.477239
-1.396729,0.175903,0.153564,0.180030,0.117179,-0.481500
-1.473999,0.191528,0.149780,0.151268,0.154463,-0.456999
-1.421631,0.232910,0.142822,0.132093,0.174703,-0.373908
-1.313965,0.261353,0.152100,0.050067,0.200270,-0.217314
-1.184814,0.253052,0.190674,-0.074569,0.230097,-0.012783
-1.010498,0.206299,0.233521,-0.126767,0.252468,0.234358
-0.861328,0.169922,0.239990,-0.099070,0.222640,0.421845
-0.787231,0.164917,0.217041,-0.085221,0.116114,0.494283
-0.758911,0.165527,0.187622,-0.113983,-0.030893,0.520915
-0.754028,0.169678,0.156250,-0.279099,-0.306796,0.558199
-0.783203,0.164795,0.114868,-0.469782,-0.498544,0.516653
-0.845703,0.154053,0.081299,-0.687096,-0.674313,0.434628
-0.961426,0.131348,0.046875,-0.890561,-0.823450,0.300405
-1.111816,0.118652,0.029541,-1.042894,-0.912932,0.127832
-1.258301,0.093018,0.015015,-1.047155,-0.947020,-0.008522
-1.317871,0.074341,-0.007813,-0.912932,-0.916128,-0.088417
-1.293701,0.078857,-0.038452,-0.655138,-0.868191,-0.101200
-1.245483,0.086914,-0.054199,-0.332363,-0.798949,-0.060720
-1.188232,0.090088,-0.050049,0.042611,-0.715858,0.136354
-1.105713,0.071411,-0.045410,0.696683,-0.592287,0.363255
-0.975464,0.050293,-0.067139,1.131311,-0.524110,0.610397
-0.907471,0.056519,-0.081787,1.460478,-0.450607,0.821319
-0.873901,0.077148,-0.073853,1.706554,-0.369647,0.989631
-0.848267,0.109985,-0.041992,1.743839,-0.252468,1.092962
-0.830566,0.135498,-0.008423,1.577657,-0.116114,1.124920
-0.815918,0.154785,0.021362,1.219728,0.004261,1.086570
-0.802002,0.160156,0.033936,0.709466,0.093743,0.974717
-0.763428,0.174072,0.092041,0.055394,0.162986,0.774448
-0.628906,0.182617,0.124146,-0.879909,0.336624,0.428236
-0.725586,0.098511,0.178101,-1.409345,0.496413,0.062851
-0.802368,0.057739,0.209595,-1.791776,0.656203,-0.270577
-0.878296,0.025269,0.212769,-2.064483,0.797883,-0.564590
-0.974243,-0.034302,0.217163,-2.152900,0.863930,-0.866060
-1.038574,-0.093018,0.221558,-1.988850,0.836233,-1.154747
-1.106567,-0.131348,0.215454,-1.652226,0.721184,-1.406150
-1.192017,-0.159424,0.203979,-1.178183,0.539024,-1.586179
-1.290894,-0.171875,0.168335,-0.551807,0.307862,-1.660748
-1.389282,-0.167725,0.145630,0.113983,0.095874,-1.668205
-1.517822,-0.076050,0.140259,0.845820,-0.144876,-1.642638
-1.552979,-0.058350,0.098633,1.445564,-0.358994,-1.450891
-1.449097,0.027344,0.081787,1.973936,-0.441020,-1.287905
-1.281616,0.103638,0.137085,2.266884,-0.271643,-1.092962
-1.165894,0.147217,0.217163,2.461827,0.027697,-0.861799
-1.048828,0.104980,0.251953,2.670619,0.265251,-0.556068
-0.937744,0.099854,0.234741,2.821887,0.289752,-0.352603
-0.846191,0.130615,0.192993,2.834670,0.110788,-0.112918
-0.778687,0.126221,0.116577,2.727078,-0.167247,0.009587
-0.760864,0.131226,0.044922,2.454370,-0.448477,0.052198
-0.867432,0.161133,0.038940,2.160357,-0.637028,0.055394
-0.934448,0.161499,0.053955,1.842908,-0.847951,0.040480
-0.961182,0.147583,0.058350,1.585114,-0.964065,-0.007457
-0.936157,0.134766,0.055176,1.431716,-0.924650,-0.092678
-0.883789,0.134277,0.053345,1.331581,-0.753142,-0.208792
-0.831543,0.114746,0.054932,1.326255,-0.502805,-0.307862
-0.789429,0.092773,0.051880,1.408280,-0.245011,-0.363255
-0.753662,0.078613,0.057861,1.527590,-0.027697,-0.346211
-0.728516,0.062012,0.086060,1.682053,0.148072,-0.275904
-0.730591,0.054077,0.216919,1.836517,0.405866,-0.224771
-0.785767,0.046997,0.282227,1.891910,0.507066,-0.209857
-0.840210,0.044922,0.300781,1.890845,0.467651,-0.231162
-0.866699,0.058105,0.265625,1.832256,0.297209,-0.304666
-0.848755,0.120483,0.256836,1.640508,0.171508,-0.361125
-0.842773,0.169067,0.326782,1.302819,0.118244,-0.406931
-0.876343,0.166748,0.411377,0.945955,0.141680,-0.409062
-0.898437,0.129028,0.456909,0.708401,0.214118,-0.462325
-0.934692,0.094116,0.443604,0.638094,0.276969,-0.475108
-0.983398,0.071045,0.386108,0.789361,0.176834,-0.461260
-1.037354,0.120361,0.242432,0.889496,0.012783,-0.426106
-1.065430,0.156372,0.183838,0.918258,-0.140615,-0.353668
-1.134033,0.144165,0.166138,0.936368,-0.276969,-0.258859
-1.195068,0.115723,0.125732,1.071656,-0.401605,-0.123571
-1.260864,0.074341,0.100830,1.249556,-0.411192,-0.044741
-1.414185,0.006470,0.225220,1.565939,-0.235424,0.079895
-1.467163,-0.107788,0.245850,2.333995,-0.145941,0.323841
-1.239258,-0.088867,0.146973,3.132944,-0.166181,0.533698
-0.984131,-0.006958,0.104004,3.641075,-0.152333,0.593353
-0.779785,0.179443,0.166016,3.776364,-0.083091,0.542220
-0.727661,0.301880,0.208496,3.340671,-0.004261,0.497479
-0.750610,0.360107,0.201904,2.624813,-0.012783,0.436759
-0.786743,0.363770,0.151245,1.861018,-0.137419,0.349407
-0.791992,0.372437,0.105713,1.108941,-0.307862,0.264186
-0.831787,0.356445,0.099243,0.371777,-0.464455,0.144876
-0.960937,0.295410,0.105103,-0.187487,-0.614658,0.031958
-1.106567,0.214722,0.069092,-0.474043,-0.779774,-0.036219
-1.173096,0.148315,0.000610,-0.485761,-0.916128,-0.060720
-1.178711,0.105103,-0.034668,-0.199205,-0.931041,-0.063916
-1.151978,0.067871,0.016602,0.145941,-0.761664,-0.002131
-1.145264,0.038330,0.016724,0.614658,-0.545416,0.073503
-1.105835,0.033569,-0.004272,1.082309,-0.334493,0.160855
-1.039063,0.057129,-0.010254,1.446630,-0.154463,0.206661
-0.987427,0.095337,0.002441,1.654356,-0.007457,0.204531
-0.943970,0.146606,0.024658,1.637312,0.108657,0.152333
-0.908081,0.195923,0.037720,1.414672,0.178964,0.067112
-0.886108,0.231567,0.042603,1.034372,0.205596,-0.053263
-0.860229,0.255737,0.040527,0.550742,0.205596,-0.296144
-0.873657,0.268433,0.051758,-0.275904,0.241815,-0.470847
-0.884399,0.233887,0.092041,-0.774448,0.325971,-0.617854
-0.931519,0.156494,0.122559,-1.054612,0.420780,-0.722250
-0.973267,0.096558,0.125977,-1.111071,0.451672,-0.825580
-1.014404,0.050293,0.123901,-0.970456,0.411192,-0.926780
-1.049561,0.028931,0.129028,-0.688161,0.337689,-1.003479
-1.076294,0.023682,0.135864,-0.332363,0.258859,-1.059939
-1.093628,0.050415,0.139771,0.034088,0.188552,-1.075917
-1.126831,0.064453,0.169922,0.380300,0.172573,-1.029046
-1.230713,0.049316,0.137939,0.978978,0.026632,-0.953412
-1.338623,0.117676,0.068359,1.234642,-0.134223,-0.896953
-1.290771,0.161987,0.071167,1.409345,-0.251403,-0.763795
-1.190186,0.123535,0.074707,1.563809,-0.279099,-0.586961
-1.079102,0.065430,0.059937,1.721468,-0.213053,-0.448477
-1.051147,0.080200,0.066772,1.816277,-0.094809,-0.396279
-1.105469,0.144165,0.085083,1.717207,-0.011718,-0.386691
-1.104614,0.205322,0.116699,1.391236,0.025566,-0.347276
-1.036743,0.214111,0.186523,0.970456,0.046872,-0.276969
-0.899780,0.083008,0.240845,0.761664,-0.049002,-0.095874
-0.713989,-0.036133,0.213623,1.084440,-0.205596,-0.052198
-0.683105,-0.069580,0.176147,1.503089,-0.384561,-0.073503
-0.709106,-0.111450,0.170776,1.956892,-0.545416,-0.104396
-0.777954,-0.158813,0.190308,2.697251,-0.692422,-0.167247
-0.826660,-0.075684,0.182617,3.376890,-0.737163,-0.334493
-0.853027,0.017212,0.148926,3.540941,-0.686031,-0.427171
-0.911987,0.182495,0.123657,3.233079,-0.588026,-0.468717
-0.961060,0.322876,0.136597,2.623747,-0.433563,-0.454868
-0.992676,0.320801,0.137207,2.126269,-0.270577,-0.376038
-0.995239,0.284180,0.167358,1.676727,0.006392,-0.191748
-0.956665,0.243896,0.213013,1.518003,0.148072,0.004261
-0.920898,0.186279,0.212891,1.430651,0.219445,0.199205
-0.878662,0.141357,0.211548,1.446630,0.251403,0.295078
-0.873413,0.166504,0.204346,1.442369,0.239685,0.365386
-0.873535,0.162842,0.206177,1.404019,0.200270,0.464455
-0.864990,0.168213,0.210571,1.378453,0.138484,0.504936
-0.862427,0.194458,0.203857,1.327320,0.077764,0.503870
-0.874512,0.224609,0.209229,1.182444,0.029827,0.468717
-0.886597,0.259033,0.235962,0.994957,0.028762,0.442085
-0.887939,0.303223,0.239868,0.609331,0.028762,0.480434
-0.869751,0.273804,0.217285,0.346211,0.045806,0.541155
-0.841064,0.224609,0.205811,0.186421,0.079895,0.562460
-0.828613,0.188843,0.208740,0.149137,0.150202,0.527306
-0.840088,0.176270,0.205688,0.147007,0.243946,0.459129
-0.880615,0.168823,0.209473,0.133158,0.315318,0.357929
-0.928833,0.168945,0.213989,0.096939,0.340885,0.238619
-0.935669,0.130615,0.203979,0.157659,0.329167,0.116114
-0.962646,0.110352,0.193848,0.308927,0.288687,0.003196
-0.947021,0.137329,0.174438,0.623180,0.265251,-0.015979
-1.098877,0.140625,0.122803,0.825580,0.256729,-0.051133
-1.318115,0.101440,0.116699,1.110006,0.203466,-0.164051
-1.442383,0.127930,0.124023,1.450891,0.160855,-0.351537
-1.391479,0.225098,0.123901,1.725729,0.181095,-0.419714
-1.290161,0.306763,0.093872,1.871670,0.197074,-0.238619
-1.115234,0.375000,0.063843,1.829060,0.238619,-0.056459
-0.950684,0.402344,0.033203,1.522264,0.280165,0.119310
-0.850464,0.378662,0.024902,1.043960,0.336624,0.209857
-0.806885,0.356445,0.031006,0.329167,0.367516,0.300405
-0.792114,0.339233,-0.006836,0.153398,0.334493,0.428236
-0.778442,0.311523,-0.035522,-0.175769,0.258859,0.437824
-0.861694,0.270264,-0.042725,-0.416519,0.165116,0.362190
-1.012573,0.195312,-0.040649,-0.513458,0.025566,0.303600
-1.126587,0.140381,-0.057739,-0.454868,-0.148072,0.230097
-1.200562,0.113403,-0.089844,-0.287622,-0.324906,0.210922
-1.212036,0.096802,-0.137573,-0.068177,-0.512392,0.243946
-1.175415,0.088745,-0.173950,0.187487,-0.668986,0.272708
-1.135742,0.069336,-0.177368,0.495348,-0.753142,0.319579
-1.067383,-0.014648,-0.161987,1.081244,-0.664725,0.431432
-1.000488,0.023193,-0.125732,1.361408,-0.513458,0.400540
-1.016113,0.104858,-0.118896,1.423194,-0.380300,0.324906
-1.013184,0.149536,-0.128174,1.357147,-0.302535,0.245011
-0.997437,0.193237,-0.137939,1.160073,-0.284426,0.145941
-0.973511,0.202271,-0.135864,0.887366,-0.290817,0.049002
-0.938354,0.190186,-0.120239,0.662595,-0.272708,-0.028762
-0.896240,0.179443,-0.112549,0.533698,-0.211988,-0.089482
-0.902222,0.156494,-0.101563,0.478304,-0.136354,-0.141680
-0.894653,0.161743,-0.079224,0.477239,0.008522,-0.200270
-0.901123,0.186035,0.013794,0.433563,0.124636,-0.247141
-0.934570,0.177490,0.087280,0.542220,0.180030,-0.278034
-0.962891,0.170898,0.092651,0.677508,0.101200,-0.335558
-0.957642,0.093994,0.068970,0.706271,-0.021305,-0.356864
-0.936768,0.116943,0.036621,0.728641,-0.074569,-0.425041
-0.962524,0.201782,0.008911,0.671117,-0.169377,-0.520915
-0.975342,0.177612,-0.002686,0.781904,-0.298274,-0.560329
-0.958008,0.157471,-0.013306,1.012002,-0.385626,-0.623180
-0.946045,0.210449,-0.020386,1.166465,-0.418649,-0.682835
-0.970947,0.278320,-0.031860,1.138768,-0.456999,-0.716923
-1.006104,0.326782,-0.034546,1.017328,-0.478304,-0.714793
-1.005493,0.312988,-0.029297,0.962999,-0.476173,-0.694553
-1.018066,0.281372,-0.035889,1.065265,-0.462325,-0.658334
-1.007324,0.265625,-0.060669,1.203749,-0.455933,-0.650877
-1.026123,0.290894,-0.103149,1.262339,-0.449542,-0.559264
-1.046631,0.313477,-0.163208,1.226120,-0.418649,-0.585896
-1.087036,0.337769,-0.194214,1.111071,-0.332363,-0.558199
-1.140991,0.315186,-0.194824,0.973652,-0.240750,-0.577374
-1.149170,0.308716,-0.178223,0.558199,-0.108657,-0.618919
-1.198730,0.214478,-0.144409,0.730772,-0.050067,-0.659399
-1.399414,0.125732,-0.135986,0.797883,-0.118244,-0.747816
-1.505493,0.064087,-0.167847,1.049286,-0.348342,-0.810667
-1.350830,0.083008,-0.179810,1.351821,-0.569917,-0.851147
-1.161987,0.098877,-0.119629,1.569135,-0.618919,-0.840494
-0.989746,0.128540,-0.056641,1.698032,-0.555003,-0.779774
-0.757202,0.196411,0.010376,1.628790,-0.366451,-0.642355
-0.619019,0.202148,0.101685,1.342234,-0.064981,-0.480434
-0.649902,0.199829,0.178101,1.037568,0.264186,-0.367516
-0.767090,0.168457,0.210937,0.803210,0.477239,-0.174703
-0.853149,0.009155,0.153564,0.818123,0.390952,-0.037284
-0.909912,-0.024780,0.063354,0.877778,0.184291,0.043676
-0.950806,0.053833,0.002075,0.839429,-0.055394,0.107592
-0.962402,0.138428,0.000366,0.655138,-0.240750,0.246076
-0.986450,0.137939,0.023315,0.433563,-0.324906,0.380300
-1.008789,0.094360,0.033081,0.280165,-0.301470,0.480434
-1.017212,0.061279,0.054565,0.259925,-0.197074,0.523045
-1.002930,0.082153,0.064087,0.308927,-0.061785,0.545416
-0.970093,0.132202,0.066528,0.248207,0.110788,0.569917
-0.903931,0.030640,0.120850,0.094809,0.236489,0.608266
-0.902588,0.063843,0.151855,0.061785,0.346211,0.485761
-0.973145,0.104980,0.138184,-0.030893,0.340885,0.366451
-1.033691,0.146362,0.088501,-0.196009,0.217314,0.257794
-1.066528,0.131226,0.041016,-0.387756,0.047937,0.252468
-1.054932,0.097412,0.042358,-0.495348,-0.051133,0.255664
-0.987793,0.038086,0.059204,-0.498544,0.002131,0.288687
-0.937744,0.051880,0.053101,-0.523045,0.168312,0.255664
-0.931396,0.080078,0.026367,-0.613593,0.315318,0.216249
-0.945435,0.101807,-0.006470,-0.900149,0.407996,0.109722
-0.967285,0.112671,0.041626,-1.061004,0.419714,0.112918
-0.928833,-0.000610,0.058594,-0.954477,0.381365,0.205596
-0.874390,-0.033569,0.037964,-0.712662,0.304666,0.218379
-0.837158,-0.014648,0.016113,-0.498544,0.200270,0.206661
-0.827759,0.006470,0.015747,-0.344081,0.101200,0.183226
-0.847412,0.046875,0.046265,-0.285491,0.042611,0.160855
-0.875732,0.084839,0.074097,-0.258859,0.033023,0.153398
-0.909058,0.066040,0.057129,-0.234358,0.038350,0.135289
-0.952515,0.010376,0.034668,-0.089482,0.037284,0.116114
-1.030029,0.045898,0.000732,-0.028762,0.038350,0.092678
-1.111450,0.012817,0.011719,0.001065,0.056459,0.137419
-1.171509,-0.066162,0.009033,0.107592,0.070307,0.240750
-1.145874,-0.140991,-0.034180,0.286556,0.064981,0.352603
-1.128906,-0.210205,-0.067383,0.500674,0.066046,0.387756
-1.268311,-0.218384,-0.059937,0.743555,0.096939,0.248207
-1.510986,-0.082520,-0.041382,0.864995,0.080960,0.012783
-1.581543,0.015381,-0.009277,0.806406,0.005326,-0.149137
-1.259766,0.025024,0.011353,0.686031,-0.027697,-0.177899
-0.885864,0.071045,0.017700,0.492152,0.087352,-0.116114
-0.700317,0.104614,0.043213,0.394148,0.199205,-0.108657
-0.785645,0.085693,0.068604,0.317449,0.268447,-0.123571
-0.869263,0.075439,0.062988,0.269512,0.227967,-0.059655
-0.941162,0.070312,0.038696,0.236489,0.070307,0.007457
-1.029663,0.009521,-0.026367,0.254598,-0.187487,0.108657
-1.099731,-0.030640,-0.100464,0.314253,-0.478304,0.208792
-1.145752,-0.053345,-0.161499,0.343015,-0.717989,0.347276
-1.147827,-0.088013,-0.169922,0.369647,-0.821319,0.363255
-1.137451,-0.107178,-0.118896,0.471912,-0.602940,0.463390
-1.058350,-0.161255,-0.046021,0.730772,-0.301470,0.447411
-1.030884,-0.133301,-0.030762,1.039698,-0.011718,0.356864
-1.036865,-0.061523,-0.011108,1.205880,0.169377,0.248207
-1.024536,0.026489,0.013062,1.230381,0.206661,0.183226
-0.983521,0.042969,0.030518,1.188836,0.133158,0.184291
-0.932251,0.044189,0.023437,1.188836,-0.027697,0.200270
-0.927612,0.081909,0.006104,1.193097,-0.241815,0.200270
-0.942017,0.096191,-0.001343,1.166465,-0.453803,0.183226
-0.920044,0.109131,-0.009399,1.140899,-0.598679,0.197074
-0.897461,0.136230,-0.033569,1.041829,-0.663660,0.202400
-0.908325,0.133179,-0.041382,0.987501,-0.624245,0.172573
-0.947021,0.120972,-0.034180,0.988566,-0.542220,0.137419
-0.975586,0.110229,-0.029297,1.010936,-0.452738,0.102265
-0.992065,0.112915,-0.028931,1.033307,-0.392017,0.084156
-1.020386,0.113159,-0.019043,1.076983,-0.364321,0.027697
-1.072144,0.110107,-0.015747,1.156878,-0.377104,-0.025566
-1.095459,0.112793,-0.034546,1.242099,-0.436759,-0.051133
-1.088501,0.126587,-0.048706,1.298558,-0.502805,-0.052198
-1.070313,0.139771,-0.053589,1.301754,-0.521980,-0.057524
-1.072876,0.159058,-0.031372,1.269796,-0.487891,-0.068177
-1.117676,0.123413,-0.023315,1.383779,-0.485761,-0.101200
-1.219238,0.139526,-0.041870,1.519068,-0.504936,-0.158724
-1.303467,0.180176,-0.032104,1.516937,-0.521980,-0.251403
-1.283447,0.166382,-0.009033,1.407215,-0.512392,-0.345146
-1.219604,0.136719,0.005005,1.295362,-0.464455,-0.456999
-1.138794,0.203369,0.021484,1.166465,-0.409062,-0.598679
-0.996948,0.249146,0.023193,1.007741,-0.395213,-0.653007
-0.833496,0.211426,0.018921,0.926780,-0.396279,-0.304666
-0.731934,0.166138,0.006348,1.092962,-0.361125,-0.380300
-0.698486,0.118774,-0.007568,1.221859,-0.320645,-0.220510
-0.743530,0.082886,-0.023560,1.332646,-0.288687,-0.084156
-0.844482,0.061401,-0.039795,1.422129,-0.312123,-0.001065
-0.936157,0.070679,-0.053589,1.458348,-0.384561,0.027697
-1.017456,0.075073,-0.063110,1.460478,-0.465521,0.027697
-1.056274,0.045288,-0.076538,1.487110,-0.511327,0.034088
-1.043457,0.012451,-0.094360,1.554222,-0.491087,0.030893
-1.022461,0.017700,-0.086548,1.613876,-0.392017,-0.008522
-1.012085,0.056030,-0.039673,1.590441,-0.108657,-0.086286
-0.947998,0.064087,0.018921,1.524394,0.080960,-0.099070
-0.892578,0.099121,0.051636,1.421063,0.227967,-0.124636
-0.859009,0.126831,0.088135,1.270861,0.306796,-0.177899
-0.841675,0.148682,0.113770,1.121724,0.334493,-0.245011
-0.843018,0.143677,0.130981,1.052482,0.303600,-0.289752
-0.857056,0.077881,0.161743,1.188836,0.215184,-0.294013
-0.871826,0.065918,0.214111,1.678857,0.107592,-0.294013
-0.898437,0.229614,0.189575,2.024003,0.004261,-0.295078
-0.921265,0.287231,0.160034,2.088984,-0.079895,-0.230097
-0.947632,0.331543,0.115723,1.797102,-0.208792,-0.256729
-0.922363,0.335205,0.110596,1.394432,-0.267381,-0.316384
-0.901611,0.327026,0.123657,0.960869,-0.213053,-0.414388
-0.887329,0.308838,0.120361,0.608266,-0.077764,-0.496413
-0.914429,0.211670,0.141235,0.631702,0.054329,-0.512392
-0.989136,0.163574,0.157227,0.922519,0.119310,-0.536893
-1.040283,0.216675,0.148926,1.115332,0.145941,-0.500674
-1.082886,0.264038,0.120117,1.149421,0.136354,-0.407996
-1.193115,0.284546,0.099121,1.082309,0.099070,-0.366451
-1.350342,0.314209,0.112549,0.905475,-0.043676,-0.314253
-1.314575,0.332886,0.102051,0.777643,-0.111853,-0.208792
-1.237183,0.299316,0.091187,0.776578,-0.128897,-0.110788
-1.195801,0.335083,0.090576,0.765925,-0.100135,-0.049002
-1.141357,0.383423,0.104980,0.631702,-0.039415,0.060720
-1.081055,0.404785,0.138672,0.462325,0.033023,0.185356
-1.009399,0.428101,0.162231,0.296144,0.071373,0.312123
-0.920044,0.416992,0.154785,0.131028,0.049002,0.454868
-0.858032,0.394043,0.108154,-0.049002,-0.031958,0.599744
-0.873657,0.350952,0.070435,-0.222640,-0.154463,1.019459
-0.924927,0.272949,0.038696,-0.332363,-0.353668,1.003479
-0.993408,0.127441,0.011230,-0.273773,-0.462325,1.120659
-1.036011,0.060059,-0.014893,-0.142745,-0.534763,1.188836
-1.073120,-0.008911,-0.028931,0.062851,-0.569917,1.217598
-1.118286,-0.027466,-0.029053,0.260990,-0.565656,1.161139
-1.140259,-0.008179,-0.016968,0.367516,-0.535828,1.050351
-1.118286,-0.022827,-0.010376,0.402670,-0.483630,0.917193
-1.057739,-0.051392,-0.017700,0.427171,-0.395213,0.747816
-0.998779,-0.070923,-0.030762,0.446346,-0.275904,0.570982
-0.975952,-0.030518,-0.043945,0.371777,-0.221575,0.216249
-0.966187,0.092041,-0.042358,0.158724,-0.266316,0.004261
-0.932251,0.120117,-0.042114,-0.082025,-0.323841,-0.157659
-0.899048,0.118042,-0.033447,-0.230097,-0.335558,-0.144876
-0.894897,0.108643,-0.014771,-0.315318,-0.309992,-0.105461
-0.895508,0.091187,0.002930,-0.305731,-0.279099,-0.101200
-0.897583,0.083740,0.011230,-0.186421,-0.259925,-0.074569
-0.906860,0.065308,0.008057,0.025566,-0.249272,0.009587
-0.909546,0.058594,0.008179,0.245011,-0.235424,0.092678
-0.916626,0.077637,0.021973,0.418649,-0.201335,0.124636
-0.944458,0.116333,0.048828,0.493218,-0.142745,0.096939
-0.971191,0.140381,0.046753,0.463390,-0.131028,0.071373
-0.988892,0.125366,0.046997,0.417584,-0.135289,0.023436
-1.008911,0.103638,0.050781,0.398409,-0.142745,-0.051133
-1.027100,0.082886,0.048218,0.433563,-0.140615,-0.145941
-1.039063,0.070923,0.050049,0.520915,-0.110788,-0.247141
-1.058472,0.081177,0.052002,0.601875,-0.059655,-0.371777
-1.080322,0.100220,0.052368,0.648746,-0.009587,-0.492152
-1.115967,0.112305,0.047485,0.660464,0.024501,-0.605070
-1.197388,0.119141,0.041260,0.632767,0.015979,-0.805340
-1.282593,0.153198,0.052002,0.574178,-0.005326,-0.925715
-1.264771,0.163696,0.075439,0.540089,0.009587,-0.980044
-1.228149,0.156616,0.088257,0.577374,0.012783,-0.983239
-1.126221,0.168091,0.094727,0.642355,0.003196,-0.940629
-1.030518,0.176514,0.111816,0.715858,-0.020240,-0.879909
-0.934326,0.168945,0.119019,0.824515,-0.064981,-0.781904
-0.871338,0.142212,0.093506,0.961934,-0.132093,-0.666856
-0.872437,0.124756,0.057739,1.089766,-0.218379,-0.583765
-0.930298,0.119263,0.049927,1.220794,-0.319579,-0.455933
-0.966919,0.115723,0.041504,1.348625,-0.447411,-0.373908
-1.025513,0.111450,0.026367,1.406150,-0.507066,-0.339819
-1.025513,0.133423,0.011841,1.477522,-0.540089,-0.325971
-0.983154,0.145508,-0.010864,1.502023,-0.527306,-0.254598
-0.935303,0.156494,-0.017700,1.482849,-0.455933,-0.189617
-0.895386,0.162231,0.001831,1.426390,-0.323841,-0.145941
-0.850220,0.163696,0.028320,1.369931,-0.155529,-0.115049
-0.805176,0.187622,0.050537,1.254882,0.005326,-0.129962
-0.767212,0.196045,0.085449,1.101484,0.140615,-0.153398
-0.733765,0.173706,0.130005,0.971522,0.290817,-0.201335
-0.743042,0.159424,0.184692,0.981109,0.316384,-0.217314
-0.767456,0.137207,0.178955,1.073787,0.265251,-0.222640
-0.786865,0.131104,0.164795,1.187770,0.185356,-0.262055
-0.828979,0.187622,0.189575,1.210141,0.124636,-0.350472
-0.872192,0.254150,0.233032,1.132377,0.093743,-0.371777
-0.892578,0.259399,0.245117,1.051416,0.086286,-0.308927
-0.902100,0.256470,0.247925,0.966195,0.123571,-0.256729
-0.934692,0.291504,0.273560,0.812797,0.193878,-0.239685
-0.988647,0.313110,0.301514,0.612527,0.279099,-0.202400
-1.046875,0.312012,0.305420,0.301470,0.345146,-0.161920
-1.109741,0.251099,0.286377,0.206661,0.318514,-0.110788
-1.122681,0.214722,0.253296,0.222640,0.242880,-0.078830
-1.127930,0.201172,0.208374,0.291883,0.144876,-0.051133
