ax,ay,az,gx,gy,gz
-0.875244,0.048950,0.389526,-0.491087,0.237554,0.009587
-0.846436,-0.022339,0.361572,-0.320645,0.150202,0.017044
-0.824585,-0.041870,0.340210,-0.013848,0.070307,0.012783
-0.811401,-0.014404,0.333496,0.294013,0.045806,0.010653
-0.852661,0.052856,0.329468,0.608266,0.062851,0.012783
-0.906372,0.098633,0.292725,0.682835,0.076699,0.003196
-0.966675,0.151367,0.253784,0.622115,0.068177,-0.008522
-1.015991,0.185059,0.227051,0.476173,0.042611,0.017044
-1.059204,0.186646,0.182129,0.355798,0.020240,0.085221
-1.186157,0.163940,0.161133,0.262055,0.041545,0.121440
-1.381958,0.153076,0.179565,0.196009,0.076699,0.152333
-1.515625,0.133911,0.226440,0.193878,0.104396,0.258859
-1.398315,0.111694,0.216919,0.345146,0.111853,0.479369
-1.227295,0.105957,0.131836,0.468717,0.118244,0.703075
-1.097656,0.120117,0.154785,0.479369,0.116114,0.815993
-1.019897,0.121826,0.183594,0.450607,0.136354,0.906540
-0.931763,0.130981,0.207886,0.356864,0.186421,0.942759
-0.874268,0.147217,0.211426,0.178964,0.223706,0.910801
-0.870117,0.159912,0.198486,-0.070307,0.204531,0.829841
-0.880981,0.166016,0.175415,-0.351537,0.120375,0.731837
-0.884888,0.159424,0.148315,-0.623180,-0.006392,0.644485
-0.956055,0.116821,0.120483,-0.843690,-0.152333,0.537959
-1.086304,0.043335,0.109375,-0.846886,-0.425041,0.364321
-1.221069,-0.019287,0.094971,-0.649812,-0.593353,0.260990
-1.261353,-0.060791,0.068115,-0.259925,-0.762730,0.220510
-1.204102,-0.071045,0.023315,0.278034,-0.917193,0.248207
-1.118896,-0.060059,-0.019653,0.857538,-1.025850,0.333428
-1.065674,-0.038696,-0.045288,1.381649,-1.056743,0.442085
-1.028198,-0.013550,-0.052979,1.796037,-1.012002,0.543285
-0.985596,0.010742,-0.058105,2.104963,-0.901214,0.622115
-0.933350,0.050781,-0.063965,2.266884,-0.751012,0.657268
-0.876465,0.107544,-0.063232,2.234926,-0.579504,0.627441
-0.836548,0.169922,-0.013306,1.734251,-0.300405,0.448477
-0.854004,0.225342,0.016113,1.171791,-0.155529,0.268447
-0.870239,0.223267,0.022949,0.547546,-0.088417,0.064981
-0.871826,0.192627,0.025391,-0.014914,-0.087352,-0.137419
-0.869141,0.133789,0.027710,-0.377104,-0.118244,-0.324906
-0.868652,0.086304,0.036987,-0.565656,-0.140615,-0.525176
-0.880737,0.044312,0.050903,-0.514523,-0.126767,-0.686031
-0.899414,0.013062,0.063843,-0.270577,-0.083091,-0.868191
-0.954834,0.032593,0.064941,0.044741,-0.014914,-0.935303
-1.006348,0.032104,0.066650,0.497479,0.034088,-1.121724
-1.075195,0.105713,0.064331,0.714793,0.038350,-1.178183
-1.101196,0.151367,0.057617,0.847951,0.018110,-1.150486
-1.109253,0.182495,0.045532,0.912932,-0.023436,-1.091897
-1.113281,0.192871,0.036743,0.931041,-0.066046,-1.040764
-1.111694,0.193604,0.040161,0.937433,-0.086286,-1.020524
-1.110840,0.190796,0.051025,0.944890,-0.071373,-1.019459
-1.135742,0.199951,0.070312,0.942759,-0.024501,-1.023720
-1.196533,0.202637,0.088257,0.952347,0.022371,-1.017328
-1.299316,0.195312,0.119873,0.936368,0.055394,-0.989631
-1.366455,0.151855,0.090088,1.138768,-0.076699,-0.925715
-1.283325,0.122070,0.065552,1.339038,-0.177899,-0.905475
-1.240723,0.128296,0.092163,1.559548,-0.205596,-0.912932
-1.171021,0.178345,0.134766,1.764079,-0.140615,-0.887366
-1.070557,0.232666,0.156860,1.873801,-0.051133,-0.773382
-0.946533,0.271851,0.149780,1.871670,-0.031958,-0.611462
-0.810547,0.279297,0.149536,1.765144,-0.039415,-0.436759
-0.749023,0.253052,0.139282,1.614942,-0.052198,-0.318514
-0.774048,0.225586,0.161987,1.463674,-0.060720,-0.224771
-0.838501,0.179077,0.169312,1.404019,-0.119310,-0.061785
-0.917847,0.168945,0.197998,1.272992,-0.198139,0.020240
-0.959351,0.111328,0.186646,1.079113,-0.312123,0.120375
-0.938599,0.033081,0.159546,1.101484,-0.389887,0.203466
-0.918335,0.007813,0.149902,1.177118,-0.427171,0.192813
-0.937378,0.002441,0.178833,1.255947,-0.410127,0.168312
-0.921265,0.022217,0.196411,1.300688,-0.323841,0.161920
-0.879639,0.041992,0.210815,1.215467,-0.194943,0.147007
-0.838135,0.025146,0.223633,1.114267,-0.067112,0.118244
-0.802124,0.036743,0.242310,1.032242,0.043676,0.072438
-0.790894,0.049927,0.257080,0.900149,0.107592,0.022371
-0.782593,0.025146,0.238647,0.838363,0.064981,0.017044
-0.782715,-0.018555,0.223389,0.817058,0.026632,-0.007457
-0.816650,0.003540,0.225342,0.813862,0.004261,-0.096939
-0.826416,0.014893,0.227905,0.774448,0.010653,-0.134223
-0.824097,-0.027710,0.227905,0.755273,0.080960,-0.160855
-0.861572,-0.092896,0.218140,0.855408,0.171508,-0.160855
-0.879883,-0.169922,0.196899,1.032242,0.218379,-0.152333
-0.806763,-0.140259,0.189819,1.234642,0.246076,-0.184291
-0.761353,-0.054565,0.220703,1.188836,0.445281,-0.287622
-0.849121,-0.011719,0.243286,1.041829,0.557134,-0.334493
-0.948486,-0.040771,0.204102,0.937433,0.546481,-0.374973
-1.018188,-0.029785,0.169556,0.909736,0.464455,-0.498544
-1.107056,0.027100,0.152954,0.922519,0.380300,-0.618919
-1.266968,0.030518,0.124268,1.031176,0.294013,-0.686031
-1.441162,0.057495,0.115845,1.226120,0.197074,-0.757403
-1.446655,0.128296,0.089966,1.483914,0.079895,-0.725445
-1.321533,0.165283,0.032104,1.708685,-0.015979,-0.651942
-1.252197,0.206543,0.026001,1.815211,-0.011718,-0.539024
-1.229492,0.285034,0.077637,1.801363,0.169377,-0.430367
-1.180542,0.350586,0.124878,1.620268,0.343015,-0.283360
-1.093262,0.345825,0.198853,1.435977,0.515588,-0.052198
-1.007202,0.315552,0.238892,1.335842,0.575243,0.169377
-0.944702,0.320557,0.233398,1.155812,0.502805,0.334493
-0.931152,0.264404,0.206543,0.911867,0.324906,0.499609
-0.947021,0.209595,0.189575,0.732902,0.105461,0.564590
-0.986694,0.160400,0.163574,0.617854,-0.177899,0.711597
-1.010498,0.067871,0.149780,0.666856,-0.445281,0.851147
-1.060669,0.000610,0.137939,0.935303,-0.773382,1.017328
-1.162231,-0.025513,0.074707,1.140899,-0.913997,1.134507
-1.190186,-0.034180,0.037476,1.362474,-1.005610,1.276187
-1.178833,-0.040649,0.009399,1.544634,-1.013067,1.401889
-1.155151,-0.090576,0.007324,1.700163,-0.935303,1.475392
-1.110718,-0.046631,0.017090,1.796037,-0.802144,1.439173
-1.068726,0.015503,0.027588,1.739578,-0.658334,1.352886
-1.025391,0.023071,0.023071,1.590441,-0.567786,1.204815
-0.977905,0.053345,0.019043,1.390171,-0.519849,1.151551
-0.925171,0.031860,0.019653,1.189901,-0.518784,0.749946
-0.922729,0.070679,0.024780,0.955543,-0.548611,0.567786
-0.871338,0.072388,0.018677,0.846886,-0.573112,0.406931
-0.834229,0.088013,0.007080,0.748881,-0.586961,0.245011
-0.825928,0.100708,-0.002075,0.674313,-0.589091,0.090548
-0.820068,0.106812,-0.004761,0.634898,-0.558199,-0.053263
-0.829346,0.109497,-0.007324,0.613593,-0.499609,-0.203466
-0.855835,0.121338,-0.011963,0.597614,-0.421845,-0.368582
-0.896484,0.124756,-0.014771,0.561395,-0.350472,-0.486826
-0.941650,0.135376,-0.014038,0.539024,-0.289752,-0.659399
-0.993652,0.151123,-0.019897,0.468717,-0.220510,-0.901214
-1.088745,0.207275,-0.031738,0.345146,-0.194943,-1.034372
-1.073242,0.174805,-0.051025,0.368582,-0.166181,-1.086570
-1.041992,0.068359,-0.044312,0.548611,-0.062851,-1.141964
-0.995483,0.080322,-0.031616,0.660464,0.119310,-1.243164
-1.091797,0.192261,-0.014404,0.518784,0.286556,-1.336907
-1.254395,0.268921,-0.039673,0.180030,0.363255,-1.381649
-1.432129,0.268799,-0.081909,-0.172573,0.307862,-1.377388
-1.525635,0.175171,-0.112183,-0.296144,0.162986,-1.326255
-1.491943,0.118042,-0.103882,-0.201335,0.046872,-1.262339
-1.379883,0.063110,0.026367,0.248207,0.144876,-1.137703
-1.072021,0.051392,0.099121,0.837298,0.304666,-0.967261
-0.885620,0.086060,0.112671,1.456217,0.367516,-0.789361
-0.763428,0.121460,0.072388,1.920673,0.313188,-0.658334
-0.755859,0.156372,0.039429,2.123073,0.207727,-0.629572
-0.830200,0.202637,0.034424,2.167814,0.070307,-0.630637
-0.854004,0.282837,0.033081,2.000567,-0.046872,-0.622115
-0.888916,0.373413,0.053467,1.588310,-0.093743,-0.625310
-0.956055,0.400757,0.086914,1.080179,-0.089482,-0.591222
-0.970215,0.340576,0.112793,0.617854,-0.072438,-0.395213
-0.949341,0.203369,0.102295,0.616788,-0.087352,-0.246076
-0.958496,0.140137,0.131348,0.842625,-0.103331,-0.090548
-0.945435,0.101563,0.164795,1.194162,-0.093743,0.069242
-0.929199,0.112061,0.179321,1.516937,-0.039415,0.201335
-0.944214,0.159912,0.182251,1.605354,0.017044,0.290817
-0.942627,0.185425,0.206665,1.472196,0.066046,0.361125
-0.939575,0.143799,0.234619,1.251686,0.110788,0.421845
-0.940796,0.126587,0.237671,1.007741,0.122505,0.411192
-0.941162,0.125366,0.231812,0.764860,0.102265,0.397344
-0.950439,0.092163,0.232178,0.484696,0.046872,0.412258
-0.936768,0.029297,0.243286,0.350472,0.047937,0.395213
-0.932251,-0.013428,0.258667,0.298274,0.074569,0.360060
-0.935425,-0.016846,0.277954,0.295078,0.116114,0.309992
-0.936646,-0.039673,0.288818,0.363255,0.137419,0.290817
-0.935181,-0.031128,0.264404,0.451672,0.094809,0.251403
-0.914795,-0.020264,0.244507,0.523045,0.014914,0.209857
-0.907593,-0.018188,0.242798,0.575243,-0.067112,0.147007
-0.910034,0.028320,0.242554,0.574178,-0.135289,0.064981
-0.896484,0.049316,0.237305,0.513458,-0.180030,0.026632
-0.871582,0.069214,0.226685,0.479369,-0.169377,0.015979
-0.876953,0.121948,0.208618,0.381365,-0.136354,0.004261
-0.908569,0.224731,0.190674,0.177899,-0.068177,-0.007457
-0.957275,0.239380,0.194702,-0.008522,-0.018110,0.041545
-0.960449,0.171265,0.192749,-0.014914,0.010653,0.107592
-0.945068,0.108398,0.181030,0.144876,0.027697,0.143811
-0.949097,0.078491,0.172119,0.377104,0.020240,0.128897
-0.942993,0.111938,0.176514,0.548611,0.034088,0.069242
-0.961060,0.167480,0.181152,0.594418,0.061785,-0.047937
-0.978394,0.203003,0.170532,0.513458,0.107592,-0.102265
-0.960083,0.197510,0.151855,0.453803,0.129962,-0.123571
-0.953491,0.195435,0.114746,0.412258,0.139550,-0.115049
-1.023804,0.182739,0.079712,0.352603,0.155529,-0.100135
-1.182129,0.113281,0.050293,0.343015,0.141680,-0.108657
-1.302002,0.079224,0.016113,0.379234,0.111853,-0.116114
-1.335571,0.067627,-0.017212,0.403735,0.083091,-0.082025
-1.305908,0.043945,-0.043213,0.404801,0.067112,-0.015979
-1.254517,0.049072,-0.057373,0.382430,0.076699,0.036219
-1.213379,0.031738,-0.034668,0.297209,0.192813,0.152333
-1.119019,-0.091797,-0.010864,0.368582,0.259925,0.231162
-0.990479,-0.148315,0.004028,0.602940,0.315318,0.289752
-0.900391,-0.139160,0.032471,0.877778,0.377104,0.248207
-0.906128,-0.059692,0.054687,0.924650,0.405866,0.139550
-1.007568,0.040283,0.057129,0.736098,0.352603,0.042611
-1.156250,0.093262,0.031982,0.419714,0.148072,-0.021305
-1.234253,0.072876,-0.054932,0.142745,-0.229032,0.003196
-1.179810,0.005493,-0.111694,0.001065,-0.604005,0.107592
-1.095215,-0.001831,-0.139404,0.030893,-0.887366,0.188552
-0.979614,-0.051270,-0.114746,0.105461,-0.823450,0.283360
-0.935791,-0.045044,-0.110107,0.191748,-0.657268,0.337689
-0.912476,-0.052368,-0.098389,0.223706,-0.437824,0.394148
-0.891479,-0.062012,-0.067627,0.249272,-0.208792,0.394148
-0.901978,-0.042969,-0.026611,0.258859,-0.019175,0.346211
-0.932739,-0.024780,-0.000610,0.233293,0.068177,0.243946
-0.962891,0.033203,0.001099,0.175769,0.042611,0.121440
-0.968994,0.089966,-0.020142,0.055394,-0.079895,-0.005326
-0.986084,0.130737,-0.043701,-0.091613,-0.256729,-0.061785
-0.948730,0.124023,-0.053955,-0.194943,-0.437824,0.106526
-0.912354,-0.013672,-0.045654,-0.050067,-0.480434,0.095874
-0.910522,-0.030762,-0.032593,0.225836,-0.428236,-0.035154
-0.964722,-0.020508,-0.018066,0.531567,-0.325971,-0.140615
-0.994873,0.022583,-0.014526,0.766991,-0.227967,-0.158724
-0.971802,0.054687,-0.028320,0.892692,-0.186421,-0.133158
-0.952271,0.075073,-0.047974,0.926780,-0.190682,-0.126767
-0.944092,0.079590,-0.046387,0.915063,-0.204531,-0.180030
-0.936401,0.090210,-0.029541,0.906540,-0.186421,-0.225836
-0.923340,0.052490,-0.013672,0.926780,-0.096939,-0.281230
-0.921753,0.059082,0.014282,0.989631,-0.035154,-0.365386
-0.976196,0.059570,0.030151,0.991762,-0.007457,-0.446346
-1.014771,0.071533,0.037598,0.971522,-0.024501,-0.527306
-1.065918,0.083496,0.038940,0.929976,-0.074569,-0.613593
-1.143433,0.104614,0.046997,0.859669,-0.136354,-0.708401
-1.201050,0.113647,0.067261,0.786165,-0.184291,-0.752077
-1.229736,0.114258,0.081421,0.753142,-0.215184,-0.749946
-1.251953,0.097534,0.070068,0.789361,-0.263120,-0.715858
-1.328003,0.068237,0.050781,0.919324,-0.328102,-0.728641
-1.434814,0.099731,0.061401,1.130246,-0.378169,-0.856473
-1.459595,0.204590,0.140503,1.227185,-0.313188,-0.841559
-1.287964,0.225464,0.181274,1.339038,-0.196009,-0.694553
-1.098755,0.267700,0.232544,1.249556,-0.021305,-0.532632
-0.954224,0.241089,0.314209,0.976848,0.156594,-0.317449
-0.863525,0.140625,0.369141,0.768056,0.250337,-0.071373
-0.837524,0.009033,0.335938,0.711597,0.170442,0.128897
-0.850464,-0.096558,0.274414,0.867126,-0.012783,0.299339
-0.930786,-0.140259,0.200806,1.128116,-0.322775,0.437824
-1.007935,-0.152100,0.127808,1.353952,-0.939564,0.664725
-1.014893,-0.076782,0.078613,1.459413,-1.340103,0.748881
-1.038696,-0.036133,0.092285,1.386975,-1.617072,0.822384
-0.988892,-0.019043,0.084229,1.376322,-1.616007,0.858603
-0.884155,-0.035278,0.077026,1.396562,-1.375257,0.864995
-0.811646,-0.051880,0.080444,1.427455,-1.007741,0.847951
-0.779663,-0.024048,0.089722,1.361408,-0.615723,0.780839
-0.753784,0.031250,0.084717,1.157943,-0.289752,0.633833
-0.731201,0.073486,0.084595,0.798949,-0.054329,0.476173
-0.724121,0.076904,0.101074,0.379234,0.095874,0.324906
-0.730957,0.063477,0.112427,-0.058590,0.201335,0.095874
-0.722168,0.007080,0.043945,-0.148072,0.190682,-0.027697
-0.700439,0.026978,0.007813,-0.169377,0.216249,-0.178964
-0.721924,0.078735,0.031738,-0.233293,0.367516,-0.308927
-0.746582,0.119873,0.102783,-0.414388,0.660464,-0.344081
-0.793335,0.078735,0.116089,-0.516653,0.934237,-0.302535
-0.839478,0.039063,0.123535,-0.518784,1.098288,-0.279099
-0.884277,-0.007324,0.128418,-0.382430,1.122789,-0.304666
-0.894775,-0.043213,0.134277,-0.161920,1.071656,-0.349407
-0.896240,-0.066528,0.152466,0.093743,1.064200,-0.486826
-0.948364,0.024658,0.198364,0.338754,1.111071,-0.602940
-0.995117,0.080322,0.225952,0.367516,1.190966,-0.695618
-1.029297,0.125854,0.241699,0.298274,1.260208,-0.756338
-1.075195,0.159790,0.251343,0.177899,1.277253,-0.813862
-1.090576,0.182861,0.258057,0.057524,1.237838,-0.837298
-1.088135,0.180176,0.263428,0.014914,1.171791,-0.784035
-1.101929,0.157227,0.255615,0.068177,1.067395,-0.715858
-1.108032,0.135376,0.238037,0.214118,0.933172,-0.646616
-1.179321,0.082153,0.194580,0.490022,0.772317,-0.552872
-1.336670,0.027222,0.146118,1.029046,0.435693,-0.422910
-1.475220,0.078857,0.174316,1.367800,0.196009,-0.292948
-1.447144,0.173218,0.225708,1.772601,-0.125701,-0.229032
-1.349854,0.336182,0.216187,1.719337,-0.416519,-0.209857
-1.210693,0.287842,0.192139,1.161139,-0.654073,-0.075634
-1.034546,0.157593,0.222168,0.635963,-0.763795,0.145941
-0.924194,0.122925,0.286987,0.372843,-0.698814,0.346211
-0.990967,0.063843,0.332886,0.421845,-0.583765,0.480434
-1.067139,-0.047241,0.310425,0.770186,-0.576308,0.604005
-1.079346,-0.090210,0.241577,1.141964,-0.781904,0.811732
-1.089111,-0.130981,0.146851,1.604289,-0.945955,0.909736
-1.094604,-0.080566,0.083740,1.787514,-1.071656,1.027981
-1.094116,-0.015259,0.034058,1.786449,-1.131311,1.133442
-1.175415,0.011230,0.020020,1.636247,-1.118528,1.152617
-1.254761,0.005615,-0.008667,1.574461,-1.124920,1.199488
-1.223511,0.030151,-0.047852,1.529720,-1.124920,1.259143
-1.152588,0.039429,-0.081665,1.475392,-1.099353,1.274057
-1.092407,0.050415,-0.102539,1.405084,-1.054612,1.235707
-1.078613,0.049072,-0.101196,1.276187,-0.981109,1.170726
-1.076172,0.042480,-0.034912,1.030111,-0.784035,1.040764
-1.055542,0.034790,-0.007568,0.884170,-0.629572,0.898018
-1.014404,0.041382,0.002563,0.765925,-0.512392,0.729706
-0.958374,0.047119,-0.002563,0.672182,-0.469782,0.583765
-0.909790,0.041016,0.000000,0.600809,-0.477239,0.476173
-0.864990,0.041870,0.009644,0.542220,-0.487891,0.395213
-0.830566,0.042114,0.017822,0.502805,-0.485761,0.317449
-0.810059,0.043335,0.022827,0.479369,-0.460194,0.239685
-0.791504,0.037476,0.024048,0.449542,-0.418649,0.141680
-0.793579,0.033569,0.018555,0.407996,-0.346211,-0.019175
-0.835449,0.013550,0.012207,0.340885,-0.296144,-0.144876
-0.869385,-0.018555,0.014526,0.372843,-0.236489,-0.335558
-0.922729,-0.025391,0.017822,0.513458,-0.178964,-0.579504
-0.994507,-0.031372,0.036865,0.924650,-0.126767,-0.796818
-1.042603,-0.013428,0.047974,1.647965,-0.057524,-0.923585
-1.101685,0.077881,0.034546,2.474610,0.004261,-0.945955
-1.145630,0.196045,0.007935,3.201121,0.001065,-0.887366
-1.172852,0.312622,-0.030396,3.692208,-0.059655,-0.826646
-1.232422,0.396851,-0.082275,3.865846,-0.173638,-0.780839
-1.332642,0.447632,-0.101440,3.597399,-0.423975,-0.810667
-1.375977,0.521118,-0.088989,3.131879,-0.595483,-0.886300
-1.324219,0.564941,-0.062500,2.491655,-0.757403,-0.994957
-1.192505,0.562134,-0.021240,1.843974,-0.863930,-1.075917
-1.015625,0.516846,0.017700,1.280448,-0.887366,-1.097223
-0.861084,0.449951,0.041016,0.869256,-0.866060,-1.063134
-0.743286,0.360962,0.052490,0.690292,-0.818123,-1.005610
-0.672852,0.297119,0.047363,0.679639,-0.769121,-0.965130
-0.660034,0.266602,0.038940,0.698814,-0.725445,-0.960869
-0.695435,0.269531,0.055786,0.588026,-0.627441,-0.998153
-0.832520,0.290405,0.099121,0.409062,-0.541155,-1.012002
-0.952393,0.261230,0.087280,0.247141,-0.501740,-1.035437
-1.035645,0.241699,0.081543,0.115049,-0.496413,-1.080179
-1.072510,0.246338,0.124634,0.003196,-0.439954,-1.090831
-1.100586,0.245972,0.163208,-0.039415,-0.343015,-1.009871
-1.109131,0.233398,0.214966,-0.040480,-0.210922,-0.835168
-1.093872,0.175659,0.248779,0.098004,-0.098004,-0.559264
-1.024658,0.114380,0.265015,0.340885,-0.022371,-0.256729
-0.933716,0.089355,0.281616,0.613593,0.037284,0.071373
-0.881958,0.070801,0.298340,0.923585,0.066046,0.477239
-0.845703,0.038574,0.300049,0.989631,0.040480,0.600809
-0.838745,0.020386,0.298462,1.031176,-0.017044,0.771252
-0.816040,-0.012939,0.284912,1.092962,-0.091613,0.876713
-0.777222,-0.008301,0.259399,1.108941,-0.128897,0.841559
-0.760620,-0.022339,0.248535,1.039698,-0.202400,0.740359
-0.760620,-0.024048,0.265747,1.134507,-0.280165,0.622115
-0.763062,0.013672,0.293701,1.209076,-0.274838,0.482565
-0.762695,0.036133,0.310425,1.202684,-0.161920,0.330232
-0.792114,0.044434,0.302856,1.068461,0.061785,0.090548
-0.837769,0.045776,0.325073,0.910801,0.199205,-0.093743
-0.865112,0.063843,0.336304,0.769121,0.321710,-0.272708
-0.879272,0.081543,0.324463,0.642355,0.392017,-0.423975
-0.888550,0.095337,0.298584,0.527306,0.401605,-0.547546
-0.916382,0.101685,0.267578,0.430367,0.364321,-0.637028
-0.967651,0.099731,0.231079,0.383495,0.300405,-0.677508
-1.043823,0.101929,0.200928,0.378169,0.225836,-0.682835
-1.143799,0.119263,0.170288,0.353668,0.171508,-0.661529
-1.287964,0.168457,0.169434,0.177899,0.151268,-0.662595
-1.434692,0.250000,0.234741,-0.167247,0.026632,-0.641289
-1.523926,0.331665,0.217407,-0.396279,-0.077764,-0.495348
-1.412720,0.267578,0.193115,-0.511327,-0.147007,-0.180030
-1.217041,0.137451,0.222046,-0.372843,-0.135289,0.165116
-1.021484,0.034668,0.270752,0.043676,-0.045806,0.441020
-0.901367,0.012939,0.278442,0.556068,0.026632,0.593353
-0.850830,0.049683,0.251709,0.971522,0.013848,0.678574
-0.850220,0.096924,0.225952,1.170726,-0.071373,0.715858
-0.866333,0.138184,0.201904,1.165400,-0.200270,0.720119
-0.882935,0.162598,0.163574,0.899084,-0.410127,0.665791
-0.930908,0.159546,0.086060,0.641289,-0.543285,0.594418
-0.972534,0.132690,0.046631,0.393083,-0.648746,0.480434
-1.003662,0.103638,0.021606,0.227967,-0.695618,0.340885
-1.028687,0.079102,0.003418,0.183226,-0.676443,0.194943
-1.055420,0.068970,-0.012329,0.258859,-0.608266,0.080960
-1.068726,0.057495,-0.021973,0.427171,-0.518784,0.018110
-1.063721,0.044067,-0.021606,0.664725,-0.421845,0.006392
-1.040161,0.039795,-0.014160,0.948086,-0.320645,0.039415
-1.005859,0.050903,-0.006104,1.211206,-0.225836,0.095874
-0.965698,0.082764,-0.010498,1.422129,-0.133158,0.181095
-0.911133,0.136963,-0.022217,1.405084,-0.109722,0.224771
-0.890259,0.186768,-0.015747,1.204815,-0.127832,0.238619
-0.889160,0.217041,0.007446,0.895888,-0.157659,0.240750
-0.880249,0.205566,0.032104,0.536893,-0.169377,0.209857
-0.862061,0.202026,0.038818,0.194943,-0.129962,0.124636
-0.878418,0.171509,0.035767,-0.101200,-0.041545,0.125701
-0.901123,0.108643,0.039551,-0.296144,0.067112,0.117179
-0.918091,0.045532,0.057373,-0.366451,0.182160,-0.023436
-0.932373,0.010010,0.075684,-0.269512,0.369647,-0.383495
-0.969849,-0.006348,0.089233,-0.149137,0.479369,-0.661529
-1.011108,0.021362,0.098022,-0.061785,0.556068,-0.939564
-1.053345,0.056396,0.108154,-0.034088,0.599744,-1.203749
-1.133057,0.082886,0.107788,-0.063916,0.618919,-1.462609
-1.301270,0.125488,0.131104,-0.191748,0.639159,-1.729990
-1.467041,0.194702,0.169922,-0.338754,0.630637,-1.857822
-1.461060,0.262573,0.186157,-0.455933,0.601875,-1.760883
-1.373047,0.291748,0.208618,-0.573112,0.615723,-1.556352
-1.325195,0.301270,0.256104,-0.630637,0.649812,-1.087635
-1.263428,0.253296,0.333130,-0.479369,0.615723,-0.705205
-1.057495,0.102417,0.339233,-0.169377,0.445281,-0.382430
-0.875854,0.072021,0.296387,0.127832,0.191748,-0.104396
-0.754150,0.042358,0.221069,0.264186,-0.015979,0.079895
-0.732788,0.030151,0.159424,0.470847,-0.167247,0.155529
-0.771240,0.050781,0.106445,0.722250,-0.319579,0.243946
-0.788086,0.042358,0.083008,0.998153,-0.481500,0.412258
-0.792358,0.011719,0.074585,1.359278,-0.610397,0.555003
-0.803223,0.012085,0.072388,1.740643,-0.677508,0.588026
-0.817993,0.078735,0.071411,2.029330,-0.650877,0.464455
-0.858154,0.187378,0.070190,1.925999,-0.570982,0.344081
-0.865845,0.221191,0.085693,1.654356,-0.456999,0.239685
-0.849121,0.234253,0.112549,1.292166,-0.298274,0.170442
-0.840698,0.221069,0.197632,0.894822,-0.066046,0.161920
-0.860962,0.171265,0.230835,0.600809,0.140615,0.201335
-0.862671,0.172729,0.232056,0.209857,0.272708,0.234358
-0.872559,0.155762,0.266602,-0.279099,0.353668,0.292948
-0.873047,0.089111,0.265015,-0.451672,0.388822,0.364321
-0.884399,0.052612,0.261719,-0.498544,0.420780,0.328102
-0.928955,0.039795,0.288452,-0.474043,0.406931,0.490022
-0.934937,-0.060791,0.285889,-0.439954,0.305731,0.356864
-0.926880,-0.031860,0.270020,-0.414388,0.193878,0.250337
-0.899780,-0.022095,0.246948,-0.387756,0.121440,0.270577
-0.869263,-0.040527,0.229736,-0.272708,0.092678,0.241815
-0.895142,-0.056030,0.218262,-0.055394,0.123571,0.139550
-0.983765,-0.022339,0.224487,0.139550,0.162986,-0.031958
-1.023315,0.021606,0.209351,0.213053,0.165116,-0.178964
-1.030640,0.078003,0.179199,0.231162,0.176834,-0.292948
-1.080078,0.120361,0.141846,0.171508,0.138484,-0.409062
-1.243530,0.138062,0.071777,0.121440,0.054329,-0.432498
-1.397217,0.117188,0.044312,0.105461,-0.050067,-0.418649
-1.494751,0.114136,0.061035,0.119310,-0.121440,-0.314253
-1.490112,0.134521,0.099854,0.169377,-0.115049,-0.143811
-1.407715,0.161499,0.110596,0.224771,-0.075634,0.043676
-1.322144,0.179077,0.102905,0.253533,-0.035154,0.241815
-1.205566,0.185913,0.109497,0.210922,-0.015979,0.483630
-1.051880,0.175171,0.129639,0.072438,-0.003196,0.741424
-0.970215,0.132324,0.150635,-0.025566,-0.030893,1.043960
-0.987671,0.038452,0.156372,-0.058590,-0.180030,1.116398
-1.080444,0.017700,0.130859,-0.013848,-0.394148,1.132377
-1.121826,0.009155,0.087280,0.071373,-0.678574,1.133442
-1.170776,-0.009155,0.051392,0.155529,-0.970456,1.133442
-1.189087,-0.044922,0.021240,0.263120,-1.239968,1.136638
-1.139771,-0.062744,-0.018799,0.354733,-1.429585,1.107875
-1.100952,-0.051880,-0.057739,0.416519,-1.540373,1.042894
-1.090454,-0.059326,-0.073853,0.523045,-1.603224,0.973652
-1.050659,-0.058960,-0.080933,0.719054,-1.578723,0.878844
-1.013428,-0.075317,-0.079468,1.104680,-1.356082,0.699879
-0.947754,-0.072876,-0.069458,1.385910,-1.122789,0.542220
-0.910522,-0.040894,-0.056152,1.580853,-0.854342,0.385626
-0.877808,-0.008789,-0.036255,1.647965,-0.582700,0.241815
-0.858887,0.019043,-0.019287,1.591506,-0.357929,0.085221
-0.860718,0.058350,-0.006958,1.410411,-0.209857,-0.102265
-0.868286,0.104858,0.012573,1.107875,-0.135289,-0.308927
-0.862915,0.133911,0.033203,0.786165,-0.111853,-0.483630
-0.845947,0.136719,0.036743,0.501740,-0.119310,-0.612527
-0.838257,0.108887,0.029785,0.318514,-0.144876,-0.754208
-0.843140,0.050781,0.024780,0.366451,-0.181095,-0.852212
-0.867554,0.023315,0.018311,0.613593,-0.184291,-0.957673
-0.908081,0.007324,0.003662,1.016263,-0.167247,-1.110006
-0.969727,0.071167,0.008301,1.340103,-0.113983,-1.313472
-1.017090,0.194946,0.055420,1.365670,-0.056459,-1.396562
-1.037476,0.252075,0.070801,1.479653,-0.059655,-1.300688
-1.094482,0.128662,0.037109,2.357431,-0.201335,-1.048221
-1.152954,0.101196,0.032227,4.007526,-0.295078,-0.851147
-1.223389,0.396851,-0.062134,5.208080,-0.272708,-0.805340
-1.240967,0.669434,-0.143555,5.148425,-0.266316,-0.485761
-1.224854,0.828125,-0.237183,4.512462,-0.376038,-0.264186
-1.267944,0.830200,-0.233276,3.755059,-0.545416,-0.183226
-1.306763,0.777832,-0.201904,3.045592,-0.723315,-0.184291
-1.217407,0.666016,-0.155640,2.432000,-0.791492,-0.185356
-1.071777,0.575317,-0.064575,1.944108,-0.712662,-0.173638
-0.971680,0.489258,0.034912,1.558483,-0.561395,-0.107592
-0.928955,0.437744,0.099976,1.219728,-0.460194,-0.049002
-0.855957,0.377686,0.119385,0.923585,-0.456999,0.000000
-0.758911,0.336914,0.109375,0.624245,-0.794688,0.062851
-0.656494,0.185791,0.088867,0.340885,-0.642355,0.101200
-0.707275,0.068604,0.112671,0.394148,-0.668986,0.086286
-0.806885,-0.016602,0.111084,0.611462,-0.708401,0.044741
-0.880493,0.007568,0.088135,0.841559,-0.790427,-0.028762
-0.916260,0.072632,0.041260,0.954477,-0.909736,-0.066046
-0.936035,0.138794,-0.000122,0.929976,-1.027981,-0.157659
-0.942993,0.218262,0.027588,0.763795,-1.034372,-0.254598
-0.962036,0.294922,0.165649,0.369647,-0.818123,-0.314253
-0.975342,0.276489,0.259521,-0.132093,-0.517719,-0.284426
-0.953369,0.162354,0.265625,-0.551807,-0.288687,-0.292948
-0.885010,0.005127,0.186646,-0.395213,-0.367516,-0.384561
-0.807373,-0.050781,0.173828,-0.009587,-0.448477,-0.516653
-0.717896,-0.052734,0.206055,0.446346,-0.469782,-0.657268
-0.672119,-0.022583,0.230591,0.890561,-0.398409,-0.713727
-0.686035,0.016235,0.224243,1.237838,-0.287622,-0.736098
-0.725098,0.050049,0.218506,1.441303,-0.171508,-0.647681
-0.762573,0.050659,0.211304,1.597897,-0.091613,-0.686031
-0.798950,0.093994,0.194336,1.676727,-0.052198,-0.723315
-0.806763,0.134399,0.195923,1.674596,-0.002131,-0.778709
-0.804443,0.181396,0.182617,1.559548,0.039415,-0.826646
-0.828247,0.208984,0.154907,1.451956,0.076699,-0.870321
-0.876099,0.225220,0.136353,1.358213,0.118244,-0.895888
-0.950806,0.245239,0.131104,1.269796,0.178964,-0.917193
-1.012695,0.281738,0.150146,1.162204,0.275904,-0.903345
-1.072510,0.302856,0.150024,1.063134,0.383495,-0.859669
-1.125488,0.340576,0.139160,0.920389,0.481500,-0.813862
-1.212769,0.366821,0.132446,0.775513,0.588026,-0.761664
-1.359863,0.381226,0.150635,0.632767,0.688161,-0.678574
-1.438232,0.380615,0.187012,0.471912,0.831972,-0.409062
-1.473511,0.376953,0.248535,0.358994,0.923585,-0.266316
-1.436768,0.402832,0.282837,0.320645,0.903345,-0.094809
-1.278809,0.424438,0.269043,0.199205,0.786165,0.138484
-1.103027,0.360474,0.285889,-0.030893,0.671117,0.392017
-0.968994,0.250244,0.348877,-0.132093,0.560329,0.624245
-0.879272,0.148804,0.363281,-0.033023,0.388822,0.780839
-0.831421,0.095825,0.295654,0.202400,0.152333,0.892692
-0.858643,0.107056,0.173828,0.402670,-0.117179,0.910801
-0.968018,0.163818,0.067139,0.444215,-0.619984,0.942759
-1.159180,0.203979,0.036499,0.165116,-1.038633,1.069526
-1.285645,0.144165,0.039429,0.036219,-1.406150,1.257013
-1.337036,0.039795,0.026245,0.124636,-1.642638,1.383779
-1.261841,-0.020386,-0.035645,0.333428,-1.679923,1.451956
-1.201416,-0.010986,-0.079468,0.289752,-1.612811,1.353952
-1.142090,-0.186157,-0.129395,0.723315,-1.552091,1.355017
-0.992310,-0.288330,-0.149536,1.405084,-1.382714,1.168596
-0.883545,-0.262085,-0.144653,2.130530,-1.146225,0.847951
-0.839478,-0.235962,-0.133911,2.849584,-0.898018,0.516653
-0.794556,-0.197754,-0.137329,3.634684,-0.550742,0.148072
-0.772583,-0.041382,-0.155151,3.718840,-0.402670,0.020240
-0.804199,0.066162,-0.137451,3.473829,-0.312123,-0.137419
-0.873535,0.149292,-0.110107,2.989133,-0.281230,-0.291883
-0.931030,0.204590,-0.092285,2.351040,-0.311057,-0.421845
-0.981201,0.212280,-0.081665,1.655422,-0.389887,-0.570982
-1.024902,0.206421,-0.071045,1.032242,-0.493218,-0.732902
-1.012207,0.186401,-0.058838,0.582700,-0.580569,-0.840494
-0.979736,0.091797,-0.048950,0.357929,-0.610397,-0.878844
-0.997437,-0.009155,-0.048096,0.504936,-0.611462,-1.056743
-1.100830,0.039063,-0.099365,0.883105,-0.628506,-1.241034
-1.167725,0.120483,-0.099609,0.967261,-0.608266,-1.431716
-1.194214,0.206909,-0.077026,0.936368,-0.528371,-1.531851
-1.185669,0.296021,-0.094604,0.845820,-0.451672,-1.561678
-1.169678,0.354370,-0.135376,0.702010,-0.423975,-1.509480
-1.116333,0.390625,-0.156494,0.573112,-0.410127,-1.401889
-1.044067,0.405151,-0.144775,0.487891,-0.338754,-1.246360
-0.987427,0.372681,-0.099609,0.477239,-0.187487,-1.034372
-0.950073,0.312866,-0.040649,0.577374,0.011718,-0.820254
-0.935181,0.283936,0.006836,0.907606,0.240750,-0.577374
-0.944824,0.269653,0.038574,1.146225,0.275904,-0.495348
-0.956421,0.280762,0.031860,1.293232,0.217314,-0.446346
-0.985718,0.295288,0.019531,1.342234,0.086286,-0.449542
-1.019653,0.310547,0.000977,1.333712,-0.096939,-0.469782
-1.048584,0.313843,-0.019287,1.307080,-0.291883,-0.530502
-1.063110,0.319580,-0.028687,1.278318,-0.442085,-0.589091
-1.061890,0.298584,-0.028076,1.294297,-0.500674,-0.624245
-1.075073,0.266846,-0.034058,1.399758,-0.474043,-0.617854
-1.112305,0.241333,-0.043701,1.532916,-0.367516,-0.602940
-1.195923,0.220581,-0.059937,1.792841,-0.312123,-0.622115
-1.266968,0.236206,-0.055054,1.936652,-0.246076,-0.650877
-1.406128,0.247681,0.017944,1.951565,-0.139550,-0.673247
-1.601074,0.191284,-0.033081,2.103898,-0.184291,-0.672182
-1.650269,0.214966,-0.093262,2.291385,-0.389887,-0.706271
-1.244507,0.247070,-0.043091,2.327604,-0.387756,-0.607201
-0.791992,0.270752,0.119751,2.091115,-0.001065,-0.471912
-0.501465,0.395630,0.315796,1.353952,0.621049,-0.288687
-0.541748,0.406372,0.520020,0.332363,1.270861,-0.152333
-0.711914,0.276978,0.685547,-0.858603,1.530786,-0.083091
-0.851318,-0.017212,0.572144,-1.040764,1.149421,-0.026632
-0.901733,-0.241089,0.383667,-0.747816,0.683900,0.023436
-0.917847,-0.265625,0.193726,-0.409062,0.237554,-0.040480
-0.942017,-0.192627,0.111328,-0.183226,-0.156594,-0.140615
-0.996216,-0.109497,0.169800,-0.017044,-0.602940,-0.121440
-1.047607,-0.041382,0.200439,0.211988,-1.164335,0.022371
-0.999756,0.056396,0.177124,0.406931,-1.495632,0.190682
-0.891846,0.058105,0.158936,0.504936,-1.380583,0.362190
-0.859619,-0.004883,0.171997,0.639159,-0.792557,0.393083
-0.885254,-0.021240,0.210083,0.857538,-0.325971,0.460194
-0.883545,0.005371,0.208740,0.918258,0.057524,0.511327
-0.881836,0.006104,0.176392,0.836233,0.255664,0.480434
-0.876587,-0.003052,0.150757,0.670052,0.289752,0.419714
-0.877075,0.026855,0.145630,0.478304,0.237554,0.300405
-0.911377,0.104370,0.146851,0.210922,0.151268,0.190682
-0.947632,0.120850,0.148193,-0.119310,0.036219,0.210922
-0.914917,0.120483,0.130859,-0.406931,-0.068177,0.174703
-0.881958,0.097534,0.118652,-0.639159,-0.102265,0.109722
-0.880981,0.049316,0.137817,-0.764860,0.008522,0.073503
-0.901367,0.016602,0.171143,-0.713727,0.115049,0.046872
-0.909912,0.014282,0.165039,-0.627441,0.200270,0.019175
-0.944702,0.012207,0.161865,-0.568851,0.233293,0.034088
-0.957886,0.012085,0.177002,-0.566721,0.231162,0.101200
-0.934326,-0.053223,0.198364,-0.506001,0.220510,0.207727
-0.889893,-0.128540,0.186157,-0.312123,0.176834,0.282295
-0.846680,-0.163574,0.171265,-0.057524,0.121440,0.286556
-0.852783,-0.159058,0.155273,0.215184,0.050067,0.236489
-0.866455,-0.142700,0.130859,0.425041,-0.038350,0.177899
-0.922363,-0.109863,0.112915,0.647681,-0.022371,0.083091
-1.033447,-0.027100,0.085083,0.688161,0.004261,-0.052198
-1.136230,0.030640,0.067993,0.610397,0.029827,-0.125701
-1.197998,0.030029,0.048218,0.566721,0.037284,-0.127832
-1.237549,0.003052,-0.001221,0.605070,0.024501,-0.117179
-1.335571,-0.020142,-0.012329,0.709466,0.030893,-0.142745
-1.412476,-0.006714,0.022461,0.884170,0.069242,-0.161920
-1.387817,0.014893,0.080811,1.050351,0.177899,-0.123571
-1.242798,0.028198,0.118408,1.210141,0.300405,-0.063916
-1.065186,0.077026,0.179443,1.271926,0.482565,0.014914
-0.884033,0.136353,0.210327,1.167530,0.540089,0.083091
-0.878296,0.116577,0.251221,1.007741,0.560329,0.145941
-0.926147,0.099243,0.269409,0.838363,0.491087,0.145941
-0.973022,0.072510,0.242310,0.719054,0.316384,0.153398
-1.011841,0.033569,0.183838,0.633833,0.085221,0.256729
-1.075439,0.020630,0.131470,0.547546,-0.210922,0.331297
-1.120972,-0.004150,0.067261,0.490022,-0.530502,0.414388
-1.169067,-0.084717,0.029541,0.480434,-0.800014,0.531567
-1.184814,-0.145996,0.020142,0.670052,-0.922519,0.675378
-1.114624,-0.150391,0.065063,0.864995,-0.773382,0.690292
-1.081055,-0.188110,0.095215,1.164335,-0.516653,0.672182
-1.056396,-0.217651,0.099121,1.482849,-0.257794,0.638094
-1.031616,-0.192627,0.094971,1.691641,-0.085221,0.569917
-1.032104,-0.160645,0.096313,1.772601,-0.039415,0.464455
-1.026611,-0.119751,0.085449,1.758752,-0.137419,0.355798
-1.016968,-0.115234,0.074219,1.823733,-0.345146,0.311057
-0.999634,-0.166870,0.109863,2.172075,-0.540089,0.274838
-1.018677,-0.195190,0.118530,2.710034,-0.664725,0.155529
-1.059082,-0.149048,0.048218,3.382216,-0.814928,0.003196
-1.175049,-0.144897,-0.003052,3.936154,-0.898018,-0.019175
-1.245605,-0.159180,-0.017334,4.560399,-0.917193,-0.034088
-1.187866,-0.110352,-0.000854,5.111141,-0.877778,-0.031958
-1.059082,-0.047974,-0.071655,5.395566,-0.859669,-0.023436
-1.062378,0.115112,-0.132935,5.233646,-0.919324,-0.123571
-1.103027,0.302979,-0.166138,4.682904,-1.096158,-0.171508
-1.043213,0.343750,-0.143188,4.154533,-1.253817,-0.006392
-1.027100,0.284668,-0.123901,3.731623,-1.357147,0.133158
-1.046631,0.220459,-0.109009,3.377955,-1.416802,0.183226
-1.022827,0.176514,-0.129761,3.138270,-1.393366,0.252468
-1.010620,0.151367,-0.123901,3.028548,-1.290036,0.381365
-1.058960,0.127319,-0.145630,3.047723,-1.193097,0.511327
-1.089111,0.105713,-0.166992,3.096725,-1.110006,0.605070
-1.147461,0.106934,-0.170044,3.219230,-1.022654,0.646616
-1.253662,0.125732,-0.188477,3.235209,-0.990696,0.662595
-1.235107,0.121094,-0.169067,3.230948,-0.948086,0.713727
-1.078491,0.083130,-0.153076,3.386477,-0.838363,0.790427
-0.940186,0.155151,-0.136963,3.415239,-0.735033,0.753142
-0.820190,0.246582,-0.125977,3.237340,-0.674313,0.691357
-0.714844,0.396362,-0.175293,2.835735,-0.757403,0.645550
-0.735474,0.475464,-0.174316,2.341452,-0.888431,0.511327
-0.731567,0.484253,-0.173340,1.932390,-0.982174,0.426106
-0.720947,0.508911,-0.167847,1.537177,-0.976848,0.331297
-0.697021,0.500977,-0.172729,1.294297,-0.867126,0.324906
-0.702759,0.496826,-0.156372,1.152617,-0.710532,0.314253
-0.731201,0.493164,-0.152100,1.046090,-0.579504,0.356864
-0.746582,0.460693,-0.179321,0.952347,-0.498544,0.402670
-0.758423,0.422485,-0.172363,0.955543,-0.353668,0.378169
-0.783081,0.480957,-0.111206,0.936368,-0.222640,0.300405
-0.792114,0.539917,-0.077881,0.829841,-0.129962,0.269512
-0.775024,0.563843,-0.083374,0.618919,-0.122505,0.301470
-0.717041,0.502808,-0.083984,0.552872,-0.137419,0.313188
-0.682739,0.468018,-0.046997,0.634898,-0.126767,0.254598
-0.694092,0.527710,-0.025879,0.664725,-0.159790,0.152333
-0.697510,0.531860,-0.036377,0.687096,-0.221575,0.151268
-0.693970,0.526978,-0.072144,0.664725,-0.298274,0.139550
-0.666992,0.553101,-0.100830,0.540089,-0.397344,0.069242
-0.618652,0.564575,-0.122437,0.136354,-0.526241,-0.037284
-0.617676,0.534912,-0.078979,-0.025566,-0.564590,-0.133158
-0.699829,0.551514,-0.014160,0.007457,-0.572047,-0.268447
-0.752686,0.557617,-0.015137,0.172573,-0.574178,-0.362190
-0.778320,0.545166,-0.008179,0.184291,-0.640224,-0.420780
-0.767700,0.544556,-0.002686,0.208792,-0.617854,-0.464455
-0.776978,0.602539,-0.028564,0.315318,-0.526241,-0.425041
-0.819824,0.632812,-0.059692,0.376038,-0.446346,-0.353668
-0.836426,0.635986,-0.067749,0.373908,-0.348342,-0.287622
-0.850708,0.573608,-0.071655,0.532632,-0.142745,-0.178964
-0.993652,0.524536,-0.064331,0.622115,-0.030893,-0.156594
-1.103271,0.542114,-0.059082,0.600809,0.007457,-0.137419
-1.080933,0.511108,-0.065063,0.523045,-0.002131,-0.095874
-0.959351,0.457886,-0.070068,0.476173,-0.002131,-0.083091
-0.900513,0.435669,-0.068237,0.464455,0.005326,-0.092678
-0.909058,0.399170,-0.074341,0.490022,0.022371,-0.099070
-0.985229,0.362427,-0.041260,0.588026,0.060720,-0.122505
-0.961548,0.397949,-0.004272,0.619984,0.087352,-0.168312
-0.882202,0.393433,-0.007202,0.597614,0.071373,-0.161920
-0.827026,0.381836,-0.060913,0.588026,-0.038350,-0.144876
-0.825073,0.376831,-0.100586,0.520915,-0.133158,-0.108657
-0.900024,0.373047,-0.117188,0.428236,-0.201335,-0.088417
-0.978394,0.356201,-0.100708,0.348342,-0.215184,-0.061785
-1.014160,0.317993,-0.077881,0.348342,-0.132093,-0.001065
-1.052246,0.245728,-0.079468,0.482565,0.005326,0.099070
-1.118042,0.247681,-0.060669,0.586961,0.120375,0.139550
-1.113647,0.277710,-0.036865,0.642355,0.189617,0.175769
-1.057861,0.295166,-0.011597,0.642355,0.219445,0.194943
-1.039063,0.302979,0.021362,0.645550,0.169377,0.147007
-0.977417,0.302979,0.016357,0.687096,0.070307,0.128897
-0.914185,0.293579,-0.025757,0.788296,-0.046872,0.138484
-0.860474,0.312988,-0.088745,0.925715,-0.169377,0.137419
-0.825684,0.381714,-0.145630,1.005610,-0.275904,0.112918
-0.787231,0.427368,-0.185425,0.998153,-0.312123,0.142745
-0.764648,0.465820,-0.219849,0.960869,-0.280165,0.203466
-0.757446,0.500366,-0.225708,0.837298,-0.189617,0.272708
-0.746948,0.510132,-0.232544,0.650877,-0.078830,0.347276
-0.712402,0.498901,-0.230469,0.417584,0.013848,0.386691
-0.646362,0.496826,-0.206909,0.123571,0.098004,0.379234
-0.600586,0.500244,-0.157593,0.005326,0.136354,0.379234
-0.742310,0.453125,-0.131104,0.084156,0.123571,0.413323
-0.960205,0.415894,-0.122437,0.318514,0.022371,0.402670
-1.139648,0.394531,-0.163574,0.533698,-0.201335,0.351537
-1.193481,0.466187,-0.148926,0.651942,-0.411192,0.233293
-1.115601,0.513184,-0.150513,0.746751,-0.548611,0.209857
-1.046265,0.507690,-0.179443,0.810667,-0.643420,0.241815
-1.008179,0.491211,-0.191162,0.861799,-0.707336,0.250337
-0.988037,0.484009,-0.164917,0.921454,-0.672182,0.238619
-0.994751,0.490967,-0.157471,0.918258,-0.633833,0.232228
-1.052246,0.448364,-0.177124,0.912932,-0.673247,0.200270
-1.107422,0.457886,-0.172974,0.886300,-0.774448,0.093743
-1.116577,0.467407,-0.157959,0.842625,-0.874582,0.005326
-1.093994,0.487549,-0.145996,0.790427,-0.945955,-0.059655
-1.004395,0.512451,-0.137817,0.738229,-0.976848,-0.062851
-0.889282,0.509033,-0.123047,0.706271,-0.949151,0.007457
-0.788208,0.485474,-0.118652,0.727576,-0.879909,0.121440
-0.698608,0.468628,-0.128174,0.795753,-0.794688,0.248207
-0.646973,0.437744,-0.163818,0.796818,-0.693487,0.265251
-0.725952,0.490356,-0.158936,0.687096,-0.639159,0.204531
-0.798218,0.517334,-0.158691,0.468717,-0.595483,0.178964
-0.833252,0.512695,-0.159302,0.235424,-0.521980,0.149137
-0.872803,0.520508,-0.143921,0.064981,-0.420780,0.128897
-0.863037,0.506226,-0.116333,-0.031958,-0.311057,0.173638
-0.831055,0.461548,-0.107178,-0.008522,-0.233293,0.249272
-0.832275,0.437500,-0.125977,-0.106526,-0.253533,0.327036
-0.835815,0.431274,-0.101929,-0.286556,-0.344081,0.435693
-0.835571,0.440918,-0.053955,-0.049002,-0.373908,0.472978
-0.738037,0.397095,-0.043457,0.388822,-0.315318,0.426106
-0.663330,0.411011,-0.074219,0.658334,-0.231162,0.298274
-0.623901,0.446655,-0.086304,0.710532,-0.150202,0.208792
-0.595215,0.485596,-0.081909,0.575243,-0.070307,0.132093
-0.580322,0.500610,-0.067261,0.396279,0.003196,0.045806
-0.584717,0.479492,-0.062012,0.303600,0.054329,-0.058590
-0.600342,0.471680,-0.056519,0.258859,0.078830,-0.172573
-0.606445,0.487915,-0.052124,0.190682,0.091613,-0.260990
-0.620361,0.509399,-0.058472,0.095874,0.089482,-0.316384
-0.642578,0.549438,-0.060913,-0.005326,0.062851,-0.356864
-0.673096,0.582031,-0.027954,-0.008522,0.069242,-0.410127
-0.692871,0.639038,0.032349,0.083091,0.125701,-0.480434
-0.713135,0.722900,0.073975,0.192813,0.169377,-0.514523
-0.738037,0.747559,0.036621,0.316384,0.127832,-0.449542
-0.791870,0.720459,-0.053101,0.297209,0.006392,-0.352603
-0.897583,0.696533,-0.103882,0.131028,-0.135289,-0.295078
-0.975708,0.677246,-0.112427,-0.036219,-0.257794,-0.231162
-0.946533,0.609497,-0.105469,-0.175769,-0.268447,-0.124636
-0.909546,0.488525,-0.072510,-0.051133,-0.034088,0.007457
-0.902832,0.366211,-0.088623,0.174703,0.131028,0.051133
-0.973267,0.332275,-0.123779,0.362190,0.172573,0.015979
-1.066650,0.349487,-0.122314,0.497479,0.096939,-0.120375
-1.084595,0.378174,-0.145630,0.531567,-0.047937,-0.265251
-1.080322,0.370728,-0.161011,0.503870,-0.215184,-0.406931
-1.020508,0.390137,-0.165283,0.482565,-0.323841,-0.533698
-0.950073,0.411987,-0.177490,0.446346,-0.351537,-0.614658
-0.913330,0.422241,-0.181396,0.429302,-0.317449,-0.673247
-0.886841,0.468018,-0.172729,0.370712,-0.248207,-0.758469
-0.839722,0.509155,-0.150269,0.162986,-0.085221,-0.773382
-0.802246,0.529175,-0.136353,0.046872,0.018110,-0.754208
-0.861328,0.554077,-0.102539,-0.098004,0.117179,-0.720119
-0.925171,0.554199,-0.078613,-0.227967,0.206661,-0.596548
-0.975220,0.529907,-0.069214,-0.355798,0.297209,-0.426106
-1.050781,0.489746,-0.076904,-0.368582,0.372843,-0.208792
-1.113770,0.461426,-0.079590,-0.360060,0.411192,0.013848
-1.125732,0.414185,-0.074829,-0.343015,0.430367,0.256729
-1.108032,0.361694,-0.062500,-0.341950,0.453803,0.465521
-1.076172,0.312988,-0.037842,-0.311057,0.518784,0.646616
-1.035889,0.258545,-0.006348,-0.294013,0.569917,0.666856
-0.997803,0.231201,-0.012207,-0.285491,0.594418,0.639159
-0.944580,0.212524,-0.048584,-0.330232,0.560329,0.568851
-0.876221,0.196899,-0.072632,-0.388822,0.493218,0.477239
-0.845093,0.233032,-0.040405,-0.475108,0.464455,0.338754
-0.865601,0.261597,0.015747,-0.477239,0.468717,0.238619
-0.901123,0.219238,0.012817,-0.362190,0.425041,0.210922
-0.935425,0.147461,-0.013184,-0.153398,0.297209,0.207727
-0.968018,0.141235,-0.029663,0.092678,0.005326,0.143811
-0.904907,0.203125,-0.020508,0.406931,-0.166181,0.120375
-0.838257,0.216675,-0.043823,0.560329,-0.311057,0.135289
-0.800171,0.225830,-0.075317,0.713727,-0.420780,0.121440
-0.794067,0.253174,-0.090454,0.833037,-0.496413,0.055394
-0.814575,0.288208,-0.097534,0.913997,-0.542220,-0.008522
-0.865112,0.315552,-0.116333,0.919324,-0.582700,-0.056459
-0.927979,0.326294,-0.146606,0.874582,-0.643420,-0.084156
-0.970825,0.339233,-0.168091,0.811732,-0.694553,-0.111853
-0.996094,0.373657,-0.158691,0.778709,-0.688161,-0.137419
-1.028687,0.396606,-0.130615,0.754208,-0.584830,-0.141680
-1.130005,0.439209,-0.099487,0.739294,-0.507066,-0.109722
-1.150757,0.486694,-0.077759,0.716923,-0.460194,-0.082025
-1.195923,0.502686,-0.103760,0.668986,-0.484696,-0.056459
-1.316406,0.509155,-0.109497,0.597614,-0.588026,-0.077764
-1.384766,0.534668,-0.076294,0.607201,-0.687096,-0.126767
-1.364990,0.532104,-0.070557,0.690292,-0.765925,-0.111853
-1.233521,0.525391,-0.069336,0.823450,-0.828776,-0.070307
-1.046631,0.572144,-0.062866,0.883105,-0.857538,-0.030893
-0.891724,0.630859,-0.037720,0.835168,-0.826646,0.091613
-0.749390,0.622681,-0.038086,0.665791,-0.771252,0.245011
-0.670776,0.560303,-0.065796,0.535828,-0.708401,0.401605
-0.687988,0.498413,-0.081299,0.413323,-0.664725,0.484696
-0.744751,0.450562,-0.077759,0.301470,-0.633833,0.567786
-0.794800,0.387329,-0.074219,0.215184,-0.608266,0.653007
-0.823120,0.311890,-0.081665,0.191748,-0.592287,0.694553
-0.827026,0.250122,-0.079102,0.267381,-0.560329,0.688161
-0.817749,0.216309,-0.072144,0.435693,-0.504936,0.657268
-0.779663,0.210449,-0.066406,0.595483,-0.418649,0.602940
-0.752563,0.225952,-0.043091,0.758469,-0.250337,0.480434
-0.749512,0.253052,-0.008545,0.838363,-0.175769,0.396279
-0.733521,0.255493,-0.013550,0.888431,-0.165116,0.294013
-0.700806,0.273438,-0.016602,0.926780,-0.202400,0.156594
-0.677246,0.301147,-0.014526,0.962999,-0.247141,0.041545
-0.670410,0.308228,-0.019287,0.984305,-0.283360,-0.023436
-0.676880,0.310303,-0.022583,1.001349,-0.295078,-0.041545
-0.695068,0.325073,0.004517,1.046090,-0.259925,-0.106526
-0.710083,0.337280,0.010742,1.079113,-0.210922,-0.150202
-0.706909,0.341675,0.009033,1.066330,-0.149137,-0.217314
-0.656372,0.391724,0.017700,1.005610,-0.094809,-0.288687
-0.649780,0.427368,0.020630,0.905475,-0.057524,-0.344081
-0.643555,0.482788,0.060425,0.756338,-0.013848,-0.450607
-0.661743,0.509277,0.094116,0.517719,0.020240,-0.564590
-0.761353,0.538818,0.139160,0.314253,0.047937,-0.711597
-0.853394,0.583008,0.198853,0.171508,0.010653,-0.823450
-0.860229,0.565674,0.145630,0.142745,-0.150202,-0.830907
-0.910889,0.489136,0.026245,0.292948,-0.354733,-0.804275
-1.048462,0.496582,-0.028809,0.521980,-0.577374,-0.784035
-1.159424,0.554443,-0.060425,0.841559,-0.903345,-0.584830
-1.358398,0.501465,-0.154541,1.088701,-1.004545,-0.386691
-1.528076,0.482544,-0.175659,1.327320,-1.037568,-0.206661
-1.428467,0.456665,-0.173218,1.610680,-0.957673,0.015979
-1.191040,0.384521,-0.179321,1.971805,-0.711597,0.207727
-1.089111,0.368286,-0.207764,2.145443,-0.447411,0.335558
-1.080811,0.386841,-0.200684,2.095376,-0.250337,0.388822
-1.016235,0.421631,-0.153320,1.801363,-0.099070,0.333428
-0.900146,0.443970,-0.070068,1.473261,0.083091,0.255664
-0.789307,0.380859,-0.005005,1.261274,0.284426,0.274838
-0.748291,0.340088,0.023560,0.950216,0.259925,0.170442
-0.826416,0.426758,0.047241,0.696683,0.210922,0.086286
-0.922363,0.433838,0.062012,0.441020,0.120375,0.145941
-0.943115,0.306763,0.044067,0.336624,-0.007457,0.290817
-0.961182,0.255737,0.040649,0.345146,-0.127832,0.340885
-1.038330,0.249268,0.038696,0.418649,-0.235424,0.411192
-1.135254,0.215332,0.067749,0.543285,-0.302535,0.520915
-1.156616,0.144409,0.082397,0.702010,-0.349407,0.535828
-1.119263,0.139893,0.087158,0.880974,-0.346211,0.504936
-1.094971,0.151733,0.088623,1.073787,-0.378169,0.425041
-1.039429,0.229736,0.045288,1.115332,-0.499609,0.339819
-0.985474,0.248657,-0.003296,1.091897,-0.677508,0.275904
-0.949585,0.246948,-0.043579,1.057808,-0.845820,0.160855
-0.949097,0.262939,-0.070312,1.019459,-0.990696,0.082025
-0.923340,0.256958,-0.106567,0.993892,-1.069526,0.030893
-0.894165,0.262573,-0.149780,0.966195,-1.104680,-0.042611
-0.860596,0.295166,-0.178589,0.854342,-1.101484,-0.137419
-0.815063,0.314453,-0.172852,0.635963,-1.038633,-0.232228
-0.782104,0.335571,-0.150635,0.075634,-0.842625,-0.420780
-0.792847,0.395874,-0.124512,-0.188552,-0.690292,-0.516653
-0.827148,0.407959,-0.069824,-0.418649,-0.517719,-0.569917
-0.890991,0.351318,-0.074463,-0.453803,-0.416519,-0.506001
-0.973022,0.286865,-0.104492,-0.235424,-0.427171,-0.455933
-1.085205,0.300171,-0.115967,0.101200,-0.517719,-0.441020
-1.173584,0.363037,-0.108154,0.382430,-0.653007,-0.437824
-1.193359,0.414795,-0.094116,0.640224,-0.758469,-0.378169
-1.141113,0.393799,-0.122925,0.895888,-0.830907,-0.229032
-1.073730,0.389404,-0.163940,1.163269,-0.857538,-0.079895
-1.078979,0.413452,-0.180786,1.460478,-0.811732,0.116114
-1.188110,0.407349,-0.181396,1.558483,-0.726511,0.211988
-1.241577,0.403076,-0.139038,1.495632,-0.639159,0.252468
-1.231567,0.329712,-0.096558,1.496697,-0.512392,0.286556
-1.162964,0.306396,-0.062378,1.498828,-0.340885,0.268447
-1.020264,0.310303,-0.001587,1.503089,-0.158724,0.236489
-0.852173,0.277222,0.028931,1.585114,0.033023,0.242880
-0.750366,0.332397,0.068726,1.613876,0.152333,0.202400
-0.681396,0.392944,0.117065,1.504154,0.172573,0.214118
-0.626953,0.435913,0.126709,1.127050,-0.006392,0.175769
-0.621338,0.419800,0.075806,0.917193,-0.211988,0.168312
-0.678833,0.405151,0.043335,0.798949,-0.434628,0.124636
-0.747803,0.407104,0.046143,0.744620,-0.622115,0.104396
-0.804687,0.437866,0.051392,0.711597,-0.759534,0.078830
-0.849854,0.430420,0.024780,0.704140,-0.835168,0.134223
-0.870361,0.416382,0.014160,0.739294,-0.826646,0.173638
-0.886475,0.437378,0.028809,0.796818,-0.721184,0.188552
-0.909424,0.473999,0.041504,0.810667,-0.552872,0.191748
-0.908936,0.474609,0.037109,0.771252,-0.373908,0.198139
-0.878296,0.459106,0.021362,0.655138,-0.161920,0.138484
-0.792480,0.476074,0.002930,0.534763,-0.101200,0.118244
-0.732788,0.484741,0.030640,0.450607,-0.050067,0.122505
-0.710571,0.459106,0.045776,0.446346,-0.008522,0.193878
-0.707275,0.408081,0.026978,0.474043,-0.004261,0.271643
-0.696167,0.390259,0.018799,0.512392,-0.009587,0.292948
-0.715210,0.428345,0.043701,0.528371,-0.014914,0.257794
-0.747070,0.448853,0.062256,0.510262,-0.025566,0.226901
-0.751343,0.438110,0.063843,0.478304,-0.028762,0.193878
-0.746094,0.416992,0.071899,0.471912,-0.012783,0.098004
-0.739502,0.415405,0.086426,0.498544,-0.004261,0.011718
-0.720337,0.427124,0.084595,0.552872,0.004261,-0.068177
-0.701172,0.436890,0.071167,0.577374,-0.010653,-0.149137
-0.685303,0.431641,0.048218,0.585896,-0.043676,-0.204531
-0.695557,0.415161,0.014282,0.591222,-0.087352,-0.256729
-0.729248,0.396851,-0.021606,0.591222,-0.140615,-0.317449
-0.760864,0.373169,-0.066528,0.578439,-0.199205,-0.396279
-0.818970,0.342163,-0.148560,0.558199,-0.239685,-0.472978
-0.873901,0.339600,-0.216553,0.511327,-0.213053,-0.561395
-0.947021,0.416138,-0.190308,0.301470,-0.033023,-0.698814
-1.143433,0.374023,-0.179687,0.224771,0.127832,-0.663660
-1.230957,0.336548,-0.208130,0.304666,0.271643,-0.622115
-1.287354,0.277710,-0.210693,0.436759,0.332363,-0.728641
-1.309692,0.385376,-0.205322,0.504936,0.369647,-0.765925
-1.238403,0.460693,-0.188477,0.327036,0.384561,-0.821319
-1.128662,0.525146,-0.150513,0.058590,0.431432,-0.874582
-0.973267,0.551880,-0.113281,-0.245011,0.535828,-0.808536
-0.835449,0.550537,-0.096191,-0.645550,0.661529,-0.678574
-0.781250,0.563843,-0.008545,-1.604289,0.917193,-0.536893
-0.907715,0.654663,0.047852,-2.377671,0.985370,-0.415453
-0.978149,0.466431,-0.046509,-2.783537,0.840494,-0.214118
-1.027466,0.191772,-0.062866,-2.384063,0.583765,-0.116114
-1.060425,0.114380,-0.067749,-1.689510,0.319579,-0.129962
-1.111206,0.180542,-0.087036,-1.119593,0.077764,-0.096939
-1.139282,0.253174,-0.115479,-0.752077,-0.169377,0.049002
-1.087402,0.251953,-0.152954,-0.484696,-0.377104,0.237554
-1.023560,0.190674,-0.165649,-0.165116,-0.480434,0.405866
-1.012695,0.152466,-0.151489,0.263120,-0.500674,0.813862
-1.040405,0.185303,-0.114990,0.653007,-0.454868,0.619984
-1.036499,0.177002,-0.107544,0.770186,-0.368582,0.618919
-1.007813,0.161133,-0.105103,0.841559,-0.260990,0.572047
-0.973267,0.151611,-0.102539,0.867126,-0.167247,0.515588
-0.909302,0.135742,-0.102417,0.910801,-0.098004,0.453803
-0.851929,0.133667,-0.111084,0.915063,-0.057524,0.373908
-0.822632,0.128174,-0.110840,0.795753,-0.082025,0.317449
-0.789795,0.078125,-0.083862,0.702010,-0.150202,0.253533
-0.779175,0.075195,-0.049805,0.735033,-0.213053,0.118244
-0.793945,0.141235,-0.031738,0.795753,-0.210922,-0.110788
-0.876099,0.205688,-0.033325,0.647681,-0.200270,-0.250337
-0.924927,0.199341,-0.042358,0.455933,-0.218379,-0.352603
-0.966675,0.198975,-0.057129,0.321710,-0.265251,-0.426106
-1.029175,0.170410,-0.080200,0.282295,-0.338754,-0.499609
-1.059814,0.176147,-0.098145,0.369647,-0.420780,-0.497479
-1.092651,0.133667,-0.106812,0.552872,-0.478304,-0.551807
-1.120728,0.152710,-0.114624,0.763795,-0.488957,-0.609331
-1.148926,0.205566,-0.105957,0.905475,-0.463390,-0.649812
-1.241333,0.255005,-0.018677,1.018393,-0.452738,-0.640224
-1.247314,0.167358,0.009521,1.841843,-0.698814,-0.443150
-1.146118,0.018799,-0.055176,2.618421,-0.970456,-0.367516
-1.132324,0.152588,-0.095703,3.146792,-1.192031,-0.364321
-1.128906,0.292114,-0.117920,3.303386,-1.341169,-0.384561
-1.116943,0.388550,-0.139404,3.125487,-1.392301,-0.417584
-1.088745,0.398193,-0.162964,2.723882,-1.229316,-0.421845
-1.068604,0.404541,-0.222290,2.364888,-0.913997,-0.413323
-1.062988,0.400757,-0.255615,2.029330,-0.649812,-0.432498
-1.061401,0.397949,-0.265137,1.657552,-0.315318,-0.508131
-1.053955,0.370483,-0.308105,1.115332,-0.320645,-0.530502
-1.110474,0.350098,-0.587524,0.889496,-0.517719,-0.547546
-1.173462,0.372559,-0.729370,0.479369,-0.570982,-0.735033
-1.192993,0.450928,-0.783936,-0.126767,-0.502805,-0.928911
-1.144653,0.518066,-0.675659,-0.796818,-0.508131,-1.161139
-0.945801,0.461304,-0.501587,-1.214402,-0.527306,-1.218663
-0.689331,0.174438,-0.303101,-0.972587,-0.336624,-0.952347
-0.441406,-0.034058,-0.160034,-0.339819,0.005326,-0.631702
-0.451538,0.128906,0.078369,-0.171508,0.490022,-0.761664
-0.746094,0.252808,0.300415,-0.321710,0.615723,-0.435693
-0.930176,0.158569,0.354614,-0.157659,0.358994,-0.134223
-1.058594,-0.048706,0.278564,0.160855,0.297209,0.062851
-1.192627,0.006348,0.167603,0.475108,0.200270,0.263120
-1.276001,0.029907,0.124146,0.678574,0.080960,0.645550
-1.207031,0.024170,0.178711,0.747816,-0.038350,0.906540
-1.040161,-0.020264,0.261719,0.775513,-0.072438,1.087635
-0.905518,-0.042725,0.269653,0.795753,-0.037284,1.150486
-0.832397,0.038330,0.211792,0.836233,0.074569,1.110006
-0.844116,0.168335,0.142212,0.671117,0.094809,0.977913
-0.836792,0.138916,0.118652,0.259925,0.067112,0.943825
-0.828613,0.044067,0.136475,0.169377,0.030893,0.781904
-0.843140,0.091675,0.129517,0.127832,-0.036219,0.567786
-0.852783,0.117432,0.097656,0.169377,-0.092678,0.480434
-0.835205,0.129028,0.058838,0.170442,-0.126767,0.419714
-0.829102,0.131104,0.046509,0.176834,-0.100135,0.328102
-0.880737,0.137573,0.074463,0.128897,-0.028762,0.247141
-0.962036,0.179932,0.070435,0.017044,-0.011718,0.098004
-1.002441,0.185425,0.059448,-0.085221,-0.006392,0.027697
-1.022705,0.174561,0.057861,-0.214118,-0.009587,-0.140615
-1.007935,0.202026,0.060425,-0.425041,0.021305,-0.207727
-0.968018,0.186401,0.054321,-0.528371,0.062851,-0.209857
-0.914307,0.147461,0.054932,-0.477239,0.105461,-0.202400
-0.852173,0.148682,0.057129,-0.380300,0.133158,-0.187487
-0.813354,0.175171,0.063110,-0.248207,0.148072,-0.154463
-0.808594,0.194214,0.059692,-0.101200,0.144876,-0.106526
-0.829346,0.193237,0.051025,0.025566,0.090548,-0.063916
-0.861328,0.181641,0.034546,0.100135,0.009587,-0.031958
-0.912354,0.201660,0.025024,0.121440,-0.061785,-0.030893
-0.970215,0.193115,0.016846,0.145941,-0.077764,-0.107592
-0.989502,0.262817,-0.003174,0.224771,-0.004261,0.102265
-1.013916,0.228271,-0.000610,0.229032,0.056459,0.122505
-1.016846,0.224976,0.000000,0.243946,0.111853,-0.002131
-1.033325,0.229858,0.012085,0.225836,0.185356,0.050067
-1.052490,0.162720,0.029419,0.224771,0.253533,0.059655
-1.185791,0.135742,0.018066,0.284426,0.295078,-0.004261
-1.406250,0.167358,0.020996,0.253533,0.258859,-0.119310
-1.471680,0.280151,0.043823,0.144876,0.193878,-0.284426
-1.323730,0.321411,0.015381,-0.254598,0.104396,-0.322775
-1.130737,0.282837,-0.017944,-0.991762,0.008522,-0.289752
-0.944702,0.222290,0.010864,-1.059939,0.040480,-0.140615
-0.837769,0.115356,0.046997,-0.908671,0.184291,-0.034088
-0.843994,0.092651,0.116943,-0.797883,0.404801,0.047937
-0.936646,0.081543,0.192993,-0.713727,0.588026,0.156594
-1.014771,0.064697,0.168091,-0.639159,0.557134,0.283360
-1.041992,0.035400,0.091064,-0.635963,0.335558,0.392017
-1.090698,-0.053345,0.022461,-0.589091,0.029827,0.506001
-1.161255,-0.141846,-0.011108,-0.456999,-0.280165,0.581635
-1.159302,-0.206055,-0.049683,-0.129962,-0.586961,0.671117
-1.112549,-0.224731,-0.071045,0.089482,-0.617854,0.663660
-1.103149,-0.230347,-0.054687,0.295078,-0.537959,0.643420
-1.072632,-0.164795,-0.036255,0.443150,-0.389887,0.566721
-1.042480,-0.105591,-0.025513,0.463390,-0.230097,0.468717
-1.003296,-0.097900,-0.013550,0.428236,-0.099070,0.386691
-0.973022,-0.031860,-0.008423,0.362190,-0.029827,0.271643
-0.947998,0.040649,-0.004272,0.215184,-0.035154,0.178964
-0.905762,0.087402,-0.004395,0.030893,-0.072438,0.090548
-0.871094,0.115112,-0.010254,-0.161920,-0.120375,-0.051133
-0.857056,0.137451,-0.014771,-0.447411,-0.174703,-0.128897
-0.870850,0.151367,-0.010132,-0.601875,-0.185356,-0.207727
-0.889038,0.142944,-0.005371,-0.659399,-0.172573,-0.270577
-0.920898,0.121948,-0.001587,-0.609331,-0.145941,-0.338754
-0.963623,0.107056,0.003174,-0.448477,-0.126767,-0.373908
-0.978271,0.100586,0.001709,-0.232228,-0.127832,-0.389887
-0.999390,0.090698,-0.000977,0.041545,-0.147007,-0.393083
-1.028564,0.088257,-0.002197,0.346211,-0.178964,-0.396279
-1.064697,0.104614,-0.002808,0.625310,-0.217314,-0.398409
-1.103516,0.116943,-0.008545,0.994957,-0.286556,-0.378169
-1.136597,0.115723,-0.022217,1.227185,-0.328102,-0.352603
-1.135620,0.106201,-0.029053,1.457282,-0.356864,-0.319579
-1.125000,0.095337,-0.030396,1.692706,-0.362190,-0.298274
-1.124634,0.097778,-0.031006,1.890845,-0.343015,-0.311057
-1.161987,0.103394,-0.046875,2.008024,-0.329167,-0.368582
-1.251831,0.116943,-0.050049,2.032525,-0.331297,-0.488957
-1.343750,0.133667,-0.034668,2.002698,-0.336624,-0.605070
-1.383057,0.104126,-0.026001,2.034656,-0.350472,-0.672182
-1.272095,0.103027,-0.021118,2.080462,-0.351537,-0.713727
-1.091309,0.128296,0.001221,2.149704,-0.305731,-0.723315
-0.889404,0.191040,0.032227,2.108159,-0.254598,-0.715858
-0.793823,0.214111,0.046875,2.026134,-0.213053,-0.646616
-0.746704,0.217407,0.028687,1.917477,-0.217314,-0.594418
-0.762817,0.234375,0.006836,1.755557,-0.264186,-0.559264
-0.821045,0.260742,0.025757,1.507350,-0.307862,-0.535828
-0.909790,0.260010,0.070435,1.244229,-0.322775,-0.507066
-0.976929,0.229248,0.095337,1.056743,-0.313188,-0.449542
-1.017456,0.186890,0.112183,0.983239,-0.297209,-0.357929
-1.036743,0.125610,0.086426,1.188836,-0.356864,-0.165116
-1.063477,0.051636,0.106934,1.462609,-0.388822,-0.005326
-1.048706,0.015259,0.100220,1.851430,-0.430367,0.128897
-0.999756,0.041016,0.119751,2.159292,-0.420780,0.251403
-0.954712,0.077881,0.161987,2.342517,-0.367516,0.365386
-0.924683,0.118286,0.179199,2.361692,-0.317449,0.420780
-0.899902,0.170288,0.175903,2.177401,-0.304666,0.448477
-0.870850,0.201538,0.189331,1.806689,-0.305731,0.444215
-0.845459,0.205200,0.209839,1.362474,-0.311057,0.418649
-0.828857,0.172241,0.223633,0.975783,-0.314253,0.373908
-0.824707,0.090210,0.236816,0.640224,-0.286556,0.346211
-0.841919,0.025757,0.230835,0.656203,-0.289752,0.312123
-0.823730,-0.006836,0.219849,0.849016,-0.299339,0.254598
-0.793335,-0.003784,0.227539,1.075917,-0.270577,0.187487
-0.793579,0.018311,0.239136,1.271926,-0.224771,0.108657
-0.799194,0.070435,0.218628,1.357147,-0.190682,0.033023
-0.809204,0.095825,0.189575,1.362474,-0.176834,-0.061785
-0.851562,0.098755,0.179199,1.336907,-0.135289,-0.161920
-0.910645,0.112793,0.192505,1.292166,-0.058590,-0.294013
-0.955200,0.122803,0.198120,1.231446,0.117179,-0.475108
-1.038086,0.176514,0.204590,1.081244,0.216249,-0.593353
-1.094604,0.201782,0.189331,0.894822,0.246076,-0.673247
-1.171875,0.181519,0.151733,0.746751,0.203466,-0.717989
-1.260132,0.152222,0.133789,0.708401,0.124636,-0.784035
-1.310669,0.156494,0.137817,0.785100,0.059655,-0.828776
-1.297729,0.193970,0.163452,0.891627,0.059655,-0.834102
-1.228271,0.258789,0.164307,0.978978,0.084156,-0.765925
-1.148682,0.327759,0.159302,0.984305,0.101200,-0.649812
-1.074951,0.376831,0.164429,0.889496,0.106526,-0.351537
-0.980957,0.355225,0.209229,0.651942,0.140615,-0.167247
-0.889038,0.328613,0.222290,0.544350,0.139550,0.014914
-0.880737,0.310181,0.205078,0.430367,0.093743,0.082025
-0.914551,0.320313,0.158325,0.272708,-0.030893,0.134223
-0.981689,0.301392,0.099487,0.109722,-0.215184,0.222640
-1.052002,0.258667,0.049316,-0.063916,-0.426106,0.285491
-1.120117,0.208984,0.024292,-0.210922,-0.632767,0.348342
-1.171631,0.156982,0.006226,-0.278034,-0.796818,0.437824
-1.163086,0.115845,-0.008057,-0.236489,-0.836233,0.537959
-1.127441,0.093506,-0.023071,-0.053263,-0.678574,0.660464
-1.097046,0.085937,-0.033447,0.095874,-0.487891,0.703075
-1.039917,0.080933,-0.034058,0.257794,-0.282295,0.781904
-0.989136,0.057495,-0.042236,0.439954,-0.084156,0.839429
-0.949951,0.059570,-0.044800,0.584830,0.060720,0.852212
-0.924805,0.097168,-0.039307,0.585896,0.126767,0.867126
-0.915649,0.122437,-0.031128,0.455933,0.126767,0.880974
-0.905029,0.120239,-0.020386,0.278034,0.085221,0.879909
-0.877686,0.099243,-0.016479,0.121440,0.023436,0.871387
-0.853271,0.070190,-0.017090,0.003196,-0.033023,0.849016
-0.841431,0.021606,-0.022217,-0.039415,-0.064981,0.780839
-0.839600,0.006836,-0.026367,-0.015979,-0.046872,0.674313
-0.845337,-0.005737,-0.025024,0.026632,0.000000,0.545416
-0.861694,-0.010620,-0.012939,0.071373,0.075634,0.381365
-0.889648,-0.009766,0.005615,0.110788,0.162986,0.181095
-0.934448,-0.006958,0.028931,0.160855,0.250337,-0.040480
-0.971802,0.010986,0.049072,0.219445,0.306796,-0.279099
-1.013306,0.030396,0.070068,0.256729,0.319579,-0.508131
-1.064819,0.029541,0.088501,0.341950,0.290817,-0.702010
-1.119873,0.036133,0.097290,0.553938,0.167247,-0.945955
-1.201416,0.055908,0.081543,0.661529,0.045806,-1.075917
-1.278931,0.074951,0.079224,0.700944,-0.049002,-1.185640
-1.371704,0.134399,0.127808,0.628506,-0.036219,-1.290036
-1.453369,0.204712,0.184570,0.450607,0.091613,-1.336907
-1.450439,0.261963,0.224487,0.203466,0.247141,-1.325189
-1.358765,0.294800,0.241943,-0.047937,0.378169,-1.227185
-1.251709,0.284058,0.283203,-0.246076,0.455933,-1.076983
-1.161499,0.201660,0.278931,-0.192813,0.384561,-0.912932
-1.012451,0.135620,0.228149,0.028762,0.010653,-0.697748
-0.754639,0.068481,0.124390,0.430367,-0.215184,-0.605070
-0.760254,0.023804,0.076416,0.745685,-0.380300,-0.532632
-0.851562,0.025391,0.065674,1.084440,-0.560329,-0.468717
-0.896118,0.065552,0.070312,1.335842,-0.756338,-0.403735
-0.913330,0.092896,0.071899,1.525459,-0.928911,-0.350472
-0.915771,0.122437,0.060059,1.679923,-1.030111,-0.328102
-0.889893,0.143921,0.036743,1.816277,-1.021589,-0.319579
-0.870850,0.158325,0.012085,1.922803,-0.933172,-0.325971
-0.863403,0.170898,-0.001587,1.990980,-0.807471,-0.297209
-0.829590,0.187012,0.015259,2.062353,-0.519849,-0.155529
-0.777588,0.182739,0.072998,2.131595,-0.302535,0.003196
-0.782104,0.155396,0.071899,2.274341,-0.176834,0.189617
-0.781006,0.164917,0.009521,2.360627,-0.175769,0.311057
-0.768921,0.223511,0.016846,2.226404,-0.159790,0.380300
-0.799561,0.286255,0.108521,1.868475,-0.075634,0.426106
-0.848877,0.326904,0.164673,1.416802,0.027697,0.421845
-0.886108,0.346436,0.216675,0.787231,0.140615,0.378169
-0.917358,0.298584,0.288940,0.061785,0.263120,0.351537
-0.917969,0.171265,0.348267,-0.418649,0.470847,0.343015
-0.895630,0.018311,0.357544,-0.499609,0.562460,0.290817
-0.859253,-0.021240,0.344727,-0.331297,0.591222,0.229032
-0.844604,-0.022705,0.336548,-0.125701,0.573112,0.136354
-0.856934,-0.005005,0.351440,0.042611,0.550742,0.002131
-0.897217,0.006958,0.342529,0.190682,0.526241,-0.154463
-0.963135,0.021240,0.310547,0.306796,0.481500,-0.299339
-1.080811,0.050537,0.275635,0.365386,0.418649,-0.452738
-1.225098,0.097656,0.251831,0.392017,0.334493,-0.563525
-1.348145,0.134521,0.229980,0.371777,0.258859,-0.597614
-1.459595,0.184814,0.208252,0.198139,0.145941,-0.530502
-1.488892,0.242798,0.174927,0.060720,0.084156,-0.357929
-1.398682,0.236328,0.148193,0.011718,0.043676,-0.137419
-1.269653,0.224121,0.130371,0.033023,0.020240,0.108657
-1.130493,0.195068,0.127197,0.049002,0.039415,0.330232
-1.029419,0.158936,0.149780,0.082025,0.069242,0.519849
-0.930054,0.130005,0.171265,0.182160,0.063916,0.661529
-0.866943,0.121216,0.161377,0.265251,0.021305,0.727576
-0.842773,0.119751,0.123535,0.278034,-0.080960,0.720119
-0.841064,0.143066,0.083008,0.164051,-0.308927,0.588026
-0.908325,0.180542,0.054687,-0.254598,-0.477239,0.492152
-1.001709,0.169189,0.047241,-0.575243,-0.644485,0.379234
-1.103394,0.125854,0.031006,-0.751012,-0.788296,0.265251
-1.159912,0.077271,0.006836,-0.745685,-0.878844,0.180030
-1.152710,0.061646,-0.026245,-0.589091,-0.903345,0.134223
-1.154297,0.063110,-0.039429,-0.393083,-0.870321,0.115049
-1.121094,0.058594,-0.029297,-0.128897,-0.755273,0.156594
-1.078003,0.040283,-0.018311,0.208792,-0.597614,0.252468
-1.049194,0.018311,-0.015381,0.601875,-0.452738,0.387756
-1.018066,0.016113,-0.022461,1.117463,-0.313188,0.578439
-0.982666,0.059937,-0.022095,1.303884,-0.263120,0.655138
-0.965698,0.085205,0.006836,1.337973,-0.215184,0.698814
-0.954102,0.092896,0.050171,1.221859,-0.158724,0.714793
-0.942749,0.072998,0.071777,1.045025,-0.135289,0.687096
-0.915161,0.072754,0.063232,0.871387,-0.164051,0.655138
-0.881836,0.054810,0.044312,0.711597,-0.226901,0.640224
-0.828491,0.031250,0.072632,0.495348,-0.288687,0.557134
-0.702148,0.026733,0.134277,0.282295,-0.267381,0.455933
-0.619873,0.017578,0.145508,0.151268,-0.136354,0.145941
-0.723145,0.009888,0.185425,0.002131,-0.056459,-0.176834
-0.809692,0.028442,0.220947,-0.002131,0.057524,-0.499609
-0.891357,0.068726,0.241333,-0.041545,0.160855,-0.833037
-0.970825,0.088867,0.230957,-0.054329,0.172573,-1.120659
-1.054688,0.116455,0.202759,-0.068177,0.088417,-1.337973
-1.138184,0.151001,0.186768,-0.061785,-0.043676,-1.457282
-1.205444,0.183960,0.171265,0.035154,-0.160855,-1.453021
-1.253540,0.213745,0.154297,0.213053,-0.231162,-1.345430
-1.287109,0.199341,0.117920,0.449542,-0.270577,-1.152617
-1.359131,0.143799,0.092896,0.763795,-0.246076,-0.901214
-1.427246,0.078857,0.124756,0.962999,-0.170442,-0.719054
-1.401733,0.033936,0.142212,1.217598,-0.071373,-0.577374
-1.311035,0.027832,0.150391,1.557417,0.009587,-0.497479
-1.202637,0.058960,0.128052,1.843974,0.025566,-0.472978
-1.103394,0.103882,0.133667,1.945174,-0.025566,-0.510262
-0.981201,0.158691,0.153564,1.915346,-0.104396,-0.527306
-0.866943,0.194214,0.168945,1.754491,-0.183226,-0.528371
-0.799561,0.185303,0.141968,1.574461,-0.282295,-0.531567
-0.796265,0.166138,0.113281,1.139833,-0.437824,-0.630637
-0.848633,0.177246,0.115356,1.236773,-0.518784,-0.662595
-0.876465,0.188354,0.120605,1.161139,-0.565656,-0.646616
-0.890015,0.184570,0.113770,1.136638,-0.577374,-0.601875
-0.900024,0.180298,0.084106,1.156878,-0.591222,-0.541155
-0.915039,0.177368,0.067871,1.202684,-0.600809,-0.452738
-0.941528,0.154663,0.098267,1.284709,-0.569917,-0.314253
-0.962891,0.110596,0.109497,1.482849,-0.543285,-0.143811
-0.958008,0.076538,0.109009,1.755557,-0.521980,0.021305
-0.937012,0.062866,0.105591,2.077266,-0.501740,0.164051
-0.900635,0.067383,0.127808,2.416021,-0.384561,0.348342
-0.846313,0.097168,0.193359,2.456501,-0.256729,0.443150
-0.831665,0.121460,0.197266,2.335061,-0.177899,0.467651
-0.812622,0.147217,0.222168,2.043178,-0.122505,0.458064
-0.801636,0.140869,0.290771,1.650095,-0.053263,0.417584
-0.806641,0.104248,0.323364,1.313472,-0.024501,0.327036
-0.805054,0.068237,0.340698,1.073787,-0.029827,0.215184
-0.791504,0.027466,0.353638,0.907606,-0.049002,0.109722
-0.785400,-0.033203,0.355469,0.873517,-0.072438,-0.020240
-0.790649,-0.045166,0.369873,0.905475,-0.056459,-0.245011
-0.862061,-0.025879,0.380615,1.012002,-0.039415,-0.372843
-0.919067,-0.008057,0.342407,1.096158,-0.056459,-0.506001
-0.980713,0.017822,0.299072,1.194162,-0.088417,-0.584830
-1.005249,0.032104,0.253174,1.297493,-0.139550,-0.692422
-1.053223,0.067627,0.211548,1.398693,-0.173638,-0.776578
-1.098511,0.095459,0.178223,1.520133,-0.198139,-0.789361
-1.108398,0.123047,0.124023,1.641573,-0.223706,-0.777643
-1.112061,0.160034,0.084106,1.700163,-0.229032,-0.764860
-1.107544,0.195312,0.073242,1.698032,-0.184291,-0.721184
-1.133301,0.213745,0.113037,1.582984,-0.026632,-0.629572
-1.160156,0.208008,0.117432,1.523329,0.094809,-0.534763
-1.162964,0.202148,0.105347,1.538242,0.135289,-0.431432
-1.140503,0.195679,0.109131,1.569135,0.124636,-0.386691
-1.103027,0.205200,0.152344,1.629855,0.099070,-0.266316
-1.032959,0.192993,0.221436,1.692706,0.092678,-0.145941
-0.971680,0.151245,0.296387,1.829060,0.087352,0.009587
-0.920044,0.101074,0.261597,2.159292,-0.040480,0.164051
-0.910522,0.119141,0.183350,2.477806,-0.220510,0.209857
-0.956787,0.198486,0.141479,2.500177,-0.467651,0.285491
-1.036865,0.250000,0.105835,2.307364,-0.624245,0.368582
-1.088257,0.296997,0.087402,1.945174,-0.759534,0.407996
-1.149414,0.290161,0.099121,1.504154,-0.859669,0.481500
-1.177368,0.226440,0.072266,1.177118,-0.970456,0.542220
-1.131470,0.185181,0.045776,0.944890,-1.039698,0.551807
-1.066895,0.148560,0.041016,0.824515,-1.029046,0.521980
-0.999634,0.140015,0.056763,0.777643,-0.920389,0.447411
-0.956543,0.147949,0.070679,0.756338,-0.759534,0.351537
-0.927979,0.151611,0.074219,0.744620,-0.601875,0.248207
-0.908081,0.148560,0.031372,0.725445,-0.459129,0.064981
-0.898071,0.162598,0.047485,0.681770,-0.439954,-0.038350
-0.885620,0.162354,0.063110,0.623180,-0.435693,-0.141680
-0.856812,0.145874,0.080688,0.680704,-0.416519,-0.220510
-0.837524,0.141357,0.074219,0.833037,-0.399474,-0.243946
-0.843750,0.188599,0.065186,0.991762,-0.386691,-0.436759
-0.904053,0.258301,0.073364,1.182444,-0.366451,-0.465521
-0.941895,0.285522,0.067749,1.434912,-0.343015,-0.401605
-0.959229,0.325562,0.035156,1.587245,-0.334493,-0.345146
-0.949219,0.342041,0.012329,1.603224,-0.317449,-0.214118
-0.916138,0.353394,0.018555,1.502023,-0.267381,-0.168312
-0.922974,0.363525,0.047607,1.345430,-0.188552,-0.178964
-0.945312,0.344849,0.067749,1.206945,-0.126767,-0.226901
-0.974609,0.322998,0.067017,1.080179,-0.108657,-0.301470
-1.006592,0.311523,0.071289,0.959804,-0.134223,-0.364321
-1.016235,0.278320,0.047241,0.935303,-0.200270,-0.403735
-1.018311,0.272339,-0.023560,0.940629,-0.296144,-0.472978
-1.067261,0.315308,-0.076416,0.833037,-0.348342,-0.581635
-1.186523,0.398560,-0.003052,0.496413,-0.231162,-0.664725
-1.350586,0.397339,0.104248,0.090548,0.105461,-0.569917
-1.284424,0.009888,0.031616,0.148072,0.140615,-0.439954
-1.051514,-0.122314,0.153931,0.507066,0.319579,-0.448477
-0.882935,-0.052002,0.314331,0.846886,0.601875,-0.498544
-0.773437,0.117310,0.394165,0.827711,0.861799,-0.541155
-0.821045,0.166504,0.309204,0.650877,0.849016,-0.517719
-0.953857,0.137329,0.127075,0.485761,0.641289,-0.520915
-1.058228,0.219849,0.034058,0.222640,0.339819,-0.659399
-1.141357,0.321411,0.020630,-0.124636,-0.033023,-0.758469
-1.147827,0.321289,0.036377,-0.604005,-0.395213,-0.794688
-0.983643,0.279297,0.157349,-0.650877,-0.314253,-0.729706
-0.807007,0.167603,0.215454,-0.331297,-0.055394,-0.550742
-0.706543,0.018921,0.195679,0.337689,0.115049,-0.329167
-0.708374,-0.150269,0.165649,1.180313,0.124636,-0.009587
-0.656738,-0.096924,0.112793,2.061288,0.298274,0.093743
-0.726807,0.218750,0.102051,2.645053,0.504936,0.122505
-0.861816,0.454590,0.031616,2.902847,0.488957,0.259925
-0.914917,0.529785,-0.036377,2.776080,0.283360,0.417584
-0.912476,0.435669,-0.051880,2.567288,0.030893,0.629572
-0.917236,0.390381,0.036011,2.197641,-0.221575,0.602940
-0.902832,0.358765,0.057861,2.120942,-0.265251,0.597614
-0.878418,0.335083,0.068359,2.081527,-0.226901,0.514523
-0.864624,0.354614,0.083984,1.887649,-0.108657,0.369647
-0.847900,0.361938,0.128662,1.651161,0.086286,0.249272
-0.849365,0.368408,0.166626,1.370996,0.294013,0.142745
-0.863037,0.407837,0.150879,1.020524,0.400540,0.025566
-0.873779,0.375610,0.145020,0.830907,0.414388,-0.003196
-0.886597,0.377441,0.127808,0.682835,0.343015,-0.039415
-0.896240,0.392090,0.118530,0.397344,0.123571,-0.015979
-0.778687,0.236938,0.193237,0.324906,0.218379,0.211988
-0.804077,0.170044,0.181030,0.650877,0.625310,0.238619
-0.888916,0.323120,0.013794,1.176052,0.729706,0.312123
-0.953979,0.471069,-0.100098,1.196293,0.623180,0.374973
-1.011597,0.557373,-0.116089,0.452738,0.395213,0.186421
-1.046387,0.315063,-0.061646,-0.398409,0.117179,0.063916
-1.083374,0.224731,-0.015381,-0.831972,-0.051133,-0.233293
-1.103760,0.298828,-0.016479,-0.980044,-0.224771,-0.389887
-1.080811,0.305176,-0.043213,-0.945955,-0.352603,-0.392017
-1.026489,0.145630,-0.025146,-0.410127,-0.361125,-0.382430
-0.973267,0.101440,-0.019897,-0.094809,-0.313188,-0.480434
-0.964233,0.090332,-0.020630,0.147007,-0.250337,-0.447411
-0.998657,-0.046875,-0.070679,0.418649,-0.168312,-0.366451
-1.157471,-0.211914,-0.040649,0.806406,-0.030893,-0.376038
-1.354126,-0.317871,-0.026611,1.499893,0.223706,-0.340885
-1.447876,-0.128296,-0.112915,2.030395,0.298274,-0.386691
-1.417114,0.074341,-0.214111,2.048504,0.078830,-0.430367
-1.243164,0.141602,-0.245850,1.768340,-0.182160,-0.467651
-1.016479,0.190552,-0.237793,0.986435,-0.343015,-0.451672
-0.855835,0.208008,-0.200439,0.401605,-0.278034,-0.404801
-0.899170,0.240845,-0.169189,-0.134223,-0.172573,-0.407996
-0.969238,0.154663,-0.190063,-0.543285,-0.094809,-0.358994
-1.029907,-0.009277,-0.184082,-0.661529,-0.055394,-0.268447
-1.098389,-0.108521,-0.202393,-0.490022,-0.118244,-0.211988
-1.089844,-0.101318,-0.240967,-0.294013,-0.280165,-0.170442
-0.987671,-0.044800,-0.257690,-0.189617,-0.421845,-0.149137
-0.867065,0.013672,-0.250366,-0.056459,-0.474043,-0.105461
-0.780884,0.059448,-0.221924,0.055394,-0.407996,-0.049002
-0.776245,0.070923,-0.177734,0.229032,-0.160855,-0.012783
-0.851196,0.086060,-0.146606,0.237554,0.010653,0.035154
-0.912354,0.112549,-0.131104,0.220510,0.147007,0.059655
-1.010010,0.118286,-0.135498,0.207727,0.197074,0.090548
-1.086914,0.120117,-0.147095,0.164051,0.162986,0.105461
-1.125244,0.114258,-0.172241,0.059655,0.066046,0.123571
-1.136353,0.123657,-0.153198,-0.071373,-0.005326,0.140615
-1.109009,0.129639,-0.114502,-0.252468,-0.006392,0.182160
-1.084961,0.159058,-0.084595,-0.545416,0.023436,0.222640
-1.044434,0.179077,-0.049561,-1.267665,0.057524,0.289752
-0.942627,0.148926,-0.023560,-1.804559,0.165116,0.311057
-0.889893,0.163696,-0.007080,-2.064483,0.241815,0.288687
-0.951416,0.105347,-0.008667,-2.117747,0.210922,0.137419
-0.923584,0.137939,-0.005981,-2.100702,0.131028,0.088417
-0.891846,0.135010,0.000244,-2.084723,0.057524,-0.122505
-0.921875,0.142456,0.001099,-2.000567,0.009587,-0.193878
-0.915039,0.126221,0.002808,-1.759818,-0.050067,-0.287622
-0.911133,0.049438,0.016602,-1.320928,-0.108657,-0.297209
-0.916504,-0.079468,0.116333,-0.481500,-0.079895,-0.360060
-0.987915,-0.206543,0.202271,1.509480,-0.006392,-0.276969
-1.163330,-0.118652,0.024292,2.195511,-0.284426,-0.236489
-1.230347,0.013306,-0.046753,2.679141,-0.735033,-0.085221
-1.296509,0.185791,-0.047729,3.139336,-1.243164,0.079895
-1.258789,0.294556,-0.029663,3.385412,-1.498828,0.292948
-1.257690,0.263184,-0.068970,3.332149,-1.481784,0.405866
-1.350342,0.248413,-0.103149,3.018961,-1.311341,0.474043
-1.341919,0.226562,-0.098022,2.475676,-1.056743,0.519849
-1.243530,0.242554,-0.056030,1.859952,-0.693487,0.516653
-1.189453,0.170044,-0.014771,1.140899,-0.118244,0.553938
-1.142822,0.064209,0.058228,0.805340,0.143811,0.478304
-1.004150,0.057007,0.064331,0.506001,0.227967,0.484696
-0.833374,0.045532,0.074707,0.250337,0.217314,0.514523
-0.702026,0.050537,0.108276,0.093743,0.197074,0.565656
-0.716187,0.089233,0.102051,0.046872,0.125701,0.596548
-0.839722,0.094727,0.071777,0.003196,-0.090548,0.666856
-0.898926,0.077271,0.047363,-0.129962,-0.371777,0.635963
-0.889893,0.088135,0.036499,-0.269512,-0.543285,0.727576
-0.940918,0.067139,0.026489,-0.394148,-0.586961,0.468717
-1.010254,0.123413,0.035400,-0.488957,-0.464455,0.421845
-1.019531,0.089966,0.044800,-0.495348,-0.299339,0.568851
-0.993896,0.032837,0.049927,-0.453803,-0.127832,0.506001
-0.929077,-0.001709,0.083130,-0.392017,0.060720,0.485761
-0.849121,-0.031616,0.142090,-0.347276,0.260990,0.371777
-0.804932,-0.022705,0.182251,-0.215184,0.441020,0.259925
-0.794434,-0.047729,0.189331,-0.095874,0.537959,0.165116
-0.765869,-0.089355,0.164795,0.090548,0.506001,0.059655
-0.758789,-0.067017,0.127930,0.248207,0.378169,-0.086286
-0.786987,-0.011841,0.089600,0.268447,0.115049,-0.405866
-0.823853,0.083862,0.102417,0.186421,0.030893,-0.576308
-0.834351,0.123779,0.146362,0.094809,0.067112,-0.694553
-0.853271,0.103394,0.146729,0.125701,0.135289,-0.720119
-0.851685,0.064087,0.139648,0.254598,0.201335,-0.757403
-0.852295,0.042236,0.156006,0.420780,0.266316,-0.786165
-0.875610,0.058716,0.164551,0.627441,0.308927,-0.834102
-0.929932,0.133057,0.160156,0.779774,0.312123,-0.898018
-0.991943,0.192749,0.147827,0.841559,0.278034,-0.928911
-1.033081,0.223145,0.126953,0.823450,0.204531,-0.982174
-1.062256,0.248413,0.085937,0.864995,0.083091,-0.988566
-1.095337,0.268066,0.081909,0.894822,0.030893,-0.959804
-1.092896,0.262085,0.074707,1.004545,0.012783,-0.899084
-1.091187,0.234131,0.070557,1.181379,0.057524,-0.821319
-1.159790,0.188843,0.036133,1.417868,0.111853,-0.770186
-1.322388,0.181519,0.026611,1.629855,0.170442,-0.741424
-1.472778,0.241577,0.049438,1.812016,0.194943,-0.721184
-1.438110,0.332642,0.058594,1.852496,0.199205,-0.668986
-1.262817,0.377563,0.031982,1.742773,0.193878,-0.589091
-1.127930,0.397949,0.008545,1.300688,0.169377,-0.460194
-0.976562,0.360474,0.061035,1.181379,0.201335,-0.290817
-0.911865,0.172974,0.153320,1.460478,0.127832,-0.098004
-0.824829,0.168457,0.199341,1.605354,0.128897,-0.079895
-0.831421,0.184082,0.194336,1.506285,0.161920,-0.018110
-0.942627,0.174316,0.149658,1.307080,0.121440,0.104396
-1.076294,0.126099,0.100342,1.067395,-0.012783,0.297209
-1.181274,0.053711,0.039307,0.883105,-0.220510,0.597614
-1.226929,-0.023315,0.011597,0.815993,-0.412258,0.825580
-1.218994,-0.101929,0.031006,0.818123,-0.508131,1.096158
-1.184570,-0.196655,0.059814,1.049286,-0.454868,1.215467
-1.111572,-0.200439,0.052612,1.288970,-0.364321,1.269796
-1.078125,-0.133179,0.036743,1.435977,-0.294013,1.268731
-1.052246,-0.071167,0.048950,1.410411,-0.246076,1.265535
-1.035767,-0.091553,0.061523,1.368865,-0.214118,1.317733
-1.021606,-0.078003,0.052246,1.320928,-0.206661,1.367800
-1.010498,-0.028809,0.030762,1.210141,-0.258859,1.292166
-1.019897,0.043091,0.007935,1.006675,-0.345146,1.268731
-1.060547,0.083008,-0.003052,0.716923,-0.423975,1.196293
-1.100830,0.082642,0.006348,0.233293,-0.496413,1.121724
-1.034302,0.036377,-0.006348,0.058590,-0.499609,1.053547
-0.982056,-0.007080,-0.008911,0.031958,-0.467651,0.926780
-0.935913,-0.009644,-0.014404,0.098004,-0.423975,0.762730
-0.909424,-0.004517,-0.027466,0.232228,-0.371777,0.556068
-0.916260,0.021362,-0.047607,0.422910,-0.314253,0.335558
-0.911377,0.042236,-0.076904,0.575243,-0.269512,0.149137
-0.902710,0.065186,-0.084839,0.702010,-0.278034,-0.028762
-0.914185,0.085449,-0.062744,0.915063,-0.354733,-0.166181
-0.917358,0.185547,-0.041138,1.081244,-0.434628,-0.431432
-0.907104,0.265137,0.081055,1.025850,-0.645550,-0.496413
-0.899414,0.122681,0.073608,1.053547,-0.800014,-0.513458
-0.929565,0.090454,0.055054,1.226120,-0.898018,-0.574178
-1.029053,0.103516,0.032104,1.492436,-0.948086,-0.615723
-1.121582,0.089844,-0.016113,1.760883,-0.968326,-0.765925
-1.241455,0.092529,-0.055298,1.949435,-0.947020,-0.949151
-1.366455,0.114380,-0.062500,1.935586,-0.885235,-1.143029
-1.370605,0.140381,-0.069458,1.801363,-0.771252,-1.304950
-1.296265,0.176880,-0.057983,1.572331,-0.567786,-1.460478
-1.181885,0.247070,-0.041748,1.095092,-0.204531,-1.571266
-0.968994,0.327271,-0.012695,0.638094,-0.020240,-1.569135
-0.882690,0.280151,-0.007080,0.232228,0.085221,-1.514807
-0.874023,0.183105,-0.018677,0.007457,0.106526,-1.374192
-0.929199,0.103882,-0.031738,-0.064981,0.051133,-1.221859
-0.981323,0.084106,-0.034668,-0.066046,-0.068177,-0.924650
-0.981201,0.034790,-0.024780,0.026632,-0.211988,-0.640224
-0.956543,-0.015869,-0.028809,0.315318,-0.357929,-0.482565
-0.944458,-0.005981,-0.028320,0.688161,-0.460194,-0.462325
-0.983765,0.006104,-0.019165,1.075917,-0.540089,-0.486826
-1.005737,0.005981,-0.058350,1.587245,-0.569917,-0.404801
-0.983521,-0.007202,-0.080322,1.818407,-0.593353,-0.287622
-0.892578,0.018066,-0.084229,2.070875,-0.543285,-0.356864
-0.878784,0.096924,-0.037231,2.160357,-0.395213,-0.380300
-0.833862,0.126099,0.000610,2.130530,-0.192813,-0.393083
-0.841064,0.133667,0.028687,2.037852,-0.007457,-0.340885
-0.850342,0.094849,0.052734,1.955826,0.124636,-0.200270
-0.815918,0.038452,0.048340,1.890845,0.191748,-0.066046
-0.812500,0.020386,-0.022339,1.771536,0.201335,-0.101200
-0.823853,0.083252,-0.074829,1.266600,0.312123,-0.371777
-0.860474,0.178101,-0.023560,0.800014,0.496413,-0.459129
-0.848999,0.170044,0.019165,0.445281,0.738229,-0.511327
-0.862061,0.145142,0.069214,0.178964,0.982174,-0.532632
-0.919922,0.129761,0.118652,0.017044,1.135572,-0.525176
-0.984985,0.088013,0.179565,-0.088417,1.174987,-0.520915
-1.054565,0.060547,0.234985,0.034088,1.128116,-0.536893
-1.101074,0.029663,0.265991,0.360060,1.017328,-0.459129
-1.114502,0.038940,0.260620,0.711597,0.857538,-0.394148
-1.109131,0.076538,0.220825,0.991762,0.581635,-0.276969
-1.143555,0.132812,0.187988,1.155812,0.437824,-0.203466
-1.187256,0.172729,0.218750,1.153682,0.319579,-0.149137
-1.239990,0.200928,0.236450,1.181379,0.202400,-0.068177
-1.300049,0.185181,0.232666,1.192031,0.119310,0.001065
-1.355957,0.171265,0.213623,1.189901,0.029827,0.024501
-1.381226,0.214600,0.191528,1.182444,-0.085221,0.029827
-1.309082,0.227905,0.148804,1.160073,-0.193878,0.108657
-1.203613,0.221558,0.129150,1.127050,-0.232228,0.200270
-1.099854,0.240723,0.135498,1.101484,-0.217314,0.306796
-0.972778,0.240479,0.148437,1.032242,-0.094809,0.537959
-0.804443,0.235840,0.168701,0.913997,0.012783,0.656203
-0.790894,0.262695,0.160034,0.691357,0.073503,0.715858
-0.849731,0.279419,0.144043,0.361125,0.053263,0.742490
-0.913818,0.281494,0.121216,-0.017044,-0.042611,0.787231
-1.016479,0.251221,0.101318,-0.352603,-0.190682,0.872452
-1.137085,0.222656,0.070312,-0.726511,-0.389887,0.953412
-1.232178,0.169312,0.039673,-0.953412,-0.641289,1.056743
-1.273682,0.082153,0.003662,-1.008806,-0.854342,1.186705
-1.359009,-0.014893,0.012695,-0.920389,-1.057808,1.282579
-1.386841,-0.068359,0.021362,-0.516653,-1.107875,1.368865
-1.307861,-0.093140,0.018188,-0.205596,-1.071656,1.431716
-1.205444,-0.125000,0.010742,0.145941,-0.981109,1.465804
-1.084961,-0.125610,0.000000,0.516653,-0.867126,1.441303
-0.970215,-0.068604,-0.011475,0.782970,-0.736098,1.349691
-0.896851,-0.002808,-0.021973,0.850081,-0.607201,1.231446
-0.870728,0.046631,-0.031982,0.730772,-0.504936,1.100419
-0.856201,0.077271,-0.041260,0.497479,-0.441020,0.986435
-0.828491,0.075806,-0.047485,0.241815,-0.393083,0.886300
-0.809692,0.065674,-0.045410,-0.088417,-0.312123,0.710532
-0.758057,0.038574,-0.026489,-0.246076,-0.241815,0.519849
-0.753784,0.050781,-0.014893,-0.344081,-0.160855,0.327036
-0.751465,0.060425,-0.008301,-0.442085,-0.088417,0.132093
-0.776855,0.057007,-0.006470,-0.514523,-0.035154,-0.059655
-0.833618,0.052856,-0.007568,-0.573112,-0.002131,-0.239685
-0.910278,0.048706,-0.001221,-0.606136,0.018110,-0.420780
-0.995361,0.047729,0.005615,-0.602940,0.036219,-0.596548
-1.067017,0.054443,0.022827,-0.586961,0.076699,-0.774448
-1.106812,0.069946,0.044922,-0.563525,0.178964,-0.970456
-1.138306,0.092407,0.063232,-0.516653,0.256729,-1.027981
-1.135864,0.070435,0.074585,-0.435693,0.317449,-1.048221
-1.161255,0.046509,0.090088,-0.262055,0.383495,-1.065265
-1.255615,0.009155,0.107422,-0.036219,0.449542,-1.101484
-1.412231,-0.015869,0.127075,0.240750,0.479369,-1.164335
-1.501343,0.012939,0.161377,0.471912,0.490022,-1.216532
-1.453613,0.046997,0.195557,0.657268,0.508131,-1.196293
-1.284424,0.109741,0.210083,0.744620,0.529437,-1.151551
-1.110840,0.178467,0.233032,0.693487,0.550742,-1.064200
-0.962158,0.220825,0.258789,0.426106,0.543285,-0.882039
-0.866577,0.165771,0.241455,0.320645,0.463390,-0.754208
-0.908569,0.083984,0.190063,0.361125,0.336624,-0.662595
-0.971558,0.038452,0.151001,0.517719,0.161920,-0.591222
-0.996948,0.006592,0.141479,0.811732,-0.045806,-0.507066
-0.992554,0.007935,0.133667,1.076983,-0.251403,-0.486826
-0.973267,0.018921,0.139404,1.329451,-0.420780,-0.502805
-0.941162,0.034668,0.135986,1.636247,-0.512392,-0.515588
-0.915527,0.050049,0.118530,1.985654,-0.525176,-0.549677
-0.901489,0.072266,0.083740,2.594985,-0.531567,-0.517719
-0.854492,0.120239,0.026489,2.692990,-0.532632,-0.458064
-0.810913,0.171509,0.018066,2.792059,-0.503870,-0.368582
-0.747070,0.230347,0.078491,2.697251,-0.376038,-0.279099
-0.723877,0.266602,0.239746,2.428804,-0.108657,-0.194943
-0.790039,0.230957,0.267700,2.269014,0.035154,-0.087352
-0.845825,0.229492,0.153809,2.077266,-0.051133,-0.174703
-0.873901,0.290649,0.148193,1.703359,-0.123571,-0.341950
-0.900269,0.331665,0.224731,1.206945,-0.143811,-0.422910
-0.909668,0.348633,0.307129,0.654073,-0.057524,-0.435693
-0.929199,0.338257,0.283813,-0.026632,0.099070,-0.286556
-0.921875,0.252686,0.285522,-0.333428,0.158724,-0.189617
-0.920532,0.183228,0.279419,-0.470847,0.180030,-0.095874
-0.921021,0.132324,0.296631,-0.487891,0.198139,0.007457
-0.907349,0.077759,0.317261,-0.388822,0.219445,0.090548
-0.932495,0.039185,0.312012,-0.208792,0.214118,0.175769
-0.943481,0.015015,0.274414,-0.003196,0.160855,0.173638
-0.978394,0.053589,0.250000,0.136354,0.093743,0.139550
-0.998901,0.085205,0.239624,0.200270,0.027697,0.136354
-0.973999,0.121582,0.224243,0.180030,0.008522,0.082025
-0.958862,0.166260,0.196411,0.028762,0.052198,0.095874
-0.991211,0.148560,0.161011,-0.027697,0.088417,0.122505
-1.067871,0.120117,0.137451,-0.017044,0.109722,0.192813
-1.127319,0.075562,0.109497,0.063916,0.122505,0.267381
-1.270630,0.051392,0.108398,0.182160,0.156594,0.246076
-1.369995,0.068115,0.137817,0.314253,0.203466,0.236489
-1.378296,0.123047,0.157593,0.346211,0.278034,0.215184
-1.342651,0.199829,0.146240,0.233293,0.347276,0.169377
-1.290405,0.281006,0.126831,-0.079895,0.381365,0.131028
-1.190674,0.320190,0.111572,-0.745685,0.369647,0.269512
-0.977905,0.288208,0.112671,-1.218663,0.371777,0.405866
-0.869507,0.239990,0.130493,-1.584049,0.383495,0.585896
-0.839722,0.166870,0.140015,-1.787514,0.357929,0.756338
-0.852051,0.106323,0.138184,-1.876997,0.280165,0.861799
-0.881958,0.070068,0.124390,-1.912151,0.150202,0.896953
-0.963745,0.053223,0.109741,-1.948370,-0.010653,0.833037
-1.097778,0.024414,0.108276,-1.950500,-0.205596,0.771252
-1.172119,-0.053711,0.096069,-1.764079,-0.412258,0.726511
-1.198120,-0.108398,0.058594,-1.194162,-0.704140,0.746751
-1.203613,-0.193848,0.000488,-0.556068,-0.903345,0.761664
-1.178467,-0.143799,-0.013916,0.099070,-1.030111,0.745685
-1.163696,-0.089844,-0.014771,0.657268,-1.063134,0.717989
-1.137939,-0.046265,-0.020508,1.089766,-1.002414,0.688161
-1.084229,0.002686,-0.033325,1.364604,-0.882039,0.680704
-1.013794,0.051025,-0.034302,1.474327,-0.715858,0.709466
-0.939087,0.086182,-0.012695,1.443434,-0.512392,0.727576
-0.896362,0.114868,0.016724,1.294297,-0.313188,0.730772
-0.871094,0.126465,0.024902,1.054612,-0.184291,0.696683
-0.855103,0.134521,0.032471,0.565656,-0.121440,0.581635
-0.832031,0.147461,0.043213,0.210922,-0.115049,0.484696
-0.806030,0.138428,0.054199,-0.133158,-0.109722,0.388822
-0.786743,0.102661,0.070068,-0.378169,-0.085221,0.274838
-0.765991,0.068481,0.092285,-0.497479,-0.027697,0.154463
-0.770142,0.040405,0.091431,-0.495348,0.027697,-0.004261
-0.815430,0.008545,0.075806,-0.420780,0.034088,-0.187487
-0.879517,0.017456,0.057373,-0.312123,0.020240,-0.380300
-0.963867,0.054565,0.058960,-0.203466,-0.036219,-0.496413
-1.015381,0.054321,0.070679,0.113983,-0.119310,-0.625310
-1.089111,0.107056,0.088135,0.350472,-0.145941,-0.688161
-1.112549,0.130493,0.100586,0.532632,-0.168312,-0.747816
-1.138184,0.141846,0.108765,0.693487,-0.178964,-0.797883
-1.197510,0.131104,0.113647,0.838363,-0.201335,-0.869256
-1.288574,0.126099,0.120972,0.981109,-0.229032,-0.975783
-1.374268,0.142944,0.117798,1.095092,-0.279099,-1.095092
-1.413940,0.149902,0.084229,1.190966,-0.347276,-1.172857
-1.405884,0.147949,0.052734,1.282579,-0.395213,-1.197358
-1.340088,0.156250,0.067017,1.339038,-0.347276,-1.176052
-1.222046,0.163696,0.152588,1.272992,-0.014914,-1.080179
-1.028442,0.164551,0.208618,1.133442,0.290817,-1.005610
-0.932739,0.166870,0.233032,0.985370,0.520915,-0.915063
-0.844604,0.154175,0.211182,0.861799,0.581635,-0.855408
-0.790039,0.133179,0.158936,0.752077,0.492152,-0.859669
-0.794312,0.103760,0.115601,0.645550,0.337689,-0.934237
-0.865723,0.089600,0.110352,0.562460,0.170442,-1.050351
-0.908203,0.088257,0.114258,0.526241,0.007457,-1.119593
-0.902588,0.084717,0.110840,0.570982,-0.077764,-1.173922
-0.922485,0.086792,0.092896,0.769121,-0.082025,-1.200554
-0.948486,0.105835,0.082642,0.937433,-0.028762,-1.180313
-0.949951,0.115845,0.099731,1.101484,0.066046,-1.091897
-0.936157,0.130859,0.163574,1.229316,0.220510,-0.940629
-0.924438,0.128296,0.200317,1.456217,0.348342,-0.696683
-0.889893,0.117554,0.177490,1.715076,0.345146,-0.478304
-0.869873,0.125122,0.165649,1.896171,0.304666,-0.307862
-0.850220,0.124512,0.199951,1.968609,0.265251,-0.190682
-0.832153,0.119141,0.212158,1.986719,0.236489,-0.137419
-0.846191,0.136108,0.232666,1.855691,0.252468,-0.100135
-0.844238,0.123291,0.305786,1.576592,0.273773,-0.047937
-0.871704,0.111206,0.343750,1.395497,0.281230,-0.058590
-0.882202,0.120605,0.341309,1.236773,0.268447,-0.029827
-0.929443,0.109009,0.352295,1.071656,0.222640,0.022371
-0.921875,0.089233,0.355957,0.957673,0.154463,0.100135
-0.890503,0.053223,0.335327,0.927846,0.074569,0.176834
-0.873047,-0.005859,0.299072,0.998153,-0.004261,0.237554
-0.913940,-0.029419,0.283569,1.146225,-0.077764,0.248207
-0.992432,-0.030273,0.253662,1.356082,-0.176834,0.287622
-1.026123,-0.032715,0.196777,1.700163,-0.355798,0.377104
