ax,ay,az,gx,gy,gz
-1.048218,-0.070923,-0.259399,-1.316667,-0.390952,0.144876
-1.017822,-0.064331,-0.243652,-1.020524,-0.275904,0.051133
-1.030762,-0.000854,-0.239136,-0.835168,-0.174703,0.104396
-1.005859,-0.000854,-0.245728,-0.664725,-0.106526,-0.035154
-1.013062,0.065430,-0.248413,-0.610397,-0.039415,-0.025566
-0.917114,0.070801,-0.234863,-0.618919,0.017044,-0.136354
-0.966431,0.207520,-0.223755,-0.794688,0.066046,0.161920
-0.894409,0.094116,-0.195679,-1.015197,0.107592,0.001065
-0.840088,0.146606,-0.174561,-1.148355,0.155529,-0.166181
-0.873291,0.167480,-0.153564,-1.303884,0.176834,-0.209857
-0.846436,0.161499,-0.132324,-1.433846,0.176834,-0.305731
-0.853760,0.200928,-0.121460,-1.569135,0.156594,-0.340885
-0.897949,0.227539,-0.113525,-1.767274,0.104396,-0.336624
-0.940552,0.238892,-0.111694,-2.002698,0.027697,-0.337689
-0.974487,0.181396,-0.109009,-1.967544,-0.045806,-0.343015
-1.058960,0.098389,-0.091797,-1.691641,-0.053263,-0.351537
-1.111206,0.119751,-0.080811,-1.419998,-0.068177,-0.305731
-1.156250,0.142700,-0.077637,-1.242099,-0.118244,-0.173638
-1.189453,0.131470,-0.052002,-1.192031,-0.196009,-0.038350
-1.179810,0.024414,-0.044678,-1.037568,-0.119310,0.233293
-1.127930,0.032715,-0.056763,-0.635963,0.181095,0.521980
-1.195557,0.140259,-0.072754,-0.116114,0.288687,0.565656
-1.323730,0.325562,-0.101685,0.148072,0.117179,0.427171
-1.369385,0.385986,-0.128540,-0.389887,-0.128897,0.550742
-1.387817,0.338013,-0.083496,-0.905475,-0.164051,0.596548
-1.301514,0.373169,-0.011841,-1.511611,-0.103331,0.580569
-1.145630,0.381348,0.044556,-2.044243,0.042611,0.628506
-0.966309,0.308960,0.075195,-2.378736,0.213053,0.746751
-0.800659,0.169189,0.097534,-2.406433,0.281230,0.871387
-0.664185,0.011230,0.079102,-2.135856,0.226901,1.003479
-0.566772,-0.153931,0.068726,-1.687380,0.077764,1.005610
-0.525513,-0.218994,0.083984,-1.146225,-0.107592,0.683900
-0.580322,-0.108398,0.099243,-0.742490,-0.285491,0.479369
-0.616333,-0.032593,0.109985,-0.415453,-0.432498,0.319579
-0.746948,0.067261,0.097900,-0.388822,-0.432498,0.156594
-0.840576,0.099365,0.089233,-0.526241,-0.376038,-0.051133
-0.919067,0.175171,0.079102,-0.694553,-0.237554,-0.320645
-1.015381,0.197510,0.068115,-0.950216,-0.070307,-0.325971
-1.054932,0.179810,0.043457,-1.074852,0.106526,-0.464455
-1.078613,0.199341,0.019531,-1.054612,0.290817,-0.613593
-1.106445,0.226929,0.010254,-1.007741,0.445281,-0.518784
-1.088623,0.255615,0.003662,-1.015197,0.539024,-0.315318
-1.030396,0.220093,0.012451,-0.975783,0.559264,0.015979
-0.941284,0.206909,0.013306,-0.920389,0.529437,0.064981
-0.920166,0.218018,0.002808,-1.102549,0.535828,0.117179
-0.915283,0.185059,0.042603,-1.174987,0.519849,0.120375
-0.900269,0.203247,0.031494,-1.321994,0.567786,0.134223
-0.883179,0.175049,0.034302,-1.502023,0.633833,0.122505
-0.877075,0.126343,0.052979,-1.503089,0.668986,0.058590
-0.876953,0.116455,0.074463,-1.407215,0.674313,0.001065
-0.892090,0.109985,0.103760,-1.281514,0.649812,-0.060720
-0.906738,0.119263,0.124390,-1.130246,0.600809,-0.096939
-0.947876,0.124268,0.140015,-0.889496,0.512392,-0.123571
-1.008179,0.143677,0.145752,-0.651942,0.439954,-0.165116
-1.039551,0.206421,0.119141,-0.477239,0.351537,-0.180030
-1.039185,0.278809,0.078125,-0.570982,0.284426,-0.157659
-1.047729,0.282349,0.013184,-0.950216,0.298274,-0.077764
-1.069824,0.219971,-0.020996,-1.213337,0.363255,-0.022371
-1.129761,0.110229,-0.072144,-1.163269,0.381365,0.041545
-1.173584,0.018555,-0.125977,-0.918258,0.316384,0.069242
-1.243164,0.003174,-0.136230,-0.617854,0.258859,0.031958
-1.270630,0.060791,-0.133423,-0.386691,0.257794,-0.028762
-1.187622,0.156006,-0.134888,-0.463390,0.339819,-0.026632
-1.115967,0.144531,-0.139404,-0.686031,0.437824,-0.029827
-1.037964,0.130981,-0.144531,-0.907606,0.547546,-0.061785
-0.969238,0.127563,-0.145264,-1.111071,0.643420,-0.119310
-0.883667,0.116699,-0.145508,-1.291101,0.730772,-0.187487
-0.802612,0.117798,-0.144043,-1.466870,0.826646,-0.242880
-0.754761,0.120850,-0.157593,-1.640508,0.907606,-0.279099
-0.761963,0.122559,-0.180542,-1.823733,0.929976,-0.318514
-0.828125,0.100220,-0.214844,-1.980327,0.885235,-0.312123
-0.899780,0.036621,-0.225708,-2.044243,0.741424,-0.278034
-0.938599,-0.000244,-0.215332,-1.960087,0.621049,-0.295078
-0.959229,-0.002686,-0.239380,-1.863148,0.507066,-0.445281
-1.016846,-0.002197,-0.258789,-1.788580,0.415453,-0.609331
-1.047119,-0.000977,-0.274902,-1.612811,0.307862,-0.775513
-1.014160,-0.001587,-0.306885,-1.357147,0.194943,-0.883105
-0.998657,-0.003906,-0.337402,-1.030111,0.112918,-0.962999
-0.997559,0.043457,-0.349609,-0.738229,0.060720,-0.969391
-1.006958,0.102539,-0.345947,-0.539024,0.054329,-0.898018
-1.025391,0.145874,-0.325562,-0.405866,0.152333,-0.728641
-1.057739,0.249512,-0.292969,-0.490022,0.238619,-0.618919
-1.070313,0.263184,-0.301758,-0.694553,0.281230,-0.543285
-1.049683,0.238525,-0.304810,-0.876713,0.297209,-0.438889
-1.031860,0.213989,-0.298950,-1.005610,0.275904,-0.256729
-0.993896,0.153198,-0.300049,-1.125985,0.222640,-0.168312
-0.944702,0.106689,-0.285400,-1.165400,0.191748,-0.147007
-1.015259,0.118286,-0.268066,-1.130246,0.204531,-0.034088
-0.941162,0.026123,-0.258911,-1.133442,0.213053,0.026632
-0.981812,0.075562,-0.256470,-1.051416,0.183226,-0.132093
-1.167480,0.122314,-0.259644,-1.271926,-0.138484,0.106526
-0.993774,0.025635,-0.245605,-1.257013,-0.353668,0.002131
-1.108032,-0.004883,-0.255127,-1.204815,-0.532632,0.015979
-1.080811,-0.081421,-0.263184,-1.038633,-0.667921,-0.001065
-1.067993,-0.088379,-0.283936,-0.804275,-0.743555,-0.022371
-1.095215,-0.088379,-0.291626,-0.613593,-0.763795,-0.031958
-1.160889,-0.112305,-0.291626,-0.438889,-0.747816,-0.015979
-1.261597,-0.090820,-0.293091,-0.318514,-0.758469,0.023436
-1.279785,-0.025879,-0.270386,-0.344081,-0.742490,0.007457
-1.196289,0.046021,-0.217773,-0.621049,-0.526241,0.074569
-0.993652,0.058838,-0.149536,-0.773382,-0.322775,0.203466
-0.888794,0.036987,-0.069214,-0.700944,-0.174703,0.380300
-0.790161,-0.040649,-0.056396,-0.562460,-0.108657,0.380300
-0.859375,-0.048706,-0.040039,-0.499609,-0.199205,0.595483
-0.922852,-0.148315,0.025513,-0.257794,-0.284426,0.572047
-0.990723,0.010620,0.007324,-0.311057,-0.192813,0.709466
-1.088623,0.022583,-0.001587,-0.655138,-0.064981,0.677508
-1.014282,0.014526,0.093750,-1.082309,0.197074,0.569917
-1.085449,0.024048,0.137939,-1.416802,0.410127,0.395213
-1.180786,-0.051636,0.062134,-1.280448,0.144876,0.345146
-1.096313,-0.074341,-0.050049,-1.030111,-0.145941,0.371777
-1.036621,-0.064941,-0.128174,-0.853277,-0.401605,0.306796
-1.069824,-0.029907,-0.106934,-0.815993,-0.626376,0.089482
-1.065552,0.092773,-0.130859,-0.879909,-0.690292,0.204531
-0.915405,0.011719,-0.169556,-1.009871,-0.593353,0.158724
-0.957886,0.010498,-0.190796,-1.007741,-0.344081,0.123571
-1.022461,0.014160,-0.176270,-0.951282,-0.167247,0.066046
-0.838013,0.105469,-0.172729,-0.925715,0.082025,0.344081
-0.695068,0.042847,-0.174316,-0.879909,0.456999,0.082025
-0.805786,0.084229,-0.171021,-0.919324,0.590157,-0.153398
-0.752441,0.118652,-0.164429,-1.026915,0.631702,-0.409062
-0.698975,0.099487,-0.163574,-1.104680,0.664725,-0.609331
-0.856079,0.105591,-0.185791,-1.058873,0.673247,-0.616788
-0.853516,0.079834,-0.186401,-1.052482,0.664725,-0.686031
-0.818726,0.134766,-0.180176,-1.134507,0.674313,-0.545416
-0.822266,0.123657,-0.179687,-1.261274,0.703075,-0.576308
-0.863037,0.133911,-0.160400,-1.383779,0.774448,-0.590157
-0.885010,0.115967,-0.137817,-1.500958,0.858603,-0.541155
-0.896484,0.069092,-0.114014,-1.466870,0.965130,-0.504936
-0.918945,0.095459,-0.087280,-1.384844,1.013067,-0.488957
-0.930786,0.120605,-0.076538,-1.320928,1.022654,-0.435693
-0.956055,0.062744,-0.032959,-1.159008,0.950216,-0.397344
-0.997314,0.010620,0.015869,-0.845820,0.797883,-0.459129
-1.061035,0.059937,0.067261,-0.827711,0.691357,-0.491087
-1.135132,0.081299,0.089600,-0.980044,0.598679,-0.482565
-1.177124,0.055054,0.072021,-1.069526,0.459129,-0.551807
-1.174683,0.034790,0.008423,-1.172857,0.272708,-0.676443
-1.134033,0.014648,-0.061401,-1.316667,0.036219,-0.806406
-1.062012,-0.016846,-0.161987,-1.247425,-0.035154,-0.869256
-0.968750,-0.068359,-0.230469,-1.039698,-0.037284,-0.809601
-0.958984,-0.139160,-0.273560,-0.709466,-0.006392,-0.727576
-1.059814,-0.119507,-0.269775,-0.395213,0.003196,-0.626376
-1.114502,-0.068359,-0.284302,-0.285491,-0.086286,-0.519849
-1.156250,-0.122681,-0.332886,-0.245011,-0.260990,-0.415453
-1.123779,-0.168091,-0.387451,-0.155529,-0.475108,-0.353668
-1.088257,-0.192261,-0.415649,-0.084156,-0.632767,-0.226901
-1.058472,-0.134521,-0.385498,-0.154463,-0.645550,0.188552
-0.964966,-0.067627,-0.290405,-0.384561,-0.340885,0.296144
-0.907227,-0.081177,-0.300659,-0.627441,-0.137419,0.542220
-0.962891,-0.223999,-0.309448,-0.695618,-0.008522,0.696683
-1.009033,-0.290405,-0.293701,-0.590157,0.082025,0.921454
-0.914062,-0.463867,-0.299438,-0.430367,0.128897,0.470847
-1.142212,-0.306274,-0.324463,-0.364321,0.034088,0.762730
-1.049438,-0.386841,-0.338745,-0.383495,-0.082025,0.519849
-1.044434,-0.265625,-0.349121,-0.506001,-0.156594,0.338754
-1.054565,-0.205811,-0.333496,-0.764860,-0.167247,0.154463
-0.939941,-0.218140,-0.314941,-1.202684,-0.056459,-0.104396
-0.898437,-0.234863,-0.270996,-1.396562,0.040480,-0.224771
-0.912354,-0.237793,-0.276733,-1.493501,0.125701,-0.236489
-0.947632,-0.262695,-0.278809,-1.398693,0.203466,-0.298274
-0.968994,-0.256836,-0.275146,-1.200554,0.240750,-0.294013
-0.969482,-0.218750,-0.258301,-1.032242,0.253533,-0.225836
-0.953125,-0.188354,-0.243286,-0.857538,0.255664,-0.172573
-0.977051,-0.169189,-0.233887,-0.660464,0.233293,-0.140615
-0.968140,-0.149902,-0.224976,-0.450607,0.206661,-0.118244
-0.961670,-0.101196,-0.218262,-0.294013,0.196009,-0.117179
-0.973755,-0.050903,-0.183594,-0.251403,0.197074,-0.136354
-0.980713,0.012329,-0.151611,-0.312123,0.206661,-0.118244
-0.978638,0.070190,-0.113403,-0.438889,0.197074,-0.135289
-0.976929,0.139282,-0.085327,-0.600809,0.138484,-0.196009
-0.976074,0.157349,-0.089233,-0.808536,0.022371,-0.247141
-1.012939,0.166504,-0.125732,-0.974717,-0.142745,-0.332363
-1.044312,0.197632,-0.142944,-1.064200,-0.323841,-0.082025
-1.030029,0.104004,-0.143433,-1.056743,-0.496413,0.103331
-1.009155,0.055420,-0.128784,-0.893757,-0.632767,-0.028762
-1.013916,0.041382,-0.123047,-0.502805,-0.770186,-0.119310
-1.038330,0.070190,-0.121460,-0.200270,-0.819189,-0.033023
-1.049561,0.067139,-0.131226,0.072438,-0.849016,0.006392
-1.054932,0.108032,-0.155029,0.289752,-0.908671,0.176834
-1.054321,0.092407,-0.152954,0.356864,-1.008806,0.311057
-1.012085,0.117065,-0.136719,0.423975,-1.042894,0.253533
-1.015015,0.132080,-0.133057,0.527306,-1.008806,0.186421
-1.064209,0.130615,-0.111328,0.576308,-0.917193,0.102265
-1.056641,0.132324,-0.076660,0.560329,-0.762730,0.102265
-1.045654,0.139893,-0.055786,0.466586,-0.596548,0.194943
-1.119141,0.086914,-0.057739,0.264186,-0.477239,0.303600
-1.373535,0.192627,-0.023682,-0.018110,-0.478304,0.224771
-1.378296,0.249146,-0.006592,-0.407996,-0.512392,0.023436
-1.263184,0.311890,-0.014404,-0.805340,-0.519849,-0.071373
-1.091675,0.319092,-0.029907,-1.086570,-0.477239,0.137419
-0.857178,0.244995,-0.042603,-1.182444,-0.388822,0.436759
-0.729004,0.182739,-0.073975,-1.085505,-0.282295,0.597614
-0.737671,0.150635,-0.104370,-1.079113,-0.177899,0.589091
-0.892822,0.178101,-0.105347,-1.134507,-0.120375,0.707336
-0.985718,0.194702,-0.099487,-1.401889,-0.140615,0.875648
-1.043945,0.132324,-0.129272,-1.601093,-0.204531,0.939564
-1.070923,0.053833,-0.162598,-1.710815,-0.272708,0.911867
-1.062622,0.016602,-0.170532,-1.680988,-0.284426,0.849016
-1.020020,-0.003174,-0.172119,-1.570200,-0.214118,0.757403
-0.954590,-0.034912,-0.173218,-1.404019,-0.068177,0.651942
-0.936890,-0.007935,-0.177368,-1.265535,0.099070,0.568851
-0.966553,0.020630,-0.181885,-1.235707,0.233293,0.461260
-0.987915,0.053711,-0.172852,-1.320928,0.331297,0.368582
-0.952271,0.084229,-0.164185,-1.496697,0.403735,0.005326
-0.913818,0.101440,-0.159302,-1.831190,0.468717,0.150202
-0.870483,0.099487,-0.138794,-2.012285,0.525176,0.084156
-0.873047,0.111694,-0.105835,-2.163553,0.600809,0.029827
-0.890137,0.091553,-0.081055,-2.257296,0.673247,-0.018110
-0.920532,0.071045,-0.077637,-2.284993,0.705205,-0.070307
-0.991821,0.067017,-0.102783,-2.280732,0.649812,-0.155529
-1.039673,0.062866,-0.111084,-2.264753,0.551807,-0.235424
-1.029053,0.065186,-0.109497,-2.216816,0.472978,-0.245011
-0.988281,0.047852,-0.112915,-2.142248,0.429302,-0.169377
-0.934082,-0.008057,-0.103882,-1.908955,0.451672,-0.014914
-0.927490,-0.025513,-0.069702,-1.702293,0.481500,0.023436
-0.931152,-0.034180,-0.039917,-1.508415,0.507066,0.030893
-0.929199,-0.055908,-0.019531,-1.343299,0.504936,0.002131
-0.933350,-0.045776,-0.016479,-1.220794,0.469782,-0.067112
-0.970093,0.006470,-0.020020,-1.136638,0.400540,-0.157659
-1.014282,0.053711,-0.030273,-1.112136,0.302535,-0.208792
-1.031982,0.077271,-0.031860,-1.139833,0.216249,-0.196009
-1.044556,0.059570,-0.041260,-1.115332,0.148072,-0.155529
-1.074585,0.017578,-0.064331,-1.008806,0.095874,-0.074569
-1.186646,-0.016357,-0.118164,-0.807471,0.014914,-0.080960
-1.448608,-0.026978,-0.120728,-0.684965,-0.020240,-0.092678
-1.455322,0.006958,-0.106934,-0.648746,0.000000,-0.062851
-1.302734,0.039673,-0.090820,-0.643420,0.079895,-0.068177
-1.114990,0.050537,-0.095581,-0.639159,0.172573,-0.004261
-0.999390,0.059448,-0.103760,-0.613593,0.242880,0.052198
-0.915527,0.093262,-0.086426,-0.627441,0.281230,0.116114
-0.835571,0.112427,-0.054932,-0.719054,0.330232,0.222640
-0.793213,0.130859,-0.020874,-0.847951,0.388822,0.318514
-0.790771,0.096558,0.010132,-0.920389,0.434628,0.357929
-0.803833,0.047729,-0.037231,-0.885235,0.372843,0.344081
-0.869019,-0.005615,-0.115234,-0.868191,0.201335,0.316384
-0.968506,-0.031372,-0.189575,-0.864995,-0.015979,0.247141
-1.064331,-0.034912,-0.238892,-0.934237,-0.193878,0.184291
-1.093384,-0.072754,-0.258911,-1.049286,-0.241815,0.188552
-1.094482,-0.105957,-0.278442,-1.156878,-0.137419,0.137419
-1.173584,-0.109619,-0.303101,-1.233577,0.006392,0.095874
-1.202881,-0.125000,-0.318481,-1.297493,0.134223,0.086286
-1.155640,-0.139526,-0.317383,-1.336907,0.243946,0.035154
-1.129761,-0.116211,-0.268677,-1.345430,0.398409,-0.035154
-1.057861,-0.056030,-0.216797,-1.344364,0.491087,-0.102265
-1.009644,-0.016968,-0.169067,-1.350756,0.562460,-0.107592
-0.974365,0.014526,-0.148682,-1.373126,0.590157,-0.066046
-0.945312,-0.000122,-0.156860,-1.406150,0.550742,0.018110
-0.900146,-0.041260,-0.153198,-1.412541,0.512392,0.011718
-0.936890,-0.169067,-0.114624,-1.328385,0.445281,-0.673247
-0.973267,0.065796,-0.099487,-1.268731,0.380300,-0.270577
-0.961304,0.003418,-0.081787,-1.366735,0.311057,-0.049002
-0.944946,-0.037476,-0.079468,-1.254882,0.190682,-0.220510
-0.899658,0.017700,-0.075806,-1.106810,0.128897,-0.242880
-0.928223,0.088257,-0.047241,-0.981109,0.092678,-0.172573
-1.000366,0.088623,-0.039063,-0.868191,0.017044,-0.108657
-0.998657,0.070679,-0.078979,-0.730772,-0.127832,-0.012783
-0.999390,0.041504,-0.121704,-0.545416,-0.314253,0.107592
-1.010986,0.022339,-0.133423,-0.324906,-0.474043,0.172573
-1.044189,0.053711,-0.110596,-0.141680,-0.537959,0.207727
-1.100464,0.070190,-0.077148,-0.008522,-0.507066,0.190682
-1.121948,0.090820,-0.062622,0.103331,-0.431432,0.201335
-1.149658,0.106079,-0.065430,0.158724,-0.407996,0.183226
-1.321899,0.088989,-0.088745,0.211988,-0.519849,0.191748
-1.422852,0.113647,-0.095215,0.294013,-0.715858,0.185356
-1.442871,0.145630,-0.074341,0.380300,-0.944890,0.185356
-1.361816,0.151245,-0.028931,0.508131,-0.977913,0.190682
-1.219116,0.163330,-0.012817,0.660464,-0.833037,0.343015
-1.028076,0.187744,0.002930,0.751012,-0.551807,0.578439
-0.852783,0.214111,0.026978,0.726511,-0.207727,0.674313
-0.739014,0.282349,0.046143,0.558199,0.115049,0.781904
-0.683350,0.275757,0.049805,0.108657,0.407996,0.988566
-0.675171,0.242310,0.057617,-0.303600,0.448477,1.074852
-0.725830,0.221558,0.064453,-0.733967,0.383495,1.072722
-0.832520,0.128174,0.057983,-1.029046,0.264186,0.966195
-0.912842,0.042358,0.033325,-1.140899,0.099070,0.781904
-0.930786,-0.032837,0.015015,-1.117463,-0.029827,0.725445
-0.952637,-0.095215,-0.010498,-0.942759,-0.091613,0.677508
-0.988647,-0.122803,-0.037964,-0.692422,-0.079895,0.449542
-1.020996,-0.089844,-0.059937,-0.486826,0.001065,0.296144
-0.985718,-0.081421,-0.062012,-0.370712,0.148072,0.011718
-0.984741,-0.054077,-0.074097,-0.343015,0.373908,-0.178964
-0.942261,-0.079712,-0.054565,-0.371777,0.510262,-0.436759
-0.975830,0.076782,-0.034058,-0.528371,0.592287,-0.311057
-0.942871,0.131470,-0.017822,-0.869256,0.589091,0.102265
-0.895630,0.021484,0.002319,-1.054612,0.576308,0.050067
-0.919556,-0.033813,-0.005615,-1.052482,0.578439,-0.338754
-1.049072,0.005127,-0.082764,-0.762730,0.519849,-0.350472
-1.124634,-0.060303,-0.156372,-0.520915,0.455933,-0.257794
-1.062988,-0.116455,-0.135864,-0.199205,0.531567,-0.494283
-0.984985,-0.006958,-0.056030,-0.075634,0.961934,-0.698814
-1.012817,-0.021362,-0.019409,0.112918,1.192031,-0.663660
-1.049683,-0.112183,-0.104980,0.229032,1.185640,-0.695618
-1.093994,-0.039673,-0.088135,0.214118,1.003479,-0.851147
-1.130371,0.021973,0.000488,0.186421,0.787231,-0.876713
-1.031128,-0.029419,0.136841,0.458064,0.627441,-1.022654
-1.038452,0.004761,0.168335,0.892692,0.659399,-0.644485
-0.931885,-0.052124,0.074951,1.071656,0.705205,-0.970456
-0.925659,0.064453,-0.039917,1.002414,0.687096,-0.989631
-1.105591,0.136719,-0.133545,0.638094,0.598679,-0.886300
-1.040649,0.104126,-0.237427,0.247141,0.443150,-0.785100
-1.001099,0.034302,-0.269043,0.084156,0.376038,-0.810667
-1.004028,0.098389,-0.274170,-0.090548,0.412258,-0.856473
-1.047119,0.121826,-0.271240,-0.276969,0.515588,-0.721184
-1.090576,0.069824,-0.284790,-0.361125,0.602940,-0.564590
-1.079224,-0.011108,-0.282837,-0.337689,0.639159,-0.498544
-1.146973,-0.069214,-0.241333,-0.260990,0.640224,-0.539024
-1.224609,0.002563,-0.212036,-0.200270,0.560329,-0.645550
-1.244507,0.075928,-0.224854,-0.168312,0.347276,-0.747816
-1.167603,0.111084,-0.239014,-0.230097,0.005326,-0.703075
-0.983398,0.070679,-0.227661,-0.288687,-0.095874,-0.556068
-0.855347,0.018311,-0.213867,-0.263120,-0.042611,-0.354733
-0.760864,-0.018433,-0.209473,-0.240750,0.086286,-0.221575
-0.743408,-0.002441,-0.217407,-0.325971,0.207727,-0.191748
-0.788940,-0.001953,-0.219604,-0.540089,0.280165,-0.172573
-0.816650,-0.078369,-0.229736,-0.814928,0.264186,-0.134223
-0.886597,-0.213379,-0.255249,-0.982174,0.178964,-0.101200
-0.940430,-0.251343,-0.286255,-1.039698,0.037284,-0.241815
-0.970337,-0.266724,-0.313721,-0.997088,-0.120375,-0.316384
-1.044556,-0.396118,-0.338501,-0.753142,-0.306796,-0.296144
-1.099487,-0.431396,-0.343872,-0.553938,-0.380300,-0.262055
-1.085083,-0.354126,-0.344604,-0.431432,-0.384561,-0.226901
-1.030518,-0.237305,-0.339844,-0.439954,-0.320645,-0.235424
-1.002319,-0.158936,-0.328491,-0.546481,-0.197074,-0.276969
-0.977173,-0.117310,-0.335815,-0.729706,-0.084156,-0.267381
-0.959839,-0.123657,-0.342407,-0.894822,-0.027697,-0.221575
-0.934692,-0.138062,-0.329956,-0.996023,-0.031958,-0.209857
-0.896973,-0.143921,-0.312012,-1.030111,-0.080960,-0.237554
-0.872437,-0.144409,-0.300293,-1.154747,-0.205596,-0.256729
-0.895874,-0.190674,-0.296265,-1.173922,-0.304666,-0.294013
-0.879761,-0.176636,-0.298584,-1.070591,-0.378169,-0.354733
-0.889771,-0.129883,-0.309570,-0.985370,-0.461260,-0.304666
-0.907349,-0.073242,-0.309937,-0.973652,-0.551807,-0.194943
-0.924072,-0.049683,-0.298096,-0.954477,-0.614658,-0.140615
-0.969360,-0.084473,-0.308228,-0.941694,-0.683900,-0.095874
-1.000610,-0.097778,-0.331787,-0.876713,-0.722250,-0.024501
-0.996582,-0.114258,-0.364868,-0.863930,-0.765925,0.024501
-0.962646,-0.157593,-0.369507,-0.695618,-0.800014,0.109722
-0.942139,-0.104370,-0.397095,-0.601875,-0.714793,0.157659
-0.965210,-0.081665,-0.396606,-0.614658,-0.557134,0.205596
-0.964966,-0.061646,-0.384766,-0.711597,-0.411192,0.211988
-1.003906,-0.063232,-0.384644,-0.862865,-0.331297,0.186421
-1.049561,-0.093506,-0.379639,-0.988566,-0.320645,0.162986
-1.091553,-0.146362,-0.379761,-1.058873,-0.371777,0.125701
-1.165405,-0.204224,-0.338135,-1.001349,-0.407996,0.071373
-1.187866,-0.247559,-0.252441,-0.822384,-0.364321,0.011718
-1.187378,-0.106079,-0.215698,-0.703075,-0.350472,-0.100135
-1.136353,-0.027100,-0.191406,-0.741424,-0.465521,-0.181095
-1.011597,0.086914,-0.184082,-0.831972,-0.568851,-0.150202
-0.945923,0.099243,-0.208862,-0.967261,-0.668986,-0.062851
-0.880737,0.123779,-0.216309,-1.103614,-0.694553,0.075634
-0.812378,0.089844,-0.221191,-1.315602,-0.654073,0.272708
-0.770264,0.030762,-0.194702,-1.521198,-0.529437,0.437824
-0.762817,-0.002075,-0.197754,-1.613876,-0.399474,0.544350
-0.828857,0.026245,-0.220459,-1.655422,-0.311057,0.572047
-0.943359,-0.009033,-0.236572,-1.591506,-0.252468,0.586961
-1.019653,-0.072998,-0.236328,-1.512676,-0.155529,0.623180
-1.078491,-0.007324,-0.228638,-1.512676,0.038350,0.693487
-1.093140,-0.034912,-0.215698,-1.590441,0.175769,0.688161
-1.116455,-0.010498,-0.246704,-1.716142,0.246076,0.521980
-1.220581,0.000366,-0.305542,-2.058092,0.238619,0.570982
-1.241089,0.037109,-0.333496,-2.555570,0.209857,0.680704
-1.164551,0.120605,-0.292236,-3.088203,0.225836,0.844755
-1.085693,-0.015015,-0.240845,-3.289538,0.348342,1.068461
-0.777466,-0.237671,-0.210327,-2.997655,0.543285,0.951282
-0.916138,-0.251831,-0.220093,-2.424543,0.692422,0.788296
-0.866699,-0.246826,-0.211182,-1.715076,0.751012,0.527306
-0.981445,-0.115112,-0.214111,-1.693771,0.627441,0.281230
-0.872314,-0.074585,-0.196045,-1.701228,0.530502,-0.086286
-0.843506,-0.027466,-0.189697,-1.786449,0.460194,-0.158724
-0.945923,-0.043945,-0.187500,-1.871670,0.415453,-0.223706
-0.961914,-0.041626,-0.185547,-1.887649,0.425041,-0.280165
-0.985352,-0.019409,-0.199585,-1.839713,0.454868,-0.309992
-1.024902,-0.009521,-0.195435,-1.786449,0.492152,-0.266316
-1.008545,-0.033813,-0.138062,-1.669270,0.523045,-0.196009
-1.007446,0.011963,-0.081299,-1.562744,0.536893,-0.178964
-1.030518,0.006958,-0.015381,-1.548895,0.464455,-0.172573
-1.021240,0.006836,-0.019531,-1.500958,0.350472,-0.181095
-1.026855,0.016479,-0.039429,-1.419998,0.217314,-0.192813
-0.992798,0.038330,-0.079102,-1.287905,0.137419,-0.205596
-0.971436,0.093994,-0.116211,-1.174987,0.118244,-0.268447
-0.978516,0.127563,-0.142456,-1.155812,0.124636,-0.337689
-0.969971,0.123047,-0.148071,-1.105745,0.175769,-0.350472
-0.956299,0.128784,-0.160400,-0.980044,0.229032,-0.368582
-0.974976,0.111938,-0.179810,-0.825580,0.253533,-0.361125
-0.988770,0.084961,-0.177002,-0.556068,0.242880,-0.292948
-0.969360,0.109741,-0.181030,-0.464455,0.198139,-0.202400
-0.937622,0.114014,-0.185181,-0.456999,0.138484,-0.132093
-0.926758,0.081787,-0.186890,-0.453803,0.101200,-0.101200
-0.927246,0.050415,-0.191528,-0.432498,0.095874,-0.125701
-0.962036,0.042236,-0.194824,-0.421845,0.102265,-0.174703
-1.026733,0.030029,-0.195190,-0.438889,0.117179,-0.232228
-1.106934,0.023315,-0.205444,-0.494283,0.106526,-0.285491
-1.159180,0.015991,-0.214233,-0.594418,0.063916,-0.343015
-1.188110,0.010132,-0.232056,-0.691357,-0.034088,-0.452738
-1.149048,0.031860,-0.245483,-0.853277,-0.061785,-0.490022
-1.074829,0.034546,-0.254150,-1.025850,-0.040480,-0.493218
-1.012817,0.025146,-0.261841,-1.189901,0.083091,-0.484696
-0.956299,-0.004639,-0.232178,-1.300688,0.317449,-0.420780
-0.895142,-0.065552,-0.188843,-1.304950,0.595483,-0.274838
-0.849854,-0.169678,-0.169556,-1.133442,0.819189,-0.169377
-0.832764,-0.216187,-0.174683,-0.874582,0.919324,-0.111853
-0.862427,-0.229370,-0.205811,-0.654073,0.866060,-0.128897
-0.951782,-0.256470,-0.236084,-0.531567,0.696683,-0.150202
-1.006836,-0.232300,-0.271729,-0.644485,0.402670,-0.200270
-1.110718,-0.177612,-0.248535,-0.907606,0.215184,-0.346211
-1.177368,-0.211792,-0.213867,-1.086570,0.109722,-0.549677
-1.198364,-0.205688,-0.214478,-1.192031,0.004261,-0.562460
-1.129639,-0.208374,-0.206177,-1.271926,-0.017044,-0.568851
-1.040771,-0.198975,-0.154297,-1.179248,0.044741,-0.626376
-0.982666,-0.196411,-0.111938,-0.916128,0.165116,-0.705205
-0.993896,-0.100830,-0.097656,-0.691357,0.257794,-0.602940
-0.973877,-0.087036,-0.104858,-0.638094,0.306796,-0.503870
-0.948730,-0.025635,-0.158081,-0.804275,0.258859,-0.387756
-0.937378,-0.054321,-0.225098,-1.088701,0.204531,-0.355798
-0.936523,-0.076660,-0.265747,-1.039698,0.121440,-0.349407
-0.925659,-0.109863,-0.314941,-0.868191,0.003196,-0.343015
-0.915039,-0.127930,-0.343872,-0.597614,-0.067112,-0.323841
-0.925293,-0.098267,-0.352417,-0.288687,-0.077764,-0.274838
-0.913330,-0.046265,-0.340210,-0.044741,-0.040480,-0.199205
-0.905518,0.001587,-0.314453,0.086286,0.026632,-0.104396
-0.938843,0.038208,-0.305420,0.113983,0.083091,-0.020240
-0.932129,0.048706,-0.323730,0.036219,0.107592,0.057524
-0.907227,0.039307,-0.343506,-0.202400,0.127832,0.092678
-0.915771,0.034668,-0.343262,-0.403735,0.151268,0.136354
-0.941040,0.001709,-0.323975,-0.551807,0.174703,0.227967
-0.869141,-0.051880,-0.313477,-0.618919,0.142745,0.292948
-1.086914,-0.109497,-0.308838,-0.616788,0.025566,0.203466
-1.189697,-0.227295,-0.303589,-0.483630,-0.064981,0.249272
-0.932007,-0.086426,-0.279419,-0.362190,-0.209857,0.298274
-0.959595,-0.151611,-0.267090,-0.432498,-0.255664,0.465521
-1.029663,-0.178833,-0.262573,-0.380300,-0.269512,0.216249
-0.977539,-0.140381,-0.269775,-0.248207,-0.290817,-0.009587
-0.970337,-0.116943,-0.279663,0.182160,-0.305731,-0.126767
-0.978271,-0.051270,-0.284546,0.409062,-0.309992,-0.183226
-0.946899,0.035034,-0.270142,0.462325,-0.281230,-0.197074
-0.955933,0.116943,-0.258789,0.304666,-0.262055,-0.183226
-0.973145,0.130371,-0.248657,0.082025,-0.246076,-0.152333
-0.987915,0.100708,-0.232056,-0.078830,-0.243946,-0.132093
-0.995850,0.060059,-0.206909,-0.102265,-0.267381,-0.156594
-1.009155,0.021484,-0.180420,0.009587,-0.290817,-0.166181
-1.058228,0.030029,-0.164917,0.168312,-0.301470,-0.192813
-1.088013,0.067505,-0.161377,0.267381,-0.325971,-0.192813
-1.095947,0.107544,-0.170288,0.300405,-0.360060,-0.181095
-1.070801,0.099854,-0.202393,0.353668,-0.420780,-0.166181
-1.074219,0.024414,-0.250244,0.452738,-0.518784,-0.139550
-1.186768,-0.000854,-0.282104,0.532632,-0.658334,-0.172573
-1.323364,0.076660,-0.281738,0.521980,-0.744620,-0.235424
-1.352295,0.155151,-0.221069,0.316384,-0.694553,-0.271643
-1.232178,0.233887,-0.152466,-0.044741,-0.524110,-0.238619
-1.064209,0.213989,-0.095703,-0.443150,-0.316384,-0.102265
-0.898926,0.147217,-0.072388,-0.680704,-0.054329,0.204531
-0.828003,0.029785,-0.012939,-0.883105,0.101200,0.341950
-0.860962,0.035156,0.030151,-1.042894,0.196009,0.357929
-0.965332,-0.011963,0.071777,-1.225055,0.214118,0.449542
-1.062866,-0.151978,0.071533,-1.264469,0.140615,0.560329
-1.126099,-0.238892,0.050903,-1.124920,-0.014914,0.635963
-1.135742,-0.218140,0.029053,-0.904410,-0.196009,0.664725
-1.106201,-0.132690,0.017456,-0.693487,-0.332363,0.686031
-1.054443,-0.052490,0.009644,-0.474043,-0.385626,0.722250
-0.992676,0.027710,-0.000244,-0.263120,-0.337689,0.773382
-0.940430,0.094971,0.017212,-0.333428,-0.077764,0.817058
-0.870850,0.093872,0.040283,-0.478304,0.070307,0.806406
-0.925659,0.111206,0.017700,-0.677508,0.102265,0.697748
-0.954956,0.020508,-0.009888,-0.819189,0.021305,0.627441
-0.916504,0.003296,-0.027588,-0.855408,-0.089482,0.502805
-0.890991,0.033081,-0.026489,-0.919324,-0.171508,0.354733
-0.873657,0.015015,-0.005127,-0.996023,-0.196009,0.286556
-0.867187,-0.013306,0.002075,-0.923585,-0.169377,0.250337
-0.899902,-0.017334,-0.009033,-0.772317,-0.150202,0.202400
-0.898071,-0.020996,-0.023560,-0.275904,-0.172573,0.181095
-0.832886,0.037720,-0.046387,-0.273773,-0.173638,0.158724
-0.798950,0.088989,-0.048340,-0.204531,-0.133158,0.153398
-0.782349,0.109375,-0.037598,-0.196009,-0.053263,0.154463
-0.791016,0.111206,-0.033203,-0.185356,0.025566,0.169377
-0.798950,0.097412,-0.040527,-0.131028,0.078830,0.186421
-0.808594,0.079956,-0.035034,-0.068177,0.112918,0.170442
-0.855713,0.091431,-0.035889,-0.008522,0.129962,0.125701
-0.923706,0.116333,-0.023560,0.028762,0.140615,0.058590
-0.965210,0.118652,-0.005615,0.046872,0.164051,0.012783
-0.991699,0.117798,-0.003052,0.100135,0.178964,-0.034088
-1.031006,0.123413,0.009888,0.156594,0.175769,-0.067112
-1.057495,0.119873,0.014160,0.230097,0.178964,-0.054329
-1.077271,0.130615,0.016235,0.280165,0.171508,-0.053263
-1.077026,0.117065,0.038208,0.325971,0.165116,-0.038350
-1.087402,0.125366,0.050415,0.386691,0.198139,-0.029827
-1.136597,0.163574,0.048584,0.380300,0.248207,-0.020240
-1.216064,0.154541,0.041626,0.329167,0.255664,-0.040480
-1.291748,0.159668,0.033936,0.283360,0.225836,-0.166181
-1.356323,0.193237,0.021973,0.208792,0.107592,-0.223706
-1.306641,0.208862,-0.004028,0.118244,0.022371,-0.203466
-1.182739,0.200195,-0.016235,0.117179,-0.017044,-0.137419
-1.068604,0.211914,-0.011353,0.113983,0.009587,-0.067112
-0.956055,0.210327,-0.007324,0.072438,0.084156,0.023436
-0.884155,0.146484,-0.031494,0.031958,0.150202,0.117179
-0.870239,0.083496,-0.097046,-0.030893,0.141680,0.137419
-0.880127,0.058960,-0.142578,-0.171508,0.086286,0.060720
-0.873169,0.089355,-0.151001,-0.436759,0.064981,-0.066046
-0.838623,0.131226,-0.136719,-0.787231,0.123571,-0.169377
-0.815796,0.122681,-0.118164,-1.272992,0.301470,-0.255664
-0.887451,0.044434,-0.109619,-1.391236,0.369647,-0.327036
-0.956421,0.053223,-0.085327,-1.395497,0.353668,-0.399474
-1.017578,0.058350,-0.053223,-1.231446,0.265251,-0.439954
-1.032837,0.034912,-0.041626,-0.864995,0.117179,-0.434628
-1.025391,0.033081,-0.051147,-0.409062,-0.067112,-0.423975
-1.029785,0.067871,-0.064331,0.007457,-0.268447,-0.368582
-1.025146,0.116089,-0.072510,0.348342,-0.446346,-0.276969
-1.013306,0.164917,-0.080444,0.588026,-0.573112,-0.175769
-1.009033,0.213135,-0.093384,0.720119,-0.639159,-0.011718
-0.989014,0.251587,-0.120117,0.774448,-0.604005,0.133158
-0.976685,0.260986,-0.130737,0.699879,-0.514523,0.274838
-0.980103,0.259521,-0.132690,0.537959,-0.394148,0.407996
-0.960327,0.267822,-0.125122,0.280165,-0.255664,0.511327
-0.943237,0.262085,-0.117065,-0.049002,-0.122505,0.641289
-0.937256,0.237183,-0.105103,-0.386691,-0.022371,0.693487
-0.963745,0.203369,-0.083984,-0.677508,0.012783,0.704140
-0.973999,0.146973,-0.061401,-0.903345,0.052198,0.715858
-0.977295,0.114746,-0.044556,-1.007741,0.106526,0.702010
-0.992187,0.085327,-0.038818,-0.925715,0.119310,0.480434
-1.053711,0.085327,-0.037476,-0.838363,0.050067,0.249272
-1.086792,0.095337,-0.032837,-0.730772,-0.064981,0.075634
-1.101563,0.110474,-0.031982,-0.631702,-0.198139,-0.069242
-1.100952,0.117920,-0.031006,-0.518784,-0.302535,-0.164051
-1.150391,0.112915,-0.031982,-0.361125,-0.377104,-0.242880
-1.224487,0.109619,-0.037476,-0.186421,-0.422910,-0.318514
-1.298584,0.126587,-0.037720,-0.012783,-0.427171,-0.394148
-1.328125,0.191284,-0.012573,0.052198,-0.365386,-0.453803
-1.233398,0.246216,0.023682,0.058590,-0.128897,-0.412258
-1.073975,0.313354,0.095459,-0.092678,0.053263,-0.323841
-0.957275,0.353271,0.131470,-0.304666,0.236489,-0.165116
-0.845093,0.358276,0.127563,-0.553938,0.309992,0.088417
-0.745239,0.316650,0.109985,-0.713727,0.297209,0.344081
-0.696411,0.270386,0.094849,-0.808536,0.182160,0.472978
-0.716797,0.234497,0.098145,-0.851147,0.038350,0.533698
-0.753784,0.204834,0.107666,-0.846886,-0.086286,0.526241
-0.782227,0.178833,0.097778,-0.845820,-0.152333,0.494283
-0.813721,0.137817,0.078125,-0.835168,-0.153398,0.431432
-0.852783,0.099731,0.069214,-0.714793,-0.078830,0.233293
-0.957275,0.106445,0.078125,-0.598679,0.019175,0.078830
-1.075317,0.112427,0.083618,-0.446346,0.148072,-0.044741
-1.157593,0.080933,0.091064,-0.133158,0.193878,-0.037284
-1.130615,0.035400,0.088745,0.234358,0.116114,0.096939
-0.971802,0.032471,0.072021,0.398409,0.137419,0.162986
-0.879395,0.040283,0.089111,0.464455,0.286556,0.107592
-0.900513,0.057739,0.081177,0.501740,0.421845,0.071373
-0.951904,0.084106,0.062500,0.355798,0.470847,-0.010653
-0.934326,0.089111,0.044312,-0.365386,0.557134,-0.225836
-0.827026,-0.052368,0.035767,-0.772317,0.698814,-0.338754
-0.826050,-0.058472,0.011475,-1.061004,0.811732,-0.546481
-0.875366,-0.054810,-0.009766,-1.241034,0.835168,-0.768056
-0.916748,-0.026367,-0.024170,-1.399758,0.797883,-0.942759
-0.954224,-0.014160,-0.038818,-1.592571,0.729706,-1.063134
-0.945923,0.002197,-0.044434,-1.765144,0.698814,-1.139833
-0.959351,-0.010620,-0.060425,-1.770470,0.712662,-1.156878
-0.984741,0.033813,-0.074219,-1.764079,0.763795,-1.160073
-1.025879,0.067017,-0.114746,-1.786449,0.789361,-1.131311
-1.093750,0.046875,-0.157227,-1.717207,0.794688,-0.987501
-1.151855,-0.087280,-0.207642,-1.586179,0.803210,-0.860734
-1.142090,-0.237427,-0.244019,-1.278318,0.874582,-0.796818
-1.228882,-0.156860,-0.258179,-1.156878,0.932107,-0.934237
-1.296143,-0.058105,-0.213135,-1.282579,0.981109,-0.994957
-1.217529,-0.037842,-0.234863,-1.491371,1.176052,-0.950216
-1.116943,-0.062012,-0.290894,-1.705489,1.357147,-0.903345
-1.126465,-0.027832,-0.300049,-1.888715,1.374192,-0.895888
-1.117188,-0.005249,-0.274536,-1.981393,1.275122,-0.813862
-1.028076,-0.018311,-0.273926,-1.999502,1.073787,-0.698814
-0.917725,-0.022949,-0.256714,-1.953696,1.021589,-0.689226
-0.890137,-0.040649,-0.222168,-1.880193,0.984305,-0.613593
-0.816650,-0.133911,-0.170654,-1.684184,0.917193,-0.520915
-0.760620,-0.184204,-0.155396,-1.434912,0.805340,-0.539024
-0.785889,-0.184937,-0.160278,-1.190966,0.650877,-0.578439
-0.806152,-0.165527,-0.188599,-1.083374,0.462325,-0.578439
-0.835083,-0.154297,-0.231567,-1.074852,0.295078,-0.600809
-0.891724,-0.139038,-0.274658,-1.112136,0.153398,-0.615723
-0.927002,-0.133911,-0.325439,-1.140899,0.020240,-0.657268
-0.971436,-0.105591,-0.413086,-1.103614,-0.198139,-0.759534
-1.019287,-0.114502,-0.454346,-0.927846,-0.330232,-0.733967
-1.014282,-0.134644,-0.499634,-0.630637,-0.423975,-0.708401
-1.000610,-0.099976,-0.535400,-0.322775,-0.479369,-0.639159
-0.992798,-0.049316,-0.563599,-0.161920,-0.501740,-0.507066
-0.963989,-0.011108,-0.585571,-0.180030,-0.465521,-0.384561
-0.918335,0.000854,-0.595459,-0.319579,-0.369647,-0.321710
-0.917725,-0.006470,-0.593262,-0.486826,-0.273773,-0.312123
-0.883545,-0.009033,-0.591064,-0.665791,-0.194943,-0.301470
-0.867676,-0.010132,-0.591797,-1.056743,-0.100135,-0.318514
-0.875732,-0.029175,-0.576904,-1.311341,-0.089482,-0.318514
-0.847168,-0.056519,-0.566650,-1.486045,-0.102265,-0.317449
-0.830566,-0.071289,-0.559082,-1.611746,-0.125701,-0.362190
-0.814819,-0.067871,-0.545044,-1.666074,-0.138484,-0.362190
-0.814209,-0.060303,-0.545654,-1.643704,-0.137419,-0.395213
-0.838135,-0.043823,-0.542480,-1.651161,-0.142745,-0.434628
-0.868408,-0.057495,-0.530151,-1.545699,-0.149137,-0.427171
-0.881104,-0.072144,-0.510742,-1.298558,-0.139550,-0.384561
-0.870361,-0.118530,-0.474731,-0.919324,-0.119310,-0.340885
-0.889526,-0.249878,-0.389648,-0.037284,-0.120375,-0.279099
-0.895386,-0.164795,-0.330933,0.340885,-0.072438,-0.395213
-1.011841,0.029419,-0.310547,0.221575,-0.131028,-0.559264
-1.157471,-0.032959,-0.373413,0.254598,-0.371777,-0.525176
-1.221680,0.009888,-0.397095,0.166181,-0.627441,-0.534763
-1.300415,0.036743,-0.371948,0.052198,-0.844755,-0.467651
-1.247559,0.004517,-0.319214,0.127832,-0.898018,-0.280165
-1.111572,-0.079834,-0.256714,0.290817,-0.796818,-0.152333
-0.995605,-0.044067,-0.237793,0.510262,-0.647681,0.078830
-0.913330,-0.016235,-0.199097,0.630637,-0.498544,0.269512
-0.782349,0.036987,-0.190063,0.640224,-0.508131,0.437824
-0.797729,-0.012085,-0.244263,0.800014,-0.605070,0.521980
-0.791504,-0.023315,-0.265991,0.913997,-0.668986,0.567786
-0.746948,-0.037109,-0.256958,0.932107,-0.661529,0.641289
-0.750000,-0.004761,-0.280151,0.921454,-0.626376,0.693487
-0.767578,-0.028931,-0.309448,0.932107,-0.580569,0.756338
-0.834106,-0.130981,-0.346924,0.975783,-0.555003,0.742490
-0.881104,-0.056641,-0.328735,0.962999,-0.466586,0.662595
-0.921265,0.060547,-0.216064,0.779774,-0.257794,0.613593
-1.007324,0.011353,-0.294556,0.595483,-0.100135,0.655138
-1.235596,-0.100220,-0.352051,0.507066,-0.219445,0.663660
-1.197388,-0.121582,-0.325317,0.482565,-0.246076,0.722250
-1.075439,-0.035645,-0.258911,0.347276,-0.072438,0.665791
-1.012207,-0.075562,-0.217773,0.392017,0.191748,0.673247
-0.991089,-0.080444,-0.219482,0.451672,0.422910,0.666856
-0.931274,-0.054932,-0.242676,0.363255,0.481500,0.659399
-0.933228,0.005249,-0.247437,0.225836,0.403735,0.660464
-0.882812,-0.014404,-0.251709,-0.029827,0.332363,0.668986
-0.824219,-0.048340,-0.270874,-0.311057,0.299339,0.550742
-0.699341,-0.177124,-0.268433,-0.316384,0.283360,0.203466
-1.061157,0.185181,-0.279907,-0.426106,0.227967,0.483630
-0.945923,-0.034424,-0.226807,-1.072722,-0.028762,-0.089482
-0.772095,0.017334,-0.197754,-1.179248,0.041545,-0.426106
-0.876221,-0.001831,-0.209839,-1.278318,0.154463,-0.502805
-0.957275,0.014893,-0.250854,-1.381649,0.165116,-0.484696
-1.041504,0.071411,-0.301147,-1.582984,0.129962,-0.064981
-1.032715,-0.098999,-0.323486,-1.589375,0.112918,0.123571
-1.077759,-0.178467,-0.289551,-1.313472,0.206661,-0.253533
-1.104370,-0.210205,-0.257324,-0.844755,0.352603,0.012783
-1.379761,-0.264038,-0.286133,-0.660464,0.213053,-0.125701
-1.420044,-0.160522,-0.294678,-0.794688,-0.021305,-0.272708
-1.253662,-0.156982,-0.265747,-1.101484,-0.151268,-0.184291
-1.160034,-0.254761,-0.238281,-1.271926,-0.158724,-0.168312
-1.170044,-0.232666,-0.239136,-1.319863,-0.148072,-0.351537
-1.163208,-0.197998,-0.246582,-1.329451,-0.159790,-0.503870
-1.098022,-0.191772,-0.239502,-1.258078,-0.120375,-0.553938
-0.956177,-0.135620,-0.222900,-1.190966,-0.008522,-0.589091
-0.798340,-0.100586,-0.175537,-1.112136,0.284426,-0.509197
-0.715088,-0.075928,-0.179687,-1.141964,0.370712,-0.459129
-0.744507,-0.065063,-0.181641,-1.255947,0.328102,-0.492152
-0.761841,-0.075195,-0.188721,-1.365670,0.239685,-0.495348
-0.789429,-0.106201,-0.211304,-1.423194,0.177899,-0.781904
-1.011963,-0.011841,-0.240601,-1.475392,0.078830,-0.921454
-0.990356,0.016724,-0.273071,-1.622398,0.015979,-0.631702
-1.016846,-0.064453,-0.317261,-1.675662,-0.030893,-0.627441
-1.106079,-0.098145,-0.359741,-1.546765,-0.087352,-0.577374
-1.064453,-0.096436,-0.376587,-1.283644,-0.126767,-0.515588
-1.044556,-0.057251,-0.395996,-1.016263,-0.168312,-0.418649
-1.000122,-0.040039,-0.416382,-0.948086,-0.182160,-0.358994
-1.019897,-0.034912,-0.418823,-0.945955,-0.165116,-0.298274
-0.989502,-0.020508,-0.377563,-0.921454,-0.075634,-0.260990
-0.949707,-0.027588,-0.336548,-0.857538,0.042611,-0.235424
-0.925903,-0.002808,-0.318726,-0.806406,0.100135,-0.197074
-0.927612,0.004028,-0.329712,-0.810667,0.054329,-0.145941
-0.937500,-0.013550,-0.332031,-0.828776,-0.038350,-0.100135
-0.922607,-0.018188,-0.309937,-0.814928,-0.120375,-0.068177
-0.887817,-0.058472,-0.270996,-0.716923,-0.125701,0.064981
-0.884399,-0.068115,-0.261475,-0.650877,-0.136354,0.092678
-0.916016,-0.063599,-0.279175,-0.692422,-0.208792,0.116114
-0.973755,-0.059692,-0.283813,-0.815993,-0.301470,0.122505
-1.023071,-0.072754,-0.273315,-0.952347,-0.367516,0.104396
-1.064209,-0.176514,-0.271851,-0.863930,-0.396279,0.145941
-1.107300,-0.253052,-0.277466,-0.592287,-0.409062,0.181095
-1.154663,-0.213989,-0.282471,-0.351537,-0.426106,0.203466
-1.168945,-0.157104,-0.282959,-0.300405,-0.452738,0.203466
-1.182129,-0.165161,-0.259155,-0.304666,-0.450607,0.540089
-1.194336,-0.211426,-0.205566,-0.282295,-0.360060,0.433563
-1.339233,-0.268555,-0.213013,-0.226901,-0.399474,0.386691
-1.413330,-0.236938,-0.214233,-0.203466,-0.493218,0.243946
-1.290405,-0.177002,-0.170654,-0.224771,-0.509197,0.160855
-1.061523,-0.112183,-0.125732,-0.274838,-0.407996,0.110788
-0.882690,-0.038330,-0.074707,-0.396279,-0.189617,0.111853
-0.757935,0.034302,-0.044556,-0.657268,0.044741,0.167247
-0.687256,0.077637,-0.006958,-1.124920,0.220510,0.249272
-0.690552,0.022583,0.019165,-1.645834,0.338754,0.247141
-0.740356,-0.099243,-0.001099,-1.407215,0.364321,0.253533
-0.786743,-0.290649,-0.010620,-0.790427,0.380300,0.074569
-0.830566,-0.236938,-0.033447,-0.361125,0.360060,-0.092678
-0.927002,-0.120483,-0.082031,-0.219445,0.227967,-0.199205
-1.087402,-0.005493,-0.112671,-0.213053,0.036219,-0.325971
-1.134766,-0.014160,-0.131836,-0.435693,-0.096939,0.094809
-1.012329,-0.178345,-0.113525,-0.331297,-0.148072,-0.775513
-0.975342,0.008911,-0.064575,-0.197074,-0.028762,-0.752077
-0.994507,-0.012207,-0.023682,-0.095874,0.176834,-0.541155
-0.974731,0.044556,-0.016724,-0.047937,0.333428,-0.508131
-0.962524,0.096191,0.033447,-0.043676,0.338754,-0.420780
-0.936035,0.133301,0.071899,-0.011718,0.235424,-0.301470
-0.931152,0.152100,0.076294,0.020240,0.135289,-0.122505
-0.947388,0.144409,0.072021,0.013848,0.031958,-0.034088
-0.934570,0.138916,0.065918,0.051133,-0.059655,-0.092678
-0.942383,0.155151,0.059814,0.103331,-0.120375,-0.115049
-0.970825,0.174316,0.062134,0.172573,-0.166181,-0.137419
-1.002563,0.204956,0.059937,0.210922,-0.198139,-0.138484
-0.998169,0.231567,0.046509,0.229032,-0.217314,-0.058590
-0.968750,0.227783,0.039185,0.171508,-0.234358,0.070307
-0.946655,0.239990,0.016724,0.069242,-0.234358,0.106526
-0.957031,0.244629,0.001587,-0.026632,-0.241815,0.171508
-0.950439,0.213501,0.000244,-0.137419,-0.234358,0.213053
-0.954834,0.182739,-0.014404,-0.216249,-0.227967,0.196009
-0.981201,0.175415,-0.035156,-0.295078,-0.243946,0.157659
-1.017456,0.169922,-0.064087,-0.339819,-0.279099,0.126767
-1.053589,0.160034,-0.075073,-0.396279,-0.321710,0.113983
-1.058838,0.128540,-0.088501,-0.396279,-0.352603,0.155529
-1.056396,0.107178,-0.101318,-0.350472,-0.350472,0.241815
-1.093994,0.085815,-0.113647,-0.294013,-0.301470,0.273773
-1.153198,0.042358,-0.148437,-0.251403,-0.262055,0.344081
-1.249146,-0.045776,-0.183105,-0.149137,-0.242880,0.433563
-1.339966,-0.081421,-0.197632,-0.119310,-0.236489,0.432498
-1.344116,-0.072021,-0.192627,-0.215184,-0.205596,0.437824
-1.270996,-0.057129,-0.167603,-0.399474,-0.143811,0.405866
-1.160278,-0.035889,-0.144775,-0.602940,-0.044741,0.332363
-1.018188,-0.023437,-0.123413,-0.742490,0.094809,0.246076
-0.882446,-0.023193,-0.112915,-0.854342,0.252468,0.147007
-0.777100,-0.013794,-0.096802,-1.026915,0.449542,0.033023
-0.740479,0.037720,-0.095459,-1.152617,0.525176,-0.014914
-0.801636,0.075806,-0.124756,-1.359278,0.514523,0.073503
-0.852295,0.097534,-0.150513,-1.603224,0.433563,0.230097
-0.907471,0.024780,-0.148315,-1.802428,0.330232,0.178964
-1.015869,-0.043091,-0.133911,-1.832256,0.254598,0.110788
-1.112305,-0.083496,-0.152466,-1.753426,0.164051,0.036219
-1.164551,-0.083740,-0.194092,-1.582984,0.042611,0.118244
-1.163208,-0.108643,-0.211914,-1.389105,-0.060720,0.189617
-1.114014,-0.070068,-0.214844,-1.202684,-0.099070,0.275904
-1.052124,-0.014648,-0.205200,-1.152617,-0.059655,0.417584
-1.000000,-0.000610,-0.205444,-1.047155,-0.010653,0.451672
-1.028198,-0.171387,-0.214111,-0.987501,0.013848,0.222640
-0.934814,-0.126343,-0.191650,-0.547546,0.115049,0.085221
-1.001709,-0.034058,-0.170288,-0.307862,0.247141,0.317449
-0.984497,0.022827,-0.141846,-0.284426,0.337689,0.530502
-0.963135,0.026245,-0.108398,-0.416519,0.389887,0.588026
-1.005493,0.016235,-0.102539,-0.569917,0.389887,0.514523
-1.059814,0.020386,-0.118896,-0.676443,0.304666,0.497479
-1.073120,-0.012695,-0.133789,-0.684965,0.103331,0.439954
-1.059204,-0.020386,-0.132446,-0.637028,0.015979,0.351537
-1.049316,-0.028442,-0.119385,-0.580569,-0.002131,0.298274
-1.042725,-0.005127,-0.112915,-0.492152,0.030893,0.292948
-1.031738,-0.009521,-0.109863,-0.366451,0.068177,0.332363
-1.040771,0.002197,-0.107178,-0.210922,0.088417,0.306796
-1.020020,0.009277,-0.099609,-0.099070,0.089482,0.248207
-1.021484,0.014160,-0.078735,-0.011718,0.089482,0.193878
-1.001709,0.047363,-0.064941,0.031958,0.080960,0.192813
-0.982056,0.056885,-0.051758,0.055394,0.057524,0.084156
-0.992187,0.132568,-0.025757,0.025566,0.007457,0.089482
-0.977905,0.130249,0.003296,-0.056459,-0.039415,0.004261
-0.976807,0.097412,0.019897,-0.075634,-0.089482,-0.188552
-1.000000,0.106567,0.017090,-0.049002,-0.158724,-0.361125
-1.086304,0.126343,0.000366,-0.037284,-0.271643,-0.481500
-1.239746,0.108521,-0.023682,-0.049002,-0.427171,-0.608266
-1.382446,0.118652,-0.047607,-0.054329,-0.596548,-0.758469
-1.408813,0.155762,-0.047607,-0.058590,-0.702010,-0.874582
-1.267822,0.190430,-0.038574,0.003196,-0.688161,-0.896953
-1.059326,0.238159,-0.020630,0.116114,-0.447411,-0.766991
-0.841553,0.298340,0.027222,0.153398,-0.220510,-0.572047
-0.727173,0.310303,0.047119,0.116114,0.013848,-0.430367
-0.656616,0.329468,0.054077,0.001065,0.206661,-0.303600
-0.655396,0.323853,0.052612,-0.161920,0.316384,-0.157659
-0.679199,0.338867,0.038696,-0.395213,0.343015,-0.156594
-0.798340,0.440918,0.025635,-0.702010,0.224771,-0.053263
-0.849976,0.368774,0.002319,-1.072722,0.109722,0.090548
-0.830322,0.276123,0.012329,-1.314537,0.033023,-0.282295
-0.990845,0.315430,0.018677,-1.433846,-0.011718,-0.414388
-1.079834,0.323730,0.040527,-1.491371,0.005326,-0.207727
-1.053101,0.295776,0.042603,-1.372061,0.072438,-0.137419
-1.076782,0.333130,0.027100,-1.313472,0.107592,-0.106526
-1.099121,0.270508,0.012207,-1.362474,0.094809,0.002131
-1.037476,0.191406,-0.033203,-1.463674,0.035154,0.040480
-0.950439,0.198853,-0.049561,-1.660748,0.023436,0.077764
-0.870605,0.199585,-0.017822,-1.845039,0.110788,0.141680
-0.824707,0.171753,0.013062,-1.948370,0.279099,0.225836
-0.867065,0.114380,-0.018066,-1.924934,0.394148,0.229032
-0.914307,0.073853,-0.075806,-1.880193,0.305731,0.250337
-0.979492,0.073730,-0.130737,-1.872736,0.186421,0.252468
-1.037354,0.113525,-0.142822,-1.887649,0.085221,0.193878
-0.997925,0.142334,-0.160889,-1.935586,0.046872,0.197074
-0.991211,0.152954,-0.174194,-2.015481,0.077764,0.233293
-0.980469,0.169922,-0.170166,-2.117747,0.157659,0.256729
-0.967529,0.163330,-0.144775,-2.171010,0.224771,0.286556
-0.962402,0.128784,-0.126221,-2.106029,0.265251,0.279099
-0.964111,0.124878,-0.123291,-1.950500,0.299339,0.272708
-0.968628,0.137329,-0.123169,-1.831190,0.322775,0.236489
-0.952637,0.161011,-0.139526,-1.798167,0.305731,0.210922
-0.981079,0.164185,-0.145386,-1.830125,0.279099,0.192813
-1.002441,0.148560,-0.161621,-1.848235,0.241815,0.202400
-1.028076,0.123901,-0.180054,-1.829060,0.208792,0.227967
-1.039063,0.120605,-0.207153,-1.801363,0.187487,0.247141
-1.067261,0.091064,-0.232666,-1.772601,0.191748,0.291883
-1.111938,0.056641,-0.253418,-1.720403,0.227967,0.329167
-1.175659,0.018066,-0.271729,-1.672466,0.274838,0.366451
-1.223633,-0.017456,-0.263794,-1.623464,0.328102,0.389887
-1.182861,-0.045898,-0.251099,-1.588310,0.414388,0.411192
-1.105103,-0.047729,-0.256714,-1.590441,0.441020,0.436759
-1.039917,-0.080200,-0.251709,-1.567005,0.449542,0.369647
-1.002441,-0.088501,-0.240601,-1.588310,0.484696,0.229032
-0.960815,-0.097900,-0.230591,-1.662879,0.551807,0.145941
-0.876709,-0.097778,-0.204712,-1.737447,0.666856,0.069242
-0.816895,-0.093750,-0.192627,-1.796037,0.775513,0.025566
-0.813477,-0.135742,-0.199829,-1.832256,0.843690,-0.053263
-0.881470,-0.131958,-0.221436,-1.872736,0.850081,-0.135289
-0.956421,-0.078247,-0.234497,-1.938782,0.550742,-0.255664
-1.108154,-0.076782,-0.231445,-2.062353,0.715858,-0.422910
-1.184204,-0.037842,-0.257080,-2.085789,0.579504,-0.479369
-1.184082,-0.037354,-0.285034,-2.062353,0.444215,-0.480434
-1.137207,-0.030396,-0.294434,-1.973936,0.337689,-0.448477
-1.046509,-0.071167,-0.303711,-1.790710,0.304666,-0.394148
-1.007935,-0.110840,-0.299316,-1.521198,0.349407,-0.365386
-0.983154,-0.121460,-0.265991,-1.190966,0.439954,-0.405866
-0.948364,-0.052368,-0.224243,-0.958738,0.560329,-0.443150
-0.961426,0.025757,-0.193359,-0.911867,0.643420,-0.497479
-0.993286,0.055908,-0.187500,-1.064200,0.630637,-0.544350
-1.016479,0.083862,-0.176758,-1.242099,0.568851,-0.581635
-1.030029,0.082642,-0.151978,-1.376322,0.483630,-0.594418
-0.901489,0.002686,-0.136719,-1.430651,0.385626,-0.601875
-1.317139,0.057251,-0.179077,-1.379518,0.234358,-0.584830
-0.933350,-0.064331,-0.175659,-1.367800,0.085221,-0.813862
-1.003784,0.196777,-0.171997,-1.382714,0.001065,-0.245011
-1.098999,0.017944,-0.148804,-1.483914,0.019175,-0.327036
-1.068970,0.086792,-0.147095,-1.438108,0.047937,-0.337689
-1.047363,0.087891,-0.152588,-1.406150,0.076699,-0.186421
-1.000244,-0.038330,-0.126831,-1.193097,0.126767,-0.044741
-1.020142,-0.067383,-0.116699,-0.912932,0.128897,0.011718
-1.004761,-0.060059,-0.116943,-0.673247,0.080960,0.046872
-0.995850,-0.051147,-0.128906,-0.490022,-0.021305,-0.008522
-0.985107,-0.018433,-0.154541,-0.374973,-0.153398,-0.046872
-0.976074,0.020264,-0.166138,-0.341950,-0.265251,-0.062851
-0.952881,0.042358,-0.160889,-0.311057,-0.308927,-0.024501
-0.970581,0.039063,-0.159790,-0.268447,-0.309992,-0.041545
-0.962036,0.065796,-0.158936,-0.218379,-0.302535,-0.045806
-0.972412,0.058838,-0.163330,-0.131028,-0.349407,-0.147007
-1.037231,0.092041,-0.146606,-0.092678,-0.385626,-0.143811
-1.141479,0.121704,-0.119141,-0.111853,-0.432498,-0.125701
-1.196655,0.100464,-0.106567,-0.074569,-0.504936,-0.257794
-1.249634,0.067017,-0.153442,0.140615,-0.583765,-0.361125
-1.231567,0.072754,-0.194214,0.438889,-0.606136,-0.444215
-1.150513,0.100464,-0.196899,0.686031,-0.573112,-0.431432
-1.011841,0.132080,-0.210449,0.836233,-0.520915,-0.331297
-0.942139,0.086426,-0.269409,0.919324,-0.490022,-0.196009
-1.025146,0.064087,-0.297974,0.955543,-0.461260,-0.138484
-1.097046,0.077026,-0.261719,0.732902,-0.350472,-0.070307
-1.028320,0.048096,-0.184937,0.333428,-0.187487,-0.117179
-1.007568,0.092896,-0.114014,-0.135289,-0.013848,-0.099070
-0.944946,0.040527,-0.070190,-0.605070,0.096939,-0.110788
-0.890137,-0.051880,-0.035889,-0.932107,0.143811,-0.106526
-0.860107,-0.093018,-0.013306,-1.130246,0.125701,-0.077764
-0.794922,-0.184814,0.017090,-1.195227,0.134223,-0.021305
-0.826294,-0.242920,0.038940,-1.079113,0.119310,0.054329
-0.857788,-0.229248,0.036987,-0.890561,0.120375,0.020240
-0.975220,-0.196533,0.065674,-0.739294,0.013848,0.009587
-0.987305,-0.114502,0.074219,-0.732902,-0.047937,0.040480
-1.010254,-0.063110,0.066040,-0.870321,-0.072438,0.164051
-0.960815,-0.099976,0.076904,-1.015197,-0.057524,0.014914
-0.920410,-0.052368,0.084106,-1.076983,-0.007457,-0.054329
-0.944702,-0.005615,0.088623,-1.132377,0.034088,0.094809
-0.941040,0.011353,0.106201,-1.166465,0.056459,0.213053
-0.924561,0.034180,0.120117,-1.170726,0.070307,0.299339
-0.913452,0.040283,0.130493,-1.161139,0.062851,0.361125
-0.910889,0.049805,0.131470,-1.124920,0.034088,0.347276
-0.978394,0.102173,0.116455,-1.050351,-0.014914,0.317449
-1.078613,0.106934,0.112183,-1.055678,-0.082025,0.305731
-1.167480,-0.007935,0.104248,-0.939564,-0.180030,0.385626
-1.157593,-0.031494,0.072876,-0.724380,-0.286556,0.421845
-1.098999,-0.021240,0.054443,-0.532632,-0.371777,0.456999
-1.019043,-0.031616,0.045166,-0.371777,-0.400540,0.494283
-0.980103,-0.011719,0.037598,-0.276969,-0.365386,0.485761
-0.966431,0.010742,0.031860,-0.269512,-0.309992,0.472978
-0.946167,0.022705,0.037842,-0.321710,-0.264186,0.476173
-0.907104,0.016846,0.034424,-0.300405,-0.172573,0.442085
-0.863159,-0.050049,0.023071,-0.188552,-0.006392,0.404801
-0.856079,-0.014893,0.029419,-0.096939,0.132093,0.303600
-0.854858,0.068237,0.028198,-0.141680,0.175769,0.138484
-0.984741,0.148437,0.025879,-0.409062,0.105461,0.383495
-0.893433,0.083984,0.033813,-0.600809,0.027697,0.123571
-0.881226,0.112915,0.024780,-0.670052,-0.013848,0.117179
-0.954468,0.076904,0.027344,-0.638094,-0.037284,0.126767
-0.923828,0.079468,0.037964,-0.496413,-0.017044,0.168312
-0.950928,0.078247,0.046997,-0.361125,0.074569,0.121440
-1.045288,0.067383,0.039551,-0.160855,0.102265,0.045806
-1.179565,0.047119,-0.015747,-0.006392,0.055394,0.030893
-1.286621,0.015991,-0.061768,0.151268,-0.053263,-0.003196
-1.320068,0.004639,-0.076538,0.308927,-0.140615,0.019175
-1.302612,-0.002686,-0.058716,0.433563,-0.162986,0.035154
-1.256348,0.021484,-0.034424,0.557134,-0.123571,0.062851
-1.147217,0.006348,-0.033325,0.683900,-0.078830,0.151268
-1.006714,0.006958,-0.055664,0.784035,-0.030893,0.207727
-0.902222,0.027344,-0.042358,0.802144,0.061785,0.252468
-0.855469,0.098877,0.003784,0.540089,0.279099,0.220510
-0.817017,0.166260,0.075195,0.233293,0.435693,0.193878
-0.834106,0.145630,0.106201,-0.051133,0.528371,0.155529
-0.883423,0.129761,0.110474,-0.267381,0.526241,0.107592
-0.938477,0.123901,0.082397,-0.404801,0.417584,0.035154
-1.007690,0.130005,0.049072,-0.498544,0.245011,0.019175
-1.082275,0.148682,0.019287,-0.545416,0.041545,0.108657
-1.145386,0.113892,-0.006714,-0.552872,-0.155529,0.170442
-1.157959,0.042847,-0.034424,-0.449542,-0.290817,0.296144
-1.187012,0.017944,-0.052734,-0.275904,-0.350472,0.547546
-1.173584,0.001343,-0.059814,0.026632,-0.311057,0.622115
-1.150024,-0.002319,-0.050903,0.171508,-0.225836,0.630637
-1.173584,0.000122,-0.031250,0.344081,-0.109722,0.569917
-1.194214,0.028687,-0.024658,0.431432,-0.023436,0.673247
-1.028809,0.003662,-0.008545,0.502805,0.015979,0.683900
-0.978516,0.042603,0.004517,0.542220,0.044741,0.700944
-0.988403,0.092407,0.021973,0.482565,0.045806,0.905475
-0.860962,0.006104,0.042847,0.390952,0.007457,0.708401
-0.805298,0.053589,0.045654,0.372843,-0.039415,0.406931
-0.902710,0.089355,0.040283,0.272708,-0.152333,0.428236
-0.875977,0.080566,0.022949,0.203466,-0.262055,0.410127
-0.873779,0.075439,0.013916,0.142745,-0.353668,0.318514
-0.907715,0.082153,0.007324,0.109722,-0.414388,0.216249
-0.963989,0.082520,0.009155,0.093743,-0.462325,0.110788
-0.975464,0.076782,-0.001587,0.132093,-0.501740,0.034088
-0.962769,0.070068,-0.013916,0.205596,-0.540089,-0.038350
-0.989746,0.063599,-0.021851,0.312123,-0.589091,-0.123571
-1.045166,0.066284,-0.023682,0.430367,-0.635963,-0.225836
-1.103394,0.059937,-0.026978,0.585896,-0.695618,-0.356864
-1.140869,0.023315,-0.044800,0.960869,-0.716923,-0.447411
-1.128296,0.021851,-0.045654,1.262339,-0.706271,-0.567786
-1.104126,0.066284,-0.036011,1.496697,-0.649812,-0.655138
-1.075439,0.115967,-0.035034,1.596832,-0.601875,-0.705205
-1.058228,0.141602,-0.037231,1.594702,-0.578439,-0.752077
-1.095337,0.156128,-0.041992,1.521198,-0.592287,-0.819189
-1.188110,0.152832,-0.051880,1.435977,-0.642355,-0.901214
-1.294922,0.148560,-0.059570,1.365670,-0.686031,-1.021589
-1.390625,0.153198,-0.059937,1.317733,-0.699879,-1.144094
-1.383667,0.173950,-0.063477,1.317733,-0.634898,-1.236773
-1.179321,0.190063,-0.047363,1.416802,-0.530502,-1.220794
-1.036865,0.206421,-0.027466,1.547830,-0.394148,-1.137703
-0.910034,0.223267,-0.009521,1.629855,-0.256729,-0.993892
-0.817993,0.241821,0.010010,1.623464,-0.129962,-0.818123
-0.771729,0.251343,0.023315,1.572331,-0.038350,-0.668986
-0.786133,0.264771,0.031616,1.463674,0.008522,-0.566721
-0.832886,0.268555,0.035522,1.288970,-0.011718,-0.508131
-0.843750,0.223267,0.031128,1.144094,-0.072438,-0.450607
-0.866821,0.164062,0.028809,1.355017,-0.153398,-0.444215
-0.932129,0.125977,0.035889,1.156878,-0.164051,-0.459129
-0.959961,0.115845,0.044556,1.282579,-0.122505,-0.462325
-0.953003,0.137207,0.061646,1.398693,-0.022371,-0.453803
-0.925293,0.173340,0.087891,1.441303,0.117179,-0.421845
-0.910522,0.214478,0.123535,1.406150,0.259925,-0.387756
-0.895630,0.239380,0.152832,1.293232,0.367516,-0.335558
-0.871460,0.247437,0.184814,1.131311,0.433563,-0.274838
-0.865112,0.220947,0.213257,1.006675,0.459129,-0.210922
-0.871338,0.195801,0.235840,0.943825,0.448477,-0.164051
-0.868408,0.158569,0.230957,0.991762,0.357929,-0.074569
-0.853027,0.128052,0.204468,1.070591,0.280165,-0.046872
-0.854248,0.128296,0.202026,1.160073,0.197074,-0.047937
-0.859253,0.139771,0.191895,1.255947,0.120375,-0.045806
-0.868530,0.151367,0.176758,1.326255,0.060720,-0.083091
-0.883057,0.168945,0.161377,1.357147,0.020240,-0.102265
-0.910522,0.205322,0.164307,1.320928,0.026632,-0.138484
-0.936035,0.232666,0.180420,1.284709,0.072438,-0.156594
-0.919678,0.247070,0.185547,1.238903,0.141680,-0.119310
-0.911377,0.245483,0.191284,1.203749,0.227967,0.004261
-0.962769,0.213257,0.154785,1.299623,0.223706,0.142745
-0.985107,0.189697,0.129150,1.361408,0.178964,0.213053
-0.966797,0.124146,0.115601,1.433846,0.149137,0.315318
-0.975830,0.071533,0.105713,1.499893,0.143811,0.365386
-1.049561,0.011841,0.069946,1.611746,0.118244,0.380300
-1.165039,-0.031494,0.026978,1.749165,0.072438,0.332363
-1.312012,-0.026978,0.006470,1.857822,-0.007457,0.205596
-1.416382,0.041260,-0.005371,1.908955,-0.102265,0.069242
-1.411865,0.063721,-0.019043,1.895106,-0.181095,-0.001065
-1.241455,0.032593,-0.012329,1.916412,-0.159790,0.061785
-0.909180,0.068848,0.030640,1.900433,-0.019175,0.135289
-0.834961,0.095581,0.063354,1.854626,0.136354,0.201335
-0.905029,0.146118,0.108765,1.734251,0.250337,0.241815
-0.988159,0.157104,0.130493,1.591506,0.252468,0.370712
-1.019165,0.059204,0.081543,1.507350,0.115049,0.523045
-1.128540,0.007813,0.038452,1.506285,-0.079895,0.528371
-1.273682,0.007568,0.052002,1.593636,-0.315318,0.555003
-1.245605,0.008789,0.075562,1.726794,-0.471912,0.643420
-1.149414,0.005615,0.081665,2.134791,-0.513458,0.742490
-1.082520,0.020752,0.078003,2.067679,-0.481500,0.757403
-1.045532,0.060425,0.075562,2.133726,-0.469782,0.738229
-1.053223,0.095337,0.079102,2.116681,-0.486826,0.686031
-1.058594,0.123657,0.059937,2.047439,-0.568851,0.650877
-1.018555,0.143677,0.029297,1.924934,-0.687096,0.624245
-0.950806,0.140503,0.006226,1.818407,-0.813862,0.601875
-0.873901,0.159668,-0.012573,1.707620,-0.910801,0.536893
-0.830200,0.200073,-0.013916,1.523329,-0.947020,0.434628
-0.854370,0.242554,0.010986,1.271926,-0.940629,0.318514
-0.862183,0.244019,0.022827,1.101484,-0.859669,0.196009
-0.874878,0.275024,0.037842,1.074852,-0.780839,0.102265
-0.952393,0.275513,0.033569,1.089766,-0.740359,0.049002
-0.949585,0.265259,0.003174,1.137703,-0.757403,0.047937
-0.945312,0.256104,-0.018799,1.189901,-0.793622,0.056459
-1.030762,0.260254,-0.014038,1.238903,-0.822384,0.042611
-1.140625,0.259644,-0.010254,1.258078,-0.843690,0.006392
-1.224609,0.248901,-0.011597,1.287905,-0.853277,-0.036219
-1.251831,0.225220,-0.027466,1.360343,-0.888431,-0.064981
-1.193115,0.208862,-0.048828,1.509480,-0.942759,-0.082025
-1.099243,0.203979,-0.074585,1.573396,-0.950216,-0.093743
-1.073242,0.219116,-0.075317,1.544634,-0.916128,-0.118244
-1.109741,0.210205,-0.080811,1.444499,-0.864995,-0.215184
-1.195313,0.225098,-0.069824,1.226120,-0.824515,-0.320645
-1.214966,0.251587,-0.051270,1.021589,-0.774448,-0.363255
-1.145752,0.298584,-0.043945,0.857538,-0.746751,-0.377104
-0.986328,0.325439,-0.039795,0.842625,-0.672182,-0.370712
-0.813354,0.369263,-0.019409,0.871387,-0.479369,-0.379234
-0.663086,0.385742,0.011597,0.820254,-0.241815,-0.348342
-0.575562,0.373169,0.068481,0.632767,0.024501,-0.226901
-0.649048,0.353638,0.117188,0.504936,0.118244,-0.171508
-0.751587,0.304932,0.134399,0.459129,0.085221,-0.168312
-0.830566,0.244751,0.165771,0.519849,-0.010653,-0.221575
-0.866089,0.155273,0.163696,0.757403,-0.169377,-0.262055
-0.900146,0.155884,0.133301,1.054612,-0.356864,-0.347276
-0.922241,0.179443,0.120483,1.290036,-0.524110,-0.402670
-0.895996,0.218506,0.170410,1.450891,-0.578439,-0.435693
-0.874023,0.241333,0.178467,1.595767,-0.556068,-0.415453
-0.860596,0.247681,0.153687,1.751295,-0.530502,-0.418649
-0.818848,0.286621,0.151978,1.806689,-0.493218,-0.435693
-0.794189,0.348877,0.160156,1.734251,-0.433563,-0.452738
-0.777588,0.380737,0.153931,1.577657,-0.390952,-0.436759
-0.769043,0.375000,0.153442,1.429585,-0.354733,-0.412258
-0.781372,0.336182,0.134521,1.374192,-0.336624,-0.368582
-0.802246,0.319092,0.120117,1.361408,-0.317449,-0.349407
-0.822754,0.321655,0.123901,1.367800,-0.272708,-0.324906
-0.834839,0.326050,0.129883,1.364604,-0.197074,-0.302535
-0.832520,0.342773,0.147339,1.315602,-0.092678,-0.013848
-0.816040,0.339233,0.171509,1.261274,0.060720,-0.239685
-0.788574,0.344116,0.173706,1.242099,0.125701,-0.222640
-0.776611,0.364380,0.174805,1.197358,0.162986,-0.216249
-0.802124,0.407593,0.188721,1.074852,0.198139,-0.254598
-0.856567,0.437256,0.208008,0.872452,0.234358,-0.304666
-0.964355,0.437378,0.242065,0.667921,0.283360,-0.361125
-1.057617,0.416626,0.230835,0.557134,0.278034,-0.353668
-1.130005,0.355225,0.211426,0.579504,0.234358,-0.412258
-1.197144,0.400757,0.193237,0.674313,0.165116,-0.441020
-1.220703,0.472534,0.172729,0.713727,0.079895,-0.278034
-1.317505,0.508667,0.158936,0.601875,0.067112,-0.271643
-1.403687,0.557983,0.156006,0.371777,0.104396,-0.246076
-1.428345,0.552368,0.114014,0.089482,0.101200,-0.167247
-1.302124,0.507568,0.103027,-0.113983,0.088417,-0.109722
-1.053955,0.469849,0.118530,-0.213053,0.155529,0.056459
-0.829468,0.431519,0.162231,-0.233293,0.288687,0.306796
-0.702637,0.372925,0.156860,-0.206661,0.382430,0.569917
-0.662109,0.317261,0.097168,-0.249272,0.374973,0.744620
-0.671997,0.237061,0.032837,-0.380300,0.296144,0.837298
-0.780884,0.215088,-0.021362,-0.666856,0.062851,0.790427
-1.031982,0.187134,-0.062744,-0.920389,-0.149137,0.724380
-1.163208,0.099976,-0.093384,-1.112136,-0.336624,0.674313
-1.183105,-0.018066,-0.096802,-1.172857,-0.402670,0.629572
-1.136108,-0.101440,-0.098389,-1.113202,-0.325971,0.561395
-1.074707,-0.102661,-0.149536,-1.052482,-0.166181,0.468717
-1.072754,-0.078125,-0.169312,-0.994957,-0.020240,0.285491
-1.072021,-0.106323,-0.174072,-0.742490,0.119310,0.092678
-1.051147,-0.115356,-0.167847,-0.395213,0.218379,-0.085221
-0.983887,-0.115845,-0.159180,-0.093743,0.232228,-0.226901
-0.899414,-0.058716,-0.119263,0.026632,0.193878,-0.272708
-0.897461,-0.017334,-0.095459,0.142745,0.148072,-0.345146
-0.920898,0.050659,-0.082153,0.211988,0.102265,-0.437824
-0.955322,0.089478,-0.062866,0.288687,0.035154,-0.455933
-0.963623,0.086914,-0.026001,0.331297,-0.029827,-0.417584
-0.958740,0.093506,0.010620,0.428236,-0.079895,-0.348342
-0.944580,0.079346,0.033447,0.605070,-0.095874,-0.267381
-0.932495,0.054321,0.039673,0.902279,-0.078830,-0.198139
-0.940430,0.067871,0.047241,1.162204,-0.038350,-0.215184
-0.974487,0.139648,0.063354,1.274057,0.008522,-0.263120
-1.032837,0.242310,0.066040,1.162204,-0.013848,-0.307862
-1.052612,0.278931,0.067505,0.983239,-0.066046,-0.319579
-1.064331,0.291992,0.065796,0.760599,-0.129962,-0.327036
-1.084717,0.292358,0.078247,0.605070,-0.187487,-0.314253
-1.089478,0.264404,0.103516,0.581635,-0.210922,-0.306796
-1.113770,0.252319,0.203735,0.687096,-0.162986,-0.333428
-1.109741,0.207764,0.282471,1.135572,-0.142745,-0.315318
-1.088623,0.159790,0.200928,1.765144,-0.288687,-0.267381
-1.078369,0.223877,0.108398,2.325473,-0.654073,-0.289752
-1.049805,0.351074,0.019775,2.553440,-0.898018,-0.191748
-1.050781,0.395020,-0.012939,2.744122,-1.105745,-0.080960
-1.045898,0.420776,-0.070923,2.770754,-1.231446,0.036219
-1.027222,0.417847,-0.121826,2.538526,-1.285775,0.117179
-0.990234,0.307007,-0.088623,2.177401,-1.252751,0.205596
-0.955078,0.282837,0.001221,1.867409,-1.091897,0.148072
-1.018921,0.297852,-0.006836,1.555287,-0.941694,0.052198
-1.141968,0.296997,-0.050293,1.217598,-0.891627,-0.084156
-1.208130,0.304565,-0.137817,0.846886,-0.962999,-0.331297
-1.226563,0.341064,-0.137085,0.099070,-1.043960,-0.541155
-1.138916,0.356323,-0.061035,-0.594418,-0.919324,-0.679639
-1.014893,0.444458,-0.027710,-1.621333,-0.698814,-0.792557
-0.853149,0.496582,-0.049683,-3.160641,-0.501740,-0.868191
-0.641968,0.345703,0.008789,-4.539093,-0.177899,-0.809601
-0.624390,0.117676,0.214722,-5.296497,0.353668,-0.781904
-0.853882,-0.402466,0.166992,-4.775582,0.666856,-0.551807
-0.989502,-0.717773,0.159668,-2.947588,0.644485,-0.446346
-1.018555,-0.584229,0.163818,-0.830907,0.348342,-0.341950
-1.031982,-0.494141,0.088501,1.341169,-0.224771,0.297209
-0.875488,-0.458496,0.151245,2.304168,-0.289752,0.594418
-0.769043,-0.244873,0.210205,2.911369,-0.088417,0.740359
-0.737061,-0.016113,0.242432,2.914565,0.251403,0.688161
-0.773682,0.173462,0.266357,2.436261,0.524110,0.544350
-0.827515,0.312988,0.265869,1.650095,0.594418,0.348342
-0.892212,0.388184,0.255493,0.723315,0.509197,0.202400
-0.940430,0.360229,0.251953,-0.183226,0.380300,0.118244
-0.963623,0.319824,0.273315,-0.868191,0.263120,-0.010653
-0.979126,0.270874,0.303711,-1.186705,0.169377,-0.096939
-0.930908,0.129761,0.331177,-0.883105,0.119310,-0.145941
-0.827393,0.160034,0.353638,-0.560329,0.209857,-0.234358
-0.836304,0.202393,0.361450,-0.317449,0.282295,-0.240750
-0.863892,0.198730,0.322632,-0.086286,0.284426,-0.162986
-0.896362,0.224121,0.265625,0.140615,0.245011,-0.087352
-0.945068,0.297363,0.186523,0.153398,0.182160,-0.023436
-0.999634,0.390503,0.156738,-0.144876,0.126767,0.042611
-1.024292,0.351685,0.145508,-0.434628,0.059655,0.233293
-0.989502,0.220825,0.088745,-0.536893,-0.005326,0.393083
-0.930420,0.153076,0.037598,-0.485761,-0.014914,0.461260
-0.930664,0.157104,0.056885,-0.462325,0.007457,0.445281
-0.907349,0.195679,0.111572,-0.466586,0.102265,0.492152
-0.824707,0.133179,0.100342,-0.349407,0.221575,0.572047
-0.716064,0.090454,0.069702,-0.200270,0.344081,0.541155
-0.684937,0.084229,0.059692,-0.060720,0.475108,0.459129
-0.767944,0.110229,0.083130,-0.027697,0.597614,0.318514
-0.869751,0.068359,0.085693,0.037284,0.655138,0.239685
-0.951904,0.007446,0.072754,0.086286,0.641289,0.144876
-1.033691,-0.018433,0.064331,0.133158,0.290817,-0.021305
-1.055908,-0.007935,0.101196,0.180030,0.470847,-0.061785
-1.046143,-0.038330,0.087280,0.267381,0.416519,-0.078830
-1.086060,-0.061646,0.051025,0.395213,0.338754,-0.082025
-1.151367,-0.051636,0.028809,0.516653,0.240750,-0.137419
-1.269531,-0.001221,0.039429,0.576308,0.191748,-0.234358
-1.420776,0.071655,0.029663,0.629572,0.186421,-0.292948
-1.493530,0.155762,0.034912,0.577374,0.159790,-0.376038
-1.343262,0.172974,0.076050,0.612527,0.177899,-0.320645
-1.094360,0.141602,0.137085,0.825580,0.281230,-0.216249
-0.962769,0.177124,0.175049,0.960869,0.502805,-0.116114
-0.901245,0.305786,0.261475,0.719054,0.581635,-0.124636
-0.947510,0.333862,0.280518,0.299339,0.510262,-0.192813
-1.051880,0.323364,0.253540,-0.173638,0.345146,-0.177899
-1.154907,0.247192,0.215576,-0.654073,0.120375,-0.021305
-1.207886,0.150391,0.192505,-1.008806,-0.136354,0.165116
-1.198975,0.080933,0.119751,-1.231446,-0.399474,0.323841
-1.162964,-0.036255,0.048584,-1.243164,-0.599744,0.517719
-1.131714,-0.142456,0.010498,-1.017328,-0.696683,0.665791
-1.099487,-0.158203,0.002075,-0.703075,-0.670052,0.739294
-1.070435,-0.092896,0.117188,-0.332363,-0.332363,0.782970
-1.058594,-0.116577,0.083130,0.024501,-0.180030,0.827711
-1.009155,-0.073608,0.049316,0.350472,-0.140615,0.822384
-1.007813,-0.034546,0.040771,0.585896,-0.185356,0.792557
-0.979736,0.011108,0.037354,0.737163,-0.263120,0.785100
-0.908203,0.055420,0.031616,0.773382,-0.322775,0.788296
-0.882812,0.078247,0.029541,0.725445,-0.369647,0.748881
-0.869385,0.086060,0.016968,0.643420,-0.404801,0.704140
-0.846680,0.078003,0.004272,0.552872,-0.416519,0.646616
-0.823608,0.073120,-0.000488,0.431432,-0.382430,0.502805
-0.831055,0.066895,0.010376,0.365386,-0.337689,0.361125
-0.863892,0.072998,0.022217,0.289752,-0.294013,0.194943
-0.874878,0.066895,0.022827,0.221575,-0.272708,0.069242
-0.895386,0.046509,0.015015,0.188552,-0.265251,-0.062851
-0.971313,0.043335,0.020874,0.196009,-0.268447,-0.227967
-1.012695,0.056030,0.029175,0.224771,-0.267381,-0.367516
-1.035400,0.056030,0.024536,0.274838,-0.258859,-0.524110
-1.076416,0.075562,0.005615,0.327036,-0.255664,-0.633833
-1.146973,0.083984,0.000244,0.335558,-0.242880,-0.827711
-1.384399,0.068726,-0.052612,0.405866,-0.252468,-0.918258
-1.528687,0.077637,-0.029297,0.446346,-0.223706,-1.006675
-1.494629,0.105225,-0.007202,0.487891,-0.131028,-1.078048
-1.378296,0.151978,0.029297,0.446346,0.023436,-1.153682
-1.213867,0.221436,0.086792,0.341950,0.233293,-1.147290
-1.021851,0.268677,0.126221,0.221575,0.428236,-1.051416
-0.855957,0.280396,0.128540,0.132093,0.523045,-0.875648
-0.770020,0.233643,0.101196,0.118244,0.524110,-0.710532
-0.769775,0.175415,0.071045,0.161920,0.462325,-0.624245
-0.824463,0.136841,0.054565,0.260990,0.297209,-0.585896
-0.932129,0.157104,0.105713,0.309992,0.152333,-0.521980
-0.946167,0.144043,0.132080,0.402670,0.009587,-0.431432
-0.901733,0.107300,0.129150,0.569917,-0.105461,-0.364321
-0.907837,0.110596,0.109619,0.709466,-0.198139,-0.355798
-0.888306,0.101563,0.089355,0.885235,-0.312123,-0.267381
-0.875854,0.030029,0.068115,1.213337,-0.398409,-0.308927
-0.884888,0.043579,0.053589,1.645834,-0.447411,-0.269512
-0.877686,0.049072,0.036621,2.075136,-0.448477,-0.177899
-0.856567,0.082153,0.018921,2.442652,-0.357929,-0.095874
-0.829346,0.152466,0.027344,2.674880,-0.237554,-0.073503
-0.841797,0.193359,0.056519,2.617356,-0.073503,-0.044741
-0.849731,0.228760,0.069946,2.405368,0.059655,-0.041545
-0.862183,0.243530,0.084229,2.065549,0.161920,-0.071373
-0.878662,0.271240,0.112061,1.626660,0.253533,-0.111853
-0.887573,0.298584,0.161743,1.105745,0.361125,-0.148072
-0.897461,0.296387,0.198486,0.610397,0.463390,-0.186421
-0.898804,0.280029,0.211792,0.149137,0.548611,-0.194943
-0.901733,0.209473,0.188477,-0.198139,0.579504,-0.162986
-0.895752,0.174927,0.200928,-0.565656,0.651942,-0.127832
-0.928955,0.116455,0.242065,-0.663660,0.708401,-0.119310
-0.972778,0.078979,0.232666,-0.643420,0.725445,-0.128897
-1.033569,0.020508,0.218262,-0.497479,0.686031,-0.108657
-1.101196,-0.043091,0.218140,-0.196009,0.589091,-0.094809
-1.141602,-0.080322,0.180176,0.256729,0.434628,-0.080960
-1.238159,-0.082520,0.116333,0.733967,0.274838,-0.164051
-1.393555,0.010986,0.137817,1.063134,0.134223,-0.356864
-1.403320,0.148193,0.188721,1.222924,0.055394,-0.422910
-1.262939,0.212769,0.195435,1.248490,0.038350,-0.308927
-1.089233,0.222900,0.133545,1.198423,-0.004261,-0.162986
-1.028076,0.232178,0.130493,1.061004,-0.044741,-0.005326
-1.039551,0.245850,0.179810,0.831972,-0.056459,0.138484
-1.107422,0.258667,0.219360,0.502805,-0.085221,0.269512
-1.208374,0.216187,0.224609,0.254598,-0.171508,0.410127
-1.311890,0.101074,0.197388,0.257794,-0.436759,0.666856
-1.332764,0.042603,0.120850,0.404801,-0.756338,0.971522
-1.297485,0.016846,0.059082,0.498544,-1.035437,1.286840
-1.279053,-0.039307,0.044556,0.598679,-1.235707,1.488175
-1.259155,-0.036865,0.049805,0.773382,-1.293232,1.700163
-1.188599,-0.046021,0.050781,0.889496,-1.229316,1.816277
-1.134521,-0.067383,0.046631,1.029046,-1.120659,1.868475
-1.107300,-0.068604,0.040771,1.128116,-1.027981,1.839713
-1.056641,-0.058472,0.028198,1.151551,-0.982174,1.760883
-0.988159,-0.046509,0.013672,1.115332,-0.969391,1.626660
-0.927490,-0.039185,-0.002197,1.057808,-0.981109,1.450891
-0.874146,-0.038208,-0.018066,1.003479,-1.006675,1.254882
-0.833130,-0.042603,-0.031128,0.962999,-1.026915,1.043960
-0.803589,-0.049927,-0.040894,0.957673,-1.014132,0.724380
-0.775391,-0.044922,-0.059937,1.010936,-0.975783,0.532632
-0.759888,-0.041870,-0.077026,1.085505,-0.919324,0.287622
-0.760254,-0.025391,-0.086304,1.151551,-0.842625,0.075634
-0.754883,-0.018555,-0.091064,1.189901,-0.754208,-0.162986
-0.792480,0.015869,-0.099731,1.178183,-0.627441,-0.394148
-0.871948,0.051758,-0.070435,1.054612,-0.467651,-0.590157
-0.971924,0.063843,-0.031128,0.880974,-0.291883,-0.810667
-1.087280,0.075195,-0.007446,0.679639,-0.151268,-1.059939
-1.170532,0.083618,0.019165,0.465521,-0.039415,-1.290036
-1.217163,0.083252,0.050415,0.236489,0.100135,-1.545699
-1.261597,0.042603,0.048706,0.280165,0.147007,-1.663944
-1.317017,0.016724,0.031616,0.429302,0.149137,-1.809885
-1.401367,0.029175,0.031250,0.667921,0.154463,-1.923868
-1.442383,0.069824,0.045776,0.877778,0.181095,-1.963283
-1.349731,0.134644,0.074951,0.998153,0.243946,-1.925999
-1.207031,0.166870,0.084106,1.063134,0.273773,-1.835451
-1.068848,0.183716,0.077026,1.125985,0.248207,-1.718272
-0.937500,0.180786,0.050049,1.198423,0.165116,-1.596832
-0.914795,0.138794,0.008423,1.575527,-0.010653,-1.539308
-1.052246,0.126099,0.008789,1.559548,-0.144876,-1.532916
-1.080566,0.163940,0.014404,1.748100,-0.250337,-1.470066
-1.089111,0.182617,0.012573,1.920673,-0.298274,-1.438108
-1.078979,0.218750,0.006592,2.093246,-0.307862,-1.393366
-1.044800,0.264282,-0.002686,2.261557,-0.292948,-1.312406
-1.010132,0.307251,-0.018921,2.393650,-0.280165,-1.186705
-0.985474,0.335083,-0.032227,2.492720,-0.268447,-0.991762
-0.911499,0.351318,-0.031860,2.571549,-0.233293,-0.746751
-0.877808,0.354004,-0.027222,2.617356,-0.164051,-0.467651
-0.842773,0.323853,0.015869,2.683402,0.036219,-0.044741
-0.738159,0.305542,0.019043,2.717491,0.140615,0.246076
-0.733032,0.299194,0.026001,2.646118,0.255664,0.335558
-0.749634,0.315308,0.156128,2.482067,0.441020,0.442085
-0.790771,0.299805,0.198853,2.355301,0.537959,0.549677
-0.810913,0.286377,0.160156,2.129464,0.511327,0.610397
-0.839844,0.268921,0.184937,1.813081,0.511327,0.540089
-0.870605,0.277954,0.216553,1.528655,0.487891,0.442085
-0.902588,0.319214,0.294189,1.103614,0.500674,0.315318
-0.911865,0.321411,0.375610,0.349407,0.610397,0.153398
-0.945312,0.308472,0.423584,-0.092678,0.717989,0.000000
-1.031494,0.279053,0.421875,-0.525176,0.793622,-0.119310
-1.105103,0.234131,0.365967,-0.819189,0.760599,-0.202400
-1.139038,0.195068,0.316162,-1.038633,0.647681,-0.291883
-1.223267,0.152588,0.280640,-1.149421,0.553938,-0.373908
-1.398682,0.159546,0.291382,-1.129181,0.468717,-0.406931
-1.443726,0.194702,0.308594,-1.115332,0.365386,-0.307862
-1.444580,0.166992,0.279175,-1.045025,0.281230,-0.247141
-1.480591,0.198730,0.230713,-0.962999,0.177899,-0.226901
-1.377319,0.268311,0.180542,-0.902279,-0.036219,0.049002
-1.147217,0.290283,0.148804,-0.927846,-0.149137,0.329167
-0.959229,0.225708,0.168701,-0.920389,-0.178964,0.637028
-0.830444,0.165894,0.179077,-0.761664,-0.170442,0.915063
-0.814209,0.108032,0.171021,-0.553938,-0.201335,1.129181
-0.815308,0.093506,0.141113,-0.339819,-0.307862,1.172857
-0.837158,0.105225,0.101074,-0.217314,-0.465521,1.138768
-0.889404,0.125732,0.057129,-0.202400,-0.657268,1.084440
-0.966187,0.136230,0.017212,-0.290817,-0.853277,0.992827
-1.060791,0.147583,-0.005737,-0.731837,-1.059939,0.757403
-1.209229,0.167114,-0.019043,-0.785100,-1.110006,0.565656
-1.242310,0.172119,-0.033936,-0.962999,-1.078048,0.419714
-1.234009,0.153687,-0.054810,-1.013067,-0.985370,0.330232
-1.206055,0.149536,-0.067993,-0.948086,-0.858603,0.281230
-1.157104,0.132080,-0.078369,-0.761664,-0.749946,0.322775
-1.094482,0.104004,-0.082642,-0.466586,-0.671117,0.434628
-1.024414,0.076172,-0.081787,-0.112918,-0.615723,0.581635
-0.957153,0.052246,-0.084351,0.268447,-0.573112,0.741424
-0.927124,0.041748,-0.079102,0.656203,-0.544350,0.872452
-0.924194,0.084473,-0.045166,1.222924,-0.361125,0.907606
-0.887817,0.284668,-0.061157,0.863930,-0.063916,0.853277
-0.898682,0.212891,-0.123291,0.166181,0.153398,0.860734
-0.867432,0.104614,-0.163452,-0.377104,0.224771,0.866060
-0.792358,0.055542,-0.162476,-0.724380,0.242880,0.839429
-0.765259,0.012695,-0.148926,-0.904410,0.268447,0.741424
-0.776855,-0.038818,-0.118896,-0.974717,0.301470,0.580569
-0.797729,-0.093872,-0.064453,-0.934237,0.337689,0.390952
-0.833252,-0.150146,-0.033569,-0.751012,0.360060,0.181095
-0.896362,-0.198975,-0.022095,-0.077764,0.230097,-0.198139
-1.032837,-0.147095,0.046997,0.427171,0.067112,-0.527306
-1.122925,-0.073853,0.078735,0.845820,-0.033023,-0.789361
-1.222412,-0.014526,0.087891,0.997088,-0.033023,-1.095092
-1.364990,0.041382,0.133179,0.942759,0.115049,-1.417868
-1.486694,0.078125,0.160767,0.989631,0.290817,-1.650095
-1.508301,0.132568,0.193237,0.974717,0.466586,-1.837582
-1.405029,0.199341,0.241577,0.841559,0.664725,-1.921738
-1.291748,0.218262,0.331055,0.608266,0.919324,-1.805624
-1.182373,0.272217,0.429565,0.304666,1.154747,-1.826929
-1.092896,0.397583,0.448975,-0.213053,1.076983,-1.083374
-0.961060,0.223511,0.320068,-0.349407,0.811732,-0.720119
-0.922852,0.116577,0.173462,-0.334493,0.561395,-0.633833
-0.951416,0.072266,0.107788,-0.237554,0.281230,-0.659399
-0.979492,0.083008,0.099243,-0.074569,-0.033023,-0.624245
-0.996948,0.093384,0.123535,0.115049,-0.397344,-0.528371
-0.981567,0.067871,0.150513,0.402670,-0.721184,-0.335558
-0.916992,0.044800,0.155518,0.822384,-0.899084,-0.295078
-0.845703,0.058350,0.133545,1.346495,-0.845820,-0.267381
-0.809570,0.078979,0.110962,2.090050,-0.569917,-0.250337
-0.783447,0.114746,0.063721,2.444783,-0.380300,-0.242880
-0.775269,0.155396,0.025024,2.628008,-0.253533,-0.253533
-0.765259,0.215454,-0.003662,2.612030,-0.186421,-0.257794
-0.760742,0.285156,0.010864,2.387259,-0.122505,-0.258859
-0.775269,0.329468,0.071899,2.000567,-0.033023,-0.269512
-0.801392,0.324951,0.088501,1.678857,0.028762,-0.223706
-0.818970,0.319580,0.089478,1.340103,0.088417,-0.188552
-0.847778,0.319214,0.126831,0.993892,0.171508,-0.149137
-0.859619,0.322388,0.201416,0.674313,0.312123,-0.106526
-0.880615,0.303467,0.265381,0.364321,0.535828,0.027697
-0.889404,0.235596,0.267090,0.299339,0.592287,0.125701
-0.879028,0.195312,0.280151,0.286556,0.612527,0.215184
-0.896362,0.178467,0.304199,0.286556,0.640224,0.248207
-0.956299,0.174072,0.328247,0.242880,0.648746,0.213053
-1.028320,0.178711,0.313843,0.201335,0.575243,0.188552
-1.075562,0.179321,0.276978,0.145941,0.443150,0.218379
-1.100952,0.180176,0.240723,0.103331,0.255664,0.245011
-1.125122,0.166992,0.210449,0.089482,0.071373,0.240750
-1.149780,0.160156,0.184692,0.125701,-0.161920,0.223706
-1.214600,0.148315,0.113037,0.165116,-0.251403,0.205596
-1.318359,0.158936,0.106934,0.199205,-0.265251,0.138484
-1.402344,0.213745,0.141846,0.161920,-0.192813,0.083091
-1.389404,0.276978,0.171753,0.100135,-0.062851,0.133158
-1.265381,0.310791,0.143555,-0.011718,0.050067,0.251403
-1.165771,0.322510,0.118042,-0.221575,0.122505,0.401605
-1.073975,0.312012,0.115967,-0.480434,0.139550,0.586961
-1.003662,0.275879,0.118408,-0.748881,0.121440,0.757403
-0.975708,0.251343,0.117188,-0.993892,0.050067,0.882039
-1.014404,0.216309,0.127808,-1.263404,-0.138484,0.934237
-1.134399,0.133545,0.125977,-1.268731,-0.322775,0.951282
-1.206543,0.057861,0.097046,-1.124920,-0.544350,0.983239
-1.230713,-0.002197,0.051636,-0.846886,-0.771252,1.041829
-1.208618,-0.049194,0.014038,-0.483630,-0.972587,1.112136
-1.164917,-0.058472,-0.006958,-0.080960,-1.107875,1.138768
-1.116943,-0.041016,-0.014160,0.283360,-1.153682,1.139833
-1.068726,-0.021606,-0.010620,0.591222,-1.101484,1.122789
-1.034912,0.001343,0.006348,0.818123,-0.968326,1.116398
-1.011230,0.015503,0.029053,1.022654,-0.727576,1.112136
-0.978882,0.023193,0.018066,1.074852,-0.631702,1.058873
-0.949341,0.034912,0.014160,1.034372,-0.595483,0.996023
-0.914185,0.042480,0.022705,0.931041,-0.590157,0.919324
-0.881348,0.051880,0.036499,0.786165,-0.592287,0.830907
-0.844727,0.040649,0.034668,0.648746,-0.593353,0.731837
-0.823242,0.018433,0.038574,0.537959,-0.578439,0.584830
-0.788940,0.001343,0.050293,0.462325,-0.530502,0.392017
-0.760376,-0.009155,0.066162,0.423975,-0.449542,0.164051
-0.751709,-0.023926,0.069946,0.429302,-0.362190,-0.224771
-0.769287,-0.038086,0.049683,0.499609,-0.285491,-0.529437
-0.840820,-0.033691,0.037720,0.562460,-0.272708,-0.888431
-0.905273,-0.011719,0.035767,0.628506,-0.260990,-1.242099
-0.975708,0.010986,0.037476,0.672182,-0.229032,-1.572331
-1.060669,0.039917,0.036011,0.686031,-0.186421,-1.862083
-1.162598,0.074707,0.037842,0.690292,-0.143811,-2.060222
-1.249512,0.067505,0.041992,0.741424,-0.095874,-2.175271
-1.390381,0.036499,0.017944,0.921454,-0.109722,-2.344648
-1.622314,0.018921,-0.013428,1.208010,-0.192813,-2.417086
-1.709106,0.015503,-0.035156,1.777927,-0.360060,-2.559832
-1.580078,0.183228,-0.012451,2.030395,-0.343015,-2.482067
-1.437134,0.296143,0.035156,2.093246,-0.200270,-2.382998
-1.308105,0.410278,0.093384,1.969675,-0.012783,-2.178467
-1.162720,0.464966,0.132812,1.765144,0.155529,-1.957957
-1.017212,0.466797,0.111450,1.549960,0.197074,-1.634116
-0.911011,0.398926,0.046631,1.346495,0.129962,-1.360343
-0.894165,0.339844,0.005005,1.168596,0.042611,-1.236773
-0.944214,0.349976,0.012451,1.033307,-0.054329,-1.130246
-0.974365,0.372070,0.037598,0.920389,-0.159790,-0.831972
-0.960327,0.304199,0.050293,0.891627,-0.288687,-0.651942
-0.906738,0.268677,0.047363,0.998153,-0.289752,-0.488957
-0.864380,0.235474,0.047607,1.186705,-0.231162,-0.341950
-0.825195,0.222046,0.048096,1.402954,-0.123571,-0.206661
-0.800659,0.218140,0.058716,1.610680,0.013848,-0.086286
-0.779053,0.218994,0.078003,1.777927,0.156594,0.031958
-0.752319,0.226074,0.099365,1.876997,0.282295,0.128897
-0.727173,0.241699,0.141235,1.863148,0.397344,0.222640
-0.724243,0.239624,0.179199,1.789645,0.477239,0.305731
-0.723511,0.245117,0.203369,1.555287,0.559264,0.398409
-0.763794,0.258545,0.281372,1.312406,0.624245,0.471912
-0.813843,0.266724,0.320557,0.999218,0.693487,0.493218
-0.899780,0.289673,0.362183,0.564590,0.766991,0.484696
-1.012695,0.287598,0.419678,0.040480,0.820254,0.475108
-1.115112,0.248291,0.477539,-0.466586,0.847951,0.504936
-1.187622,0.126343,0.500610,-0.724380,0.752077,0.563525
-1.187500,0.012085,0.447021,-0.659399,0.531567,0.644485
-1.131104,-0.102661,0.348267,-0.316384,0.238619,0.746751
-1.009277,-0.161621,0.260254,0.208792,0.010653,0.822384
-0.924927,-0.151855,0.257080,0.962999,-0.224771,0.755273
-0.849731,-0.069092,0.280396,1.343299,-0.303600,0.681770
-0.861450,-0.040649,0.255249,1.677792,-0.308927,0.559264
-0.935181,0.005981,0.205200,1.935586,-0.260990,0.358994
-1.057495,0.080444,0.183960,2.024003,-0.206661,0.131028
-1.156616,0.186646,0.168701,1.888715,-0.160855,-0.075634
-1.236206,0.281860,0.160522,1.520133,-0.104396,-0.204531
-1.270752,0.334351,0.157349,1.081244,-0.075634,-0.199205
-1.215698,0.364502,0.166016,0.678574,-0.023436,-0.108657
-1.125366,0.355469,0.184937,0.144876,0.087352,0.152333
-0.991211,0.244751,0.219604,-0.075634,0.155529,0.376038
-0.908447,0.139282,0.224487,-0.101200,0.172573,0.548611
-0.882812,0.082642,0.199707,0.035154,0.101200,0.573112
-0.919678,0.101440,0.172119,0.128897,-0.035154,0.484696
-1.005981,0.140991,0.142456,0.184291,-0.247141,0.427171
-1.089844,0.168335,0.119873,0.147007,-0.499609,0.350472
-1.190430,0.179810,0.089233,0.041545,-0.768056,0.321710
-1.253174,0.147095,0.051392,-0.007457,-0.981109,0.311057
-1.277100,0.119507,0.022339,0.056459,-1.114267,0.317449
-1.270142,0.100952,0.002075,0.389887,-1.123854,0.376038
-1.181519,0.084351,0.002197,0.674313,-1.006675,0.452738
-1.100342,0.072510,0.022217,0.934237,-0.809601,0.528371
-1.027222,0.066772,0.043213,1.148355,-0.578439,0.611462
-0.978149,0.065918,0.045166,1.328385,-0.407996,0.677508
-0.944824,0.077515,0.036377,1.424259,-0.333428,0.707336
-0.910156,0.089600,0.029175,1.429585,-0.335558,0.689226
-0.888062,0.098999,0.028076,1.359278,-0.376038,0.610397
-0.880127,0.106079,0.029175,1.223989,-0.427171,0.497479
-0.862183,0.100342,0.025146,0.973652,-0.486826,0.307862
-0.817627,0.080322,0.013550,0.818123,-0.499609,0.152333
-0.781616,0.077026,0.011841,0.688161,-0.475108,-0.023436
-0.738159,0.075806,0.051025,0.550742,-0.367516,-0.219445
-0.717041,0.009277,0.164062,0.661529,-0.134223,-0.374973
-0.760864,-0.167603,0.295654,1.503089,0.091613,-0.465521
-0.814453,-0.251831,0.248413,2.703642,0.120375,-0.573112
-0.894775,-0.107300,0.123169,3.511113,0.034088,-0.762730
-1.035767,0.032227,0.056885,3.873303,-0.128897,-0.936368
-1.160278,0.214722,0.010010,4.073573,-0.368582,-1.131311
-1.234009,0.477173,-0.061768,3.707122,-0.896953,-1.198423
-1.218384,0.531616,-0.116333,3.283146,-1.242099,-1.167530
-1.176880,0.523926,-0.174927,2.871954,-1.499893,-1.103614
-1.125854,0.487183,-0.221680,2.675945,-1.557417,-1.012002
-1.125000,0.512329,-0.268066,2.496981,-1.508415,-0.929976
-1.205078,0.531616,-0.306763,2.314821,-1.412541,-0.876713
-1.324463,0.612549,-0.327271,2.028264,-1.271926,-0.842625
-1.467896,0.682129,-0.325928,1.506285,-1.176052,-0.763795
-1.465942,0.573853,-0.353271,0.936368,-1.103614,-0.551807
-1.317505,0.443970,-0.353149,0.320645,-0.895888,-0.431432
-1.054565,0.397705,-0.206299,-0.021305,-0.707336,-0.429302
-0.881348,0.373413,-0.030884,-0.450607,-0.467651,-0.451672
-0.708130,0.263062,0.074463,-0.869256,-0.250337,-0.353668
-0.598389,0.077881,0.065063,-0.973652,-0.101200,-0.187487
-0.633789,-0.046631,0.037598,-0.787231,-0.031958,-0.167247
-0.766479,-0.078125,0.034668,-0.532632,-0.042611,-0.271643
-0.895996,-0.070557,0.058350,-0.313188,-0.117179,-0.353668
-0.973267,-0.077148,0.074341,-0.104396,-0.197074,-0.334493
-1.006836,-0.075439,0.065308,0.138484,-0.257794,-0.242880
-0.963745,-0.073853,0.064941,0.494283,-0.257794,-0.191748
-0.903931,-0.038696,0.102783,0.637028,-0.153398,-0.161920
-0.834473,-0.044189,0.163208,0.738229,0.057524,-0.077764
-0.808960,-0.036743,0.177246,0.829841,0.231162,-0.058590
-0.811035,-0.038452,0.182373,0.889496,0.317449,-0.082025
-0.821777,0.001831,0.171387,0.900149,0.312123,-0.142745
-0.852295,0.032349,0.155273,0.901214,0.258859,-0.190682
-0.896484,0.059204,0.125488,0.856473,0.171508,-0.225836
-0.903809,0.052246,0.098145,0.804275,0.091613,-0.235424
-0.895264,0.056763,0.095703,0.874582,0.101200,-0.274838
-0.868896,0.022705,0.125854,0.977913,0.226901,-0.340885
-0.877441,0.081299,0.157471,1.005610,0.403735,-0.430367
-0.889648,0.125977,0.207397,0.993892,0.572047,-0.472978
-0.883789,0.147095,0.226440,0.999218,0.660464,-0.502805
-0.880005,0.205933,0.237183,0.965130,0.671117,-0.530502
-0.884644,0.227417,0.252075,0.932107,0.629572,-0.534763
-0.897217,0.225464,0.269775,0.935303,0.592287,-0.532632
-0.938110,0.232178,0.274902,0.931041,0.543285,-0.545416
-0.990601,0.262573,0.271606,0.892692,0.432498,-0.512392
-1.015869,0.286865,0.280762,0.790427,0.330232,-0.448477
-1.056641,0.298340,0.302979,0.740359,0.219445,-0.366451
-1.073853,0.312012,0.338501,0.778709,0.123571,-0.237554
-1.069336,0.318970,0.363281,0.912932,0.035154,-0.111853
-1.063599,0.325073,0.335815,1.111071,-0.061785,-0.017044
-1.040161,0.358032,0.289551,1.228250,-0.153398,0.037284
-1.021729,0.398315,0.261230,1.254882,-0.214118,0.104396
-1.013672,0.436768,0.228394,1.157943,-0.247141,0.187487
-1.006836,0.427612,0.188599,1.001349,-0.241815,0.309992
-1.010986,0.388306,0.158569,0.752077,-0.166181,0.455933
-1.071045,0.309204,0.123291,0.612527,-0.059655,0.506001
-1.243774,0.272217,0.120972,0.475108,0.058590,0.451672
-1.407593,0.255005,0.089233,0.387756,0.092678,0.437824
-1.413086,0.220459,0.032959,0.247141,0.092678,0.494283
-1.375488,0.181396,0.000854,0.145941,0.078830,0.547546
-1.304199,0.163208,-0.024292,0.120375,0.061785,0.602940
-1.206421,0.134033,-0.047974,0.088417,0.049002,0.656203
-1.055542,0.087402,-0.056152,0.020240,0.067112,0.708401
-0.864258,0.104980,-0.048218,-0.137419,0.220510,0.763795
-0.703613,0.168945,-0.058105,-0.534763,0.349407,0.741424
-0.735962,0.173706,-0.091919,-0.856473,0.431432,0.696683
-0.795288,0.113403,-0.083374,-1.123854,0.486826,0.642355
-0.887695,0.065674,-0.023804,-1.164335,0.531567,0.574178
-1.006348,0.001953,-0.044434,-0.991762,0.434628,0.487891
-1.087524,-0.009766,-0.099487,-0.752077,0.184291,0.378169
-1.096191,0.001831,-0.142578,-0.492152,-0.145941,0.300405
-1.054810,0.044678,-0.164307,-0.325971,-0.495348,0.265251
-1.016113,0.169067,-0.059326,-0.343015,-0.650877,0.292948
-1.030396,0.267822,0.042114,-0.490022,-0.666856,0.462325
-1.050171,0.180664,-0.013794,-0.364321,-0.844755,0.508131
-1.059082,0.166504,-0.034790,-0.115049,-1.075917,0.403735
-1.007690,0.045776,-0.007935,0.231162,-1.132377,0.365386
-0.968506,-0.002563,0.024414,0.623180,-0.948086,0.353668
-0.975830,0.083984,0.054687,0.822384,-0.607201,0.365386
-0.993042,0.185669,0.046021,0.752077,-0.257794,0.383495
-0.978394,0.206909,0.032227,0.488957,0.034088,0.413323
-0.957397,0.175903,0.022339,0.156594,0.227967,0.432498
-0.940063,0.148193,0.027344,-0.157659,0.370712,0.397344
-0.913818,0.108887,0.049927,-0.431432,0.403735,0.337689
-0.925415,0.082153,0.043701,-0.427171,0.368582,0.248207
-0.942505,0.083984,0.022827,-0.364321,0.260990,0.120375
-0.967896,0.089722,-0.003662,-0.302535,0.094809,-0.026632
-0.971069,0.102051,-0.026245,-0.281230,-0.075634,-0.157659
-0.978516,0.108521,-0.022949,-0.307862,-0.182160,-0.271643
-0.988770,0.112793,-0.005859,-0.333428,-0.191748,-0.378169
-0.997559,0.100586,0.004150,-0.305731,-0.124636,-0.495348
-1.008179,0.074951,0.003784,-0.172573,-0.027697,-0.597614
-1.056519,0.058838,-0.006836,0.080960,0.037284,-0.771252
-1.115723,0.072754,-0.015625,0.230097,0.007457,-0.872452
-1.087158,0.113892,-0.046509,0.292948,-0.058590,-0.967261
-1.111572,0.147705,-0.059814,0.220510,-0.096939,-1.099353
-1.223877,0.192017,-0.005615,0.066046,-0.036219,-1.248490
-1.335815,0.186523,0.042480,-0.005326,0.069242,-1.318798
-1.326660,0.189819,0.013550,0.014914,0.101200,-1.344364
-1.229004,0.243652,0.046265,0.015979,0.136354,-1.309211
-1.120605,0.313721,0.125122,0.029827,0.201335,-1.153682
-0.981689,0.356812,0.148804,-0.047937,0.322775,-0.773382
-0.909912,0.234863,0.164062,-0.037284,0.411192,-0.506001
-0.949463,0.159180,0.178711,0.127832,0.495348,-0.313188
-1.008789,0.144531,0.187622,0.317449,0.512392,-0.208792
-0.940308,0.162598,0.179565,0.421845,0.429302,-0.140615
-0.877563,0.170776,0.164307,0.503870,0.332363,-0.123571
-0.851440,0.167969,0.146240,0.570982,0.203466,-0.308927
-0.733276,0.266724,0.146729,0.566721,0.133158,-0.022371
-0.688843,0.226196,0.160278,0.493218,0.106526,-0.169377
-0.704468,0.259399,0.163330,0.427171,0.073503,-0.296144
-0.723999,0.271362,0.153931,0.301470,0.057524,-0.254598
-0.804565,0.267334,0.163574,0.251403,0.049002,-0.151268
-0.880127,0.247925,0.177856,0.245011,0.011718,-0.086286
-0.913696,0.222778,0.189209,0.357929,-0.039415,0.095874
-0.928955,0.184204,0.192017,0.504936,-0.078830,0.267381
-0.952515,0.133057,0.194458,0.747816,-0.124636,0.451672
-0.967285,0.084595,0.166016,1.001349,-0.162986,0.607201
-0.960449,0.103394,0.159668,1.150486,-0.189617,0.680704
-0.936523,0.125610,0.202393,1.132377,-0.155529,0.691357
-0.922974,0.144165,0.224609,1.032242,-0.071373,0.638094
-0.917847,0.127686,0.166870,0.813862,-0.060720,0.564590
-0.950195,0.131104,0.120117,0.638094,-0.104396,0.488957
-0.993408,0.149536,0.087402,0.446346,-0.147007,0.397344
-1.051270,0.166748,0.075562,0.287622,-0.143811,0.341950
-1.062134,0.155762,0.038086,0.237554,-0.110788,0.387756
-1.016113,0.103760,0.002686,0.275904,-0.049002,0.486826
-1.027588,0.053101,0.022339,0.418649,0.061785,0.516653
-1.112793,0.021729,0.056152,0.677508,0.204531,0.499609
-1.321045,0.013550,0.046631,0.925715,0.280165,0.363255
-1.532227,0.070190,0.063232,1.083374,0.189617,0.096939
-1.432373,0.221924,0.103760,0.998153,0.119310,0.017044
-1.203979,0.294434,0.121338,0.723315,0.093743,0.029827
-1.021118,0.334106,0.157104,0.366451,0.119310,0.126767
-0.914429,0.348389,0.151733,-0.045806,0.152333,0.213053
-0.932251,0.334595,0.133057,-0.537959,0.167247,0.294013
-1.043945,0.294312,0.121216,-1.047155,0.102265,0.386691
-1.143311,0.193359,0.112061,-1.440238,-0.064981,0.503870
-1.211914,0.056274,0.068848,-1.582984,-0.338754,0.610397
-1.231445,-0.071289,0.009033,-1.187770,-0.774448,0.774448
-1.105347,-0.222900,-0.035522,-0.850081,-0.952347,0.836233
-1.008179,-0.219971,-0.021362,-0.312123,-0.953412,0.817058
-0.955078,-0.175659,-0.004395,0.229032,-0.811732,0.777643
-0.906860,-0.108765,-0.004761,0.649812,-0.614658,0.717989
-0.876831,-0.035400,-0.015381,0.869256,-0.430367,0.680704
-0.848877,0.016479,-0.030762,0.929976,-0.303600,0.671117
-0.802490,0.055054,-0.042358,0.847951,-0.249272,0.622115
-0.755737,0.088623,-0.025269,0.638094,-0.213053,0.506001
-0.762451,0.116943,0.005615,0.362190,-0.172573,0.308927
-0.843750,0.125366,0.020996,-0.030893,-0.136354,-0.023436
-0.984253,0.116455,0.027466,-0.226901,-0.170442,-0.227967
-0.993896,0.099121,0.023437,-0.312123,-0.217314,-0.356864
-0.988403,0.077393,0.020020,-0.259925,-0.270577,-0.448477
-0.961548,0.062134,0.019531,-0.098004,-0.315318,-0.477239
-0.929565,0.036499,0.021484,0.178964,-0.338754,-0.504936
-0.922363,0.011719,0.014160,0.559264,-0.352603,-0.519849
-0.936523,-0.011719,0.003540,1.010936,-0.362190,-0.517719
-0.955322,-0.014160,-0.008423,1.459413,-0.360060,-0.557134
-0.987061,0.025757,-0.014038,1.918542,-0.316384,-0.712662
-1.059204,0.105103,-0.015015,2.018677,-0.286556,-0.843690
-1.108521,0.157227,-0.008057,1.928129,-0.257794,-1.000284
-1.144531,0.196533,0.005005,1.714011,-0.240750,-1.171791
-1.166504,0.212036,0.013794,1.462609,-0.237554,-1.318798
-1.216431,0.184204,0.006226,1.307080,-0.245011,-1.458348
-1.326660,0.145386,-0.005615,1.286840,-0.268447,-1.600028
-1.433838,0.127441,-0.016968,1.425324,-0.304666,-1.718272
-1.501709,0.139160,-0.023071,1.634116,-0.317449,-1.801363
-1.521484,0.192749,-0.000366,1.808820,-0.290817,-1.850365
-1.398804,0.278931,0.053589,1.935586,-0.189617,-1.715076
-1.108521,0.372192,0.055054,1.930260,-0.139550,-1.514807
-0.968628,0.393066,0.026978,1.861018,-0.153398,-1.228250
-0.912598,0.383057,-0.015015,1.702293,-0.216249,-0.851147
-0.818848,0.310181,-0.026978,1.486045,-0.245011,-0.604005
-0.882446,0.285400,-0.022339,1.331581,-0.240750,-0.380300
-0.903198,0.241089,0.006714,1.264469,-0.286556,-0.227967
-0.889771,0.224487,0.020630,1.250621,-0.286556,-0.074569
-0.868164,0.164673,0.039917,1.301754,-0.238619,0.098004
-0.835571,0.130615,0.056641,1.554222,-0.120375,0.246076
-0.773560,0.103516,0.063354,1.739578,-0.049002,0.230097
-0.741699,0.106323,0.071533,1.919607,0.021305,0.202400
-0.726807,0.110352,0.107300,2.029330,0.101200,0.159790
-0.745239,0.101563,0.136963,2.147574,0.159790,0.141680
-0.780518,0.092896,0.128906,2.250905,0.156594,0.112918
-0.811646,0.104492,0.147217,2.256231,0.145941,0.082025
-0.858887,0.135620,0.187256,2.177401,0.141680,0.060720
-0.913940,0.202759,0.262207,1.910020,0.185356,0.050067
-0.967041,0.219116,0.366943,1.457282,0.284426,-0.256729
-1.023804,0.192261,0.454102,0.785100,0.404801,0.007457
-1.019287,0.083374,0.441040,0.548611,0.379234,0.117179
-0.973511,0.004639,0.404785,0.517719,0.266316,0.241815
-0.906128,-0.082031,0.365479,0.692422,0.134223,0.334493
-0.859375,-0.127197,0.355591,1.048221,0.077764,0.274838
-0.850464,-0.103394,0.350098,1.528655,0.008522,0.133158
-0.857910,-0.086914,0.326172,2.116681,-0.085221,0.061785
-0.853027,-0.048096,0.241821,2.637596,-0.181095,0.002131
-0.847656,0.035522,0.145874,3.000851,-0.278034,-0.083091
-0.863647,0.148193,0.078491,3.022156,-0.404801,-0.290817
-0.966675,0.278442,0.040771,2.850649,-0.517719,-0.380300
-1.003296,0.319702,-0.031128,2.621617,-0.606136,-0.402670
-1.054199,0.316162,-0.052124,2.336126,-0.595483,-0.478304
-1.224609,0.340454,-0.007446,2.020808,-0.449542,-0.628506
-1.403687,0.449585,0.074585,1.598963,-0.198139,-0.688161
-1.416504,0.512085,0.083496,1.195227,0.067112,-0.580569
-1.285278,0.512207,0.054687,0.867126,0.257794,-0.472978
-1.164307,0.519043,0.060059,0.578439,0.386691,-0.307862
-1.063599,0.510498,0.104980,0.314253,0.490022,0.204531
-0.990234,0.481934,0.160522,-0.023436,0.590157,0.373908
-1.039551,0.396606,0.157349,-0.141680,0.539024,0.521980
-1.077881,0.421509,0.111816,-0.314253,0.388822,0.562460
-1.090576,0.443848,0.041992,-0.601875,0.155529,0.647681
-1.112061,0.409424,-0.007813,-0.920389,-0.116114,0.780839
-1.144409,0.329956,-0.002441,-1.194162,-0.385626,0.933172
-1.162842,0.231201,0.006592,-1.350756,-0.572047,1.111071
-1.122803,0.149658,-0.008057,-1.303884,-0.532632,1.293232
-1.078491,0.125488,-0.029297,-1.151551,-0.380300,1.392301
-1.082031,0.096191,-0.043579,-0.849016,-0.157659,1.401889
-1.102051,0.069458,-0.035889,-0.641289,-0.040480,1.325189
-1.102661,0.079468,-0.026978,-0.504936,0.030893,1.227185
-1.098877,0.090332,-0.022339,-0.458064,0.022371,1.125985
-1.077393,0.097412,-0.020630,-0.480434,-0.064981,1.049286
-1.037476,0.077637,-0.016602,-0.528371,-0.182160,1.003479
-0.989990,0.044434,-0.005371,-0.555003,-0.290817,0.939564
-0.937012,0.022095,0.002808,-0.526241,-0.363255,0.883105
-0.883545,0.003296,0.006958,-0.443150,-0.385626,0.830907
-0.836426,-0.015259,0.007202,-0.315318,-0.362190,0.774448
-0.791016,-0.029663,0.011963,-0.075634,-0.265251,0.675378
-0.740479,-0.037720,0.018555,0.069242,-0.173638,0.579504
-0.729492,-0.036377,0.028809,0.173638,-0.087352,0.432498
-0.745728,-0.027344,0.040771,0.255664,-0.017044,0.231162
-0.798950,-0.013550,0.062866,0.365386,0.055394,-0.009587
-0.859985,0.008301,0.078003,0.418649,0.165116,-0.259925
-0.931763,-0.002686,0.070190,0.468717,0.264186,-0.524110
-1.007324,-0.006104,0.036743,0.600809,0.288687,-0.842625
-1.076050,-0.000610,0.002441,0.681770,0.221575,-1.215467
-1.137451,-0.013306,-0.002441,0.868191,0.072438,-1.724664
-1.241943,0.011230,0.031982,1.021589,0.021305,-2.015481