ax,ay,az,gx,gy,gz
-0.822144,0.150635,0.109253,1.116398,-0.528371,0.983239
-0.944092,0.250977,0.117432,0.665791,-0.817058,0.935303
-1.055786,0.297119,0.096802,0.161920,-1.132377,0.938498
-1.104980,0.289063,0.061768,-0.404801,-1.347560,0.966195
-1.084351,0.202515,0.059692,-0.835168,-1.348625,1.037568
-1.052002,0.088257,0.078125,-0.899084,-1.328385,1.036503
-1.039185,0.015259,0.068604,-0.598679,-1.260208,1.016263
-0.990845,0.014771,0.064697,-0.171508,-1.081244,0.985370
-0.933960,0.027710,0.058228,0.266316,-0.811732,0.938498
-0.916992,0.111816,0.034424,0.525176,-0.514523,0.879909
-0.943115,0.191650,0.011719,0.386691,-0.154463,0.839429
-0.962402,0.262573,-0.003540,-0.002131,0.022371,0.813862
-0.958374,0.279907,-0.007935,-0.517719,0.171508,0.790427
-0.947754,0.273071,-0.015747,-1.052482,0.279099,0.782970
-0.928101,0.243652,-0.031250,-1.531851,0.338754,0.794688
-0.905640,0.187134,-0.048584,-1.875932,0.346211,0.796818
-0.887207,0.119019,-0.049683,-2.038917,0.335558,0.766991
-0.884277,0.073242,-0.035278,-2.053831,0.355798,0.704140
-0.911499,0.045044,-0.015015,-1.959022,0.411192,0.613593
-0.920532,0.045898,-0.004517,-1.809885,0.502805,0.454868
-0.968750,0.061890,-0.008667,-1.589375,0.518784,0.346211
-0.904907,0.051514,-0.026123,-1.446630,0.519849,0.249272
-1.053955,0.051025,-0.055054,-1.223989,0.481500,0.101200
-1.100098,0.025879,-0.061768,-1.005610,0.456999,-0.108657
-1.249756,0.113159,-0.060303,-0.808536,0.406931,0.035154
-1.234009,0.088013,-0.057739,-0.694553,0.416519,-0.061785
-1.200562,0.149780,-0.065063,-0.667921,0.466586,-0.156594
-1.163086,0.181763,-0.061768,-0.756338,0.563525,-0.272708
-1.157959,0.258545,-0.045532,-0.962999,0.684965,-0.353668
-1.100220,0.312500,-0.020386,-1.509480,0.846886,-0.285491
-0.990112,0.337158,0.008667,-1.902563,0.919324,-0.162986
-0.913208,0.299805,0.011719,-2.235991,0.941694,-0.015979
-0.863037,0.188232,0.008545,-2.391520,0.885235,-0.074569
-0.941650,0.177856,-0.022095,-2.389389,0.751012,0.056459
-1.023315,0.114258,-0.048950,-2.340387,0.521980,0.052198
-1.068237,0.115112,-0.068604,-2.253035,0.236489,0.012783
-1.096924,0.106812,-0.098633,-2.149704,-0.013848,-0.043676
-1.075928,0.094849,-0.136108,-2.011220,-0.180030,-0.039415
-1.031250,0.096924,-0.172119,-1.773666,-0.235424,0.117179
-0.959229,0.031372,-0.186768,-1.270861,-0.182160,0.024501
-0.909912,0.030029,-0.186646,-0.850081,-0.080960,0.068177
-0.924805,0.017944,-0.198853,-0.363255,0.047937,0.093743
-0.928833,0.035767,-0.210449,0.098004,0.129962,0.145941
-0.902466,0.075562,-0.219727,0.403735,0.150202,0.103331
-0.923950,0.109009,-0.221069,0.550742,0.131028,0.029827
-0.947754,0.156128,-0.206665,0.529437,0.101200,-0.044741
-0.946045,0.205933,-0.189575,0.357929,0.079895,-0.121440
-0.960571,0.230469,-0.180542,0.087352,0.064981,-0.198139
-0.983521,0.227295,-0.164062,-0.298274,0.063916,-0.280165
-1.034546,0.213623,-0.122925,-0.478304,0.073503,-0.290817
-1.046143,0.201050,-0.093140,-0.588026,0.076699,-0.294013
-1.098022,0.165894,-0.074707,-0.578439,0.078830,-0.292948
-1.150757,0.128906,-0.063965,-0.415453,0.078830,-0.247141
-1.150757,0.086426,-0.031860,-0.062851,0.131028,-0.149137
-1.200439,0.071045,-0.008423,0.416519,0.349407,0.011718
-1.283813,0.056274,-0.032715,0.772317,0.564590,0.113983
-1.257690,-0.088257,-0.099976,1.127050,0.695618,0.276969
-1.166870,-0.338745,-0.146729,1.602158,0.667921,0.196009
-1.172729,-0.224609,-0.242310,2.256231,0.794688,-0.024501
-1.289917,-0.061768,-0.245483,2.016546,0.893757,-0.193878
-1.247437,0.076050,-0.183716,1.343299,0.821319,-0.377104
-1.132446,0.214355,-0.135376,0.340885,0.567786,-0.540089
-1.002563,0.340332,-0.112671,-0.742490,0.308927,-0.651942
-0.852051,0.303101,-0.106201,-1.585114,0.129962,-0.624245
-0.750122,0.168457,-0.083008,-1.884454,-0.014914,-0.514523
-0.706665,0.040649,-0.046021,-1.740643,-0.096939,-0.279099
-0.670288,-0.043091,-0.006470,-1.526525,-0.121440,-0.157659
-0.624878,-0.124023,0.052979,-1.138768,-0.013848,-0.076699
-0.684692,-0.074585,0.121338,-0.803210,0.273773,-0.182160
-0.859131,0.084229,0.125122,-0.435693,0.438889,-0.240750
-0.984131,0.145020,0.031738,-0.157659,0.355798,-0.254598
-0.988770,0.190674,-0.019775,0.061785,0.180030,-0.312123
-1.073120,0.240234,-0.015259,0.126767,-0.022371,-0.307862
-1.011841,0.249390,-0.016602,0.010653,-0.034088,-0.406931
-1.024536,0.221802,-0.011597,-0.186421,-0.013848,-0.264186
-1.049805,0.183594,0.011353,-0.317449,-0.063916,-0.144876
-1.050293,0.144775,0.060303,-0.373908,-0.175769,0.045806
-1.030640,0.102417,0.104858,-0.337689,-0.213053,0.103331
-1.008545,0.125122,0.107300,-0.344081,-0.219445,0.096939
-1.008057,0.129395,0.097290,-0.352603,-0.187487,0.045806
-1.004761,0.124023,0.075928,-0.439954,-0.116114,0.028762
-0.967529,0.084473,0.069336,-0.479369,-0.034088,0.069242
-0.943359,0.111206,0.058838,-0.477239,0.055394,0.103331
-0.921631,0.134155,0.041016,-0.487891,0.109722,0.061785
-0.902588,0.155151,0.025635,-0.518784,0.148072,0.007457
-0.885864,0.193604,-0.001709,-0.675378,0.171508,-0.057524
-0.827881,0.181763,-0.025146,-1.020524,0.186421,-0.168312
-0.898560,0.166504,-0.044556,-1.228250,0.118244,-0.143811
-0.861694,0.158936,-0.061523,-1.349691,0.135289,-0.223706
-0.972778,0.159180,-0.088135,-1.397627,0.186421,-0.294013
-0.968994,0.170654,-0.123779,-1.428520,0.240750,-0.336624
-1.011963,0.145874,-0.165039,-1.465804,0.268447,-0.365386
-1.061157,0.129150,-0.197144,-1.480718,0.297209,-0.330232
-1.086182,0.153809,-0.231079,-1.438108,0.362190,-0.262055
-1.137695,0.156616,-0.292725,-1.405084,0.421845,-0.265251
-1.174927,0.145142,-0.364746,-1.398693,0.450607,-0.231162
-1.234619,0.110107,-0.406372,-1.480718,0.494283,-0.184291
-1.228271,0.127563,-0.390259,-1.581918,0.548611,-0.207727
-1.148193,0.164917,-0.370239,-1.761948,0.567786,-0.193878
-1.013428,0.151978,-0.339478,-1.953696,0.578439,-0.155529
-0.933838,0.126953,-0.324219,-2.095376,0.526241,-0.125701
-0.879639,0.079956,-0.339966,-2.164618,0.453803,-0.078830
-0.962769,0.035278,-0.367676,-2.190185,0.190682,-0.101200
-0.923218,0.015625,-0.384277,-2.184858,0.009587,0.028762
-0.939575,-0.026001,-0.375854,-2.104963,-0.106526,0.117179
-0.955322,-0.050049,-0.435059,-1.801363,-0.088417,0.203466
-0.940063,-0.022461,-0.468750,-1.651161,-0.013848,0.209857
-0.923706,0.001465,-0.528076,-1.514807,0.070307,0.180030
-0.909912,0.063599,-0.553711,-1.465804,0.149137,0.150202
-0.846558,0.191895,-0.592407,-1.598963,0.206661,0.470847
-0.675049,-0.198975,-0.563477,-1.706554,0.486826,-0.949151
-1.083862,0.334229,-0.500000,-1.515872,0.017044,-0.074569
-0.880737,0.042847,-0.470215,-1.712946,-0.069242,0.171508
-0.772705,0.053589,-0.456543,-1.535047,-0.144876,0.008522
-0.894653,0.052490,-0.415527,-1.350756,-0.239685,0.038350
-0.939087,0.029541,-0.371094,-0.862865,-0.307862,0.008522
-0.921875,0.029419,-0.333862,-0.630637,-0.276969,0.003196
-0.882935,0.058228,-0.311768,-0.442085,-0.125701,-0.024501
-0.992798,0.088623,-0.312500,-0.358994,-0.037284,-0.143811
-1.052246,0.082397,-0.325195,-0.270577,-0.030893,-0.296144
-1.042969,0.128784,-0.334473,-0.214118,-0.094809,-0.390952
-1.096191,0.176880,-0.326538,-0.236489,-0.221575,-0.276969
-1.028931,0.161377,-0.291870,-0.268447,-0.339819,-0.170442
-1.053955,0.091553,-0.245605,-0.239685,-0.382430,-0.111853
-1.051636,0.045410,-0.157104,-0.116114,-0.284426,-0.051133
-1.084595,0.086182,-0.146606,-0.030893,-0.236489,-0.033023
-1.094116,0.038940,-0.132568,0.109722,-0.227967,-0.060720
-1.128052,0.037231,-0.149414,0.247141,-0.298274,-0.088417
-1.235229,0.061890,-0.146973,0.284426,-0.387756,-0.063916
-1.294556,0.085571,-0.094238,0.229032,-0.384561,-0.046872
-1.267822,0.160400,-0.037964,0.116114,-0.296144,-0.043676
-1.187378,0.200928,-0.022583,-0.022371,-0.182160,0.003196
-1.096680,0.182739,-0.019409,-0.123571,-0.125701,0.072438
-1.006836,0.208740,0.009155,-0.510262,-0.103331,0.132093
-0.851440,0.251953,0.008057,-0.677508,-0.115049,0.174703
-0.791748,0.231812,-0.011841,-0.942759,-0.152333,0.099070
-0.779297,0.218872,-0.031128,-1.151551,-0.238619,0.126767
-0.771729,0.216064,-0.051880,-1.378453,-0.278034,0.104396
-0.825195,0.192993,-0.085571,-1.594702,-0.275904,0.050067
-0.843140,0.182861,-0.121338,-1.793906,-0.235424,0.094809
-0.850342,0.129150,-0.148071,-1.915346,-0.145941,0.088417
-0.956665,0.086548,-0.157349,-1.887649,-0.060720,-0.053263
-0.921997,0.155151,-0.160767,-1.868475,0.076699,0.074569
-0.942871,0.159546,-0.145142,-1.873801,0.263120,0.079895
-1.032227,0.178345,-0.088623,-1.861018,0.319579,-0.019175
-0.961426,0.210449,-0.078613,-1.886584,0.355798,-0.070307
-0.962891,0.203003,-0.084717,-1.907889,0.350472,-0.087352
-0.950439,0.185303,-0.079346,-1.892976,0.319579,-0.029827
-0.895752,0.156006,-0.073364,-1.824799,0.282295,0.000000
-0.885742,0.146729,-0.073364,-1.763013,0.266316,0.006392
-0.853149,0.142578,-0.068237,-1.736382,0.288687,-0.019175
-0.864258,0.167114,-0.064331,-1.776862,0.335558,-0.066046
-0.889038,0.190308,-0.070557,-1.969675,0.393083,-0.096939
-0.913452,0.199097,-0.092651,-2.112420,0.402670,-0.079895
-0.899780,0.172974,-0.097534,-2.190185,0.411192,-0.022371
-0.895142,0.129028,-0.095459,-2.155031,0.431432,-0.044741
-0.941528,0.140137,-0.083496,-2.049570,0.446346,-0.084156
-0.999756,0.158813,-0.075073,-1.995241,0.422910,-0.078830
-1.003174,0.139404,-0.067749,-1.965414,0.369647,-0.074569
-1.002563,0.101440,-0.063477,-1.826929,0.323841,-0.056459
-1.046143,0.027222,-0.077759,-1.528655,0.253533,-0.034088
-1.109253,-0.029663,-0.130005,-1.103614,0.144876,-0.046872
-1.183228,-0.116333,-0.281250,-0.183226,-0.142745,-0.020240
-1.237061,-0.278809,-0.328247,0.585896,-0.309992,-0.040480
-1.182007,-0.152466,-0.309692,1.003479,-0.312123,-0.042611
-1.059082,-0.030396,-0.267578,0.912932,-0.137419,-0.006392
-0.992676,-0.008667,-0.254639,0.534763,0.104396,-0.020240
-1.067139,0.017090,-0.265015,0.035154,0.317449,-0.133158
-1.114624,0.041138,-0.250244,-0.544350,0.491087,-0.243946
-1.058228,0.035400,-0.222900,-1.104680,0.659399,-0.341950
-0.997559,0.024414,-0.206421,-1.544634,0.789361,-0.307862
-0.947754,-0.039673,-0.219727,-1.861018,0.806406,-0.273773
-0.972046,-0.088501,-0.214355,-1.912151,0.754208,-0.274838
-1.039673,-0.145386,-0.180420,-1.803493,0.678574,-0.298274
-1.069824,-0.187988,-0.203369,-1.510546,0.504936,-0.312123
-1.041748,-0.163086,-0.261963,-1.258078,0.292948,-0.312123
-0.997192,-0.151367,-0.303711,-1.030111,0.082025,-0.383495
-0.925415,-0.109985,-0.329468,-0.869256,-0.030893,-0.443150
-0.886230,-0.037354,-0.337036,-0.837298,-0.031958,-0.508131
-0.872681,0.013550,-0.337402,-0.968326,0.063916,-0.540089
-0.887695,0.034546,-0.322388,-1.162204,0.218379,-0.548611
-0.902100,0.053223,-0.283813,-1.399758,0.491087,-0.511327
-0.965576,0.065430,-0.251465,-1.504154,0.601875,-0.485761
-1.026245,0.057251,-0.215820,-1.486045,0.631702,-0.492152
-1.124023,0.088989,-0.191772,-1.450891,0.558199,-0.518784
-1.011597,0.111206,-0.180176,-1.428520,0.433563,-0.480434
-1.165405,0.105103,-0.203369,-1.376322,0.271643,-0.461260
-1.166016,0.042847,-0.190430,-1.323059,0.060720,-0.362190
-1.004883,0.052979,-0.164307,-1.183509,-0.099070,-0.511327
-1.099487,0.118286,-0.154053,-1.090831,-0.164051,-0.197074
-1.049438,0.070190,-0.140625,-0.964065,-0.162986,0.144876
-1.020996,0.028809,-0.133789,-0.818123,-0.177899,0.167247
-1.030396,0.007690,-0.146118,-0.668986,-0.209857,0.215184
-0.995117,-0.020142,-0.136230,-0.499609,-0.241815,0.254598
-0.953491,0.004028,-0.108887,-0.350472,-0.266316,0.230097
-0.963867,0.021484,-0.097290,-0.240750,-0.309992,0.162986
-0.957397,0.030518,-0.116699,-0.176834,-0.351537,0.063916
-1.064087,0.177368,-0.140137,-0.188552,-0.404801,0.304666
-0.854126,0.022949,-0.141357,-0.190682,-0.467651,-0.220510
-1.029053,0.117676,-0.165283,-0.102265,-0.470847,-0.155529
-1.124268,0.075073,-0.167236,-0.017044,-0.506001,0.040480
-1.046021,0.007813,-0.157227,0.110788,-0.519849,0.002131
-1.069946,-0.076172,-0.154419,0.295078,-0.547546,-0.057524
-1.035645,-0.178223,-0.181396,0.631702,-0.577374,-0.278034
-1.121826,-0.185181,-0.280029,1.018393,-0.550742,-0.330232
-1.234863,-0.177734,-0.376953,1.221859,-0.575243,-0.600809
-1.248291,-0.003174,-0.429687,1.167530,-0.581635,-0.786165
-1.187012,0.135376,-0.411987,0.777643,-0.531567,-0.812797
-1.041260,0.182251,-0.339478,0.237554,-0.345146,-0.664725
-0.933472,0.174438,-0.255249,-0.568851,0.056459,-0.371777
-0.841797,0.066162,-0.097412,-0.817058,0.289752,-0.117179
-0.801270,-0.001221,-0.029175,-0.809601,0.420780,0.112918
-0.821777,-0.064209,0.021240,-0.773382,0.469782,0.240750
-0.908447,-0.070801,0.067749,-0.758469,0.442085,0.274838
-1.000732,-0.059204,0.088501,-0.770186,0.305731,0.327036
-1.064575,-0.053345,0.079102,-0.769121,0.085221,0.355798
-1.100586,-0.115479,0.067871,-0.691357,-0.173638,0.447411
-1.078125,-0.122314,0.092407,-0.585896,-0.360060,0.355798
-1.053223,-0.009399,0.104248,-0.583765,-0.410127,0.428236
-1.026489,-0.030518,0.111450,-0.682835,-0.387756,0.477239
-0.974976,0.085693,0.089844,-0.806406,-0.316384,0.605070
-0.938965,-0.009521,0.056152,-0.877778,-0.299339,0.724380
-0.903931,-0.080444,0.031250,-0.771252,-0.295078,0.773382
-0.897461,-0.152588,-0.002563,-0.561395,-0.346211,0.839429
-0.881592,-0.212402,-0.032349,-0.255664,-0.404801,0.776578
-0.907227,-0.206665,-0.058105,0.029827,-0.429302,0.539024
-0.977051,-0.150513,-0.095825,0.191748,-0.294013,0.321710
-1.000366,-0.079102,-0.132446,0.093743,-0.075634,0.142745
-0.991943,-0.059570,-0.156006,-0.447411,0.274838,-0.092678
-0.982788,0.040283,-0.146851,-0.906540,0.471912,-0.233293
-0.983887,0.047363,-0.111084,-1.232512,0.585896,-0.348342
-0.994629,0.092407,-0.094360,-1.462609,0.598679,-0.434628
-0.990234,0.083008,-0.070312,-1.644769,0.568851,-0.434628
-0.978271,0.029785,-0.021851,-1.709750,0.529437,-0.361125
-0.962036,0.005005,0.030029,-1.669270,0.488957,-0.297209
-0.917603,0.016479,0.072876,-1.569135,0.435693,-0.206661
-0.888794,0.010620,0.113281,-1.438108,0.380300,-0.103331
-0.862549,0.005127,0.162964,-1.271926,0.328102,0.255664
-0.845337,-0.010620,0.197632,-1.094027,0.247141,-0.067112
-0.887207,0.031250,0.216675,-1.032242,0.201335,-0.172573
-0.975586,0.026245,0.218628,-0.937433,0.099070,-0.238619
-1.055298,0.005615,0.178467,-0.752077,-0.075634,-0.235424
-1.099243,-0.001953,0.134888,-0.542220,-0.267381,-0.216249
-1.118408,-0.009399,0.138672,-0.317449,-0.419714,-0.152333
-1.102295,0.012451,0.113892,-0.062851,-0.535828,-0.061785
-1.049194,0.026367,0.100464,0.153398,-0.568851,0.040480
-0.987549,-0.029175,0.083740,0.433563,-0.533698,0.150202
-1.026855,-0.032715,0.056396,0.813862,-0.435693,0.101200
-1.259888,0.075562,0.011963,0.901214,-0.448477,0.033023
-1.360840,0.099243,-0.025024,0.880974,-0.519849,0.002131
-1.319336,0.136230,-0.071899,0.788296,-0.617854,0.024501
-1.242432,0.161133,-0.100952,0.664725,-0.681770,0.084156
-1.205078,0.143555,-0.121948,0.570982,-0.703075,0.197074
-1.114380,0.090088,-0.124023,0.530502,-0.651942,0.351537
-1.013550,0.026123,-0.111450,0.602940,-0.519849,0.528371
-0.939453,-0.001465,-0.099243,0.715858,-0.332363,0.679639
-0.920776,-0.025391,-0.098877,0.853277,-0.153398,0.829841
-0.930176,-0.058594,-0.092651,0.938498,0.055394,0.841559
-0.955566,-0.062378,-0.084839,0.920389,0.127832,0.823450
-0.946777,-0.060425,-0.091064,0.913997,0.137419,0.778709
-0.913452,-0.069702,-0.109863,0.840494,0.092678,0.715858
-0.901489,-0.022705,-0.124390,0.703075,0.046872,0.630637
-0.939575,0.038574,-0.131348,0.467651,0.018110,0.549677
-0.976685,0.075073,-0.124512,0.172573,0.023436,0.495348
-0.990479,0.040283,-0.089478,-0.105461,0.084156,0.466586
-0.991821,0.045288,-0.055542,-0.280165,0.184291,0.406931
-1.031128,0.067505,-0.038696,-0.414388,0.253533,0.206661
-1.076782,0.141357,-0.030762,-0.533698,0.245011,0.071373
-1.101440,0.179077,-0.032959,-0.680704,0.198139,-0.018110
-1.092773,0.192017,-0.040894,-0.822384,0.133158,-0.042611
-1.049438,0.182983,-0.034058,-0.901214,0.088417,-0.041545
-0.994141,0.171631,-0.005127,-0.884170,0.093743,-0.008522
-0.953003,0.162476,0.011841,-0.825580,0.122505,0.027697
-0.925049,0.154663,0.021484,-0.749946,0.148072,0.075634
-0.915283,0.137329,0.034180,-0.624245,0.164051,0.108657
-0.924927,0.140137,0.046631,-0.495348,0.170442,0.084156
-0.941040,0.162476,0.056152,-0.434628,0.143811,0.035154
-0.959229,0.181519,0.050537,-0.463390,0.096939,-0.037284
-0.966431,0.197144,0.039185,-0.535828,0.036219,-0.116114
-0.971558,0.208618,0.034546,-0.642355,-0.011718,-0.206661
-0.987793,0.231323,0.045166,-0.788296,-0.023436,-0.286556
-1.033569,0.242065,0.046265,-0.926780,-0.028762,-0.332363
-1.056641,0.236084,0.036743,-1.041829,-0.047937,-0.330232
-1.046021,0.215210,0.027100,-1.096158,-0.079895,-0.317449
-1.050293,0.187988,0.024780,-1.075917,-0.106526,-0.306796
-1.126709,0.148193,0.004150,-0.849016,-0.149137,-0.378169
-1.359985,0.170776,0.048340,-0.714793,-0.131028,-0.510262
-1.368652,0.243774,0.103271,-0.663660,-0.045806,-0.584830
-1.215698,0.312988,0.139404,-0.756338,0.098004,-0.547546
-1.056396,0.358276,0.182373,-0.928911,0.258859,-0.438889
-0.929443,0.344482,0.217529,-1.019459,0.349407,-0.224771
-0.819824,0.275879,0.206543,-0.973652,0.340885,0.034088
-0.741333,0.208008,0.153442,-0.862865,0.239685,0.242880
-0.728271,0.165894,0.102539,-0.732902,0.135289,0.414388
-0.777344,0.123657,0.090576,-0.651942,-0.025566,0.527306
-0.835327,0.041992,0.134521,-0.434628,-0.411192,0.569917
-0.896484,0.090210,0.138550,-0.312123,-0.639159,0.602940
-0.900391,0.104126,0.127319,-0.249272,-0.709466,0.607201
-0.878418,0.151489,0.090454,-0.275904,-0.595483,0.545416
-0.877686,0.206055,0.044678,-0.520915,-0.321710,0.445281
-0.900146,0.204224,0.020996,-0.842625,0.013848,0.302535
-0.915649,0.188599,0.011597,-1.130246,0.333428,0.151268
-0.929687,0.176025,0.005493,-1.377388,0.582700,0.024501
-0.945923,0.185425,0.010498,-1.605354,0.728641,-0.072438
-0.959961,0.201782,-0.001709,-2.120942,0.708401,-0.109722
-0.957520,0.146606,0.002319,-2.501242,0.539024,-0.038350
-0.946167,0.151001,0.061157,-2.631204,0.450607,-0.006392
-0.920532,0.168457,0.102051,-2.505503,0.456999,-0.046872
-0.902222,0.187378,0.101807,-2.353170,0.515588,-0.145941
-0.919067,0.168091,0.081177,-2.198707,0.568851,-0.222640
-0.956177,0.164551,0.057617,-2.038917,0.578439,-0.254598
-0.969849,0.191650,0.046021,-1.927064,0.566721,-0.263120
-0.960327,0.201660,0.042236,-1.840778,0.567786,-0.251403
-0.956177,0.213013,0.034668,-1.767274,0.574178,-0.224771
-0.947144,0.191284,0.020386,-1.693771,0.575243,-0.192813
-0.932251,0.196533,0.009521,-1.651161,0.555003,-0.161920
-0.938110,0.181519,0.006958,-1.614942,0.519849,-0.135289
-0.947266,0.172241,0.003784,-1.597897,0.474043,-0.103331
-0.966675,0.171143,0.000977,-1.575527,0.418649,-0.072438
-0.995117,0.181030,-0.007568,-1.557417,0.350472,-0.037284
-1.019775,0.154907,-0.021484,-1.524394,0.269512,0.035154
-1.052124,0.127808,-0.042847,-1.445564,0.173638,0.099070
-1.096313,0.086548,-0.064819,-1.325189,0.063916,0.177899
-1.172852,0.031860,-0.093018,-1.027981,-0.046872,0.219445
-1.298828,0.062744,-0.127808,-1.010936,-0.051133,0.226901
-1.245605,0.055054,-0.145508,-1.070591,-0.033023,0.278034
-1.145508,0.029175,-0.154053,-1.083374,0.024501,0.271643
-1.066162,0.040039,-0.145508,-1.054612,0.117179,0.217314
-1.011353,0.061646,-0.139526,-1.050351,0.216249,0.157659
-0.969849,0.070435,-0.132690,-1.095092,0.294013,0.149137
-0.929565,0.099121,-0.118774,-1.177118,0.352603,0.188552
-0.848877,0.084961,-0.115845,-1.277253,0.394148,0.196009
-0.881470,0.060059,-0.124023,-1.339038,0.387756,0.273773
-0.883911,-0.036865,-0.131226,-1.294297,0.311057,0.059655
-0.982910,0.023804,-0.139893,-1.288970,0.257794,-0.043676
-1.081787,0.031616,-0.160278,-1.357147,0.182160,-0.068177
-1.105835,0.043091,-0.191650,-1.473261,0.100135,-0.115049
-1.109131,0.056885,-0.226929,-1.591506,0.026632,-0.152333
-1.119385,0.036255,-0.255249,-1.642638,-0.018110,-0.271643
-1.118286,0.048340,-0.268433,-1.603224,-0.034088,-0.321710
-1.108276,0.045288,-0.264038,-1.475392,-0.033023,-0.330232
-1.067139,0.053589,-0.255859,-1.303884,-0.007457,-0.286556
-1.009277,0.069092,-0.237061,-1.027981,0.041545,-0.132093
-0.944458,0.064453,-0.212158,-0.846886,0.078830,-0.015979
-0.934570,0.060181,-0.195801,-0.693487,0.119310,0.055394
-0.926880,0.091431,-0.174683,-0.619984,0.159790,0.069242
-0.947876,0.103271,-0.151489,-0.591222,0.199205,0.085221
-0.947998,0.096802,-0.132690,-0.602940,0.213053,0.085221
-0.969849,0.113770,-0.096069,-0.613593,0.225836,0.071373
-1.088623,0.084595,-0.079224,-0.499609,0.203466,0.128897
-1.144897,0.014526,-0.127319,-0.175769,0.087352,0.064981
-1.147461,0.027710,-0.153198,0.275904,-0.133158,0.072438
-1.101318,0.063354,-0.140747,0.877778,-0.222640,0.046872
-1.059082,0.042236,-0.122681,1.297493,-0.165116,0.127832
-1.076538,0.098633,-0.138062,1.469000,-0.096939,0.171508
-1.085327,0.179077,-0.161499,1.323059,-0.092678,0.275904
-1.070923,0.214722,-0.165283,1.012002,-0.147007,0.390952
-1.053345,0.220703,-0.167358,0.610397,-0.202400,0.396279
-1.058228,0.202759,-0.146118,0.269512,-0.194943,0.411192
-1.061768,0.162598,-0.120605,0.035154,-0.145941,0.464455
-1.018433,0.126465,-0.112793,-0.172573,-0.093743,0.485761
-1.017334,0.086304,-0.115112,-0.344081,-0.096939,0.455933
-1.115967,0.061768,-0.115967,-0.395213,-0.142745,0.444215
-1.231079,0.063232,-0.131470,-0.481500,-0.246076,0.492152
-1.271606,0.021240,-0.138428,-0.546481,-0.367516,0.396279
-1.219849,0.002930,-0.119141,-0.535828,-0.423975,0.330232
-1.058960,0.018921,-0.091675,-0.465521,-0.366451,0.343015
-0.875488,0.045776,-0.050903,-0.352603,-0.192813,0.323841
-0.725708,0.063477,-0.020020,-0.253533,0.044741,0.345146
-0.659546,0.073730,-0.001465,-0.181095,0.273773,0.382430
-0.683472,0.118408,0.007202,-0.249272,0.443150,0.431432
-0.775024,0.143188,0.026123,-0.586961,0.484696,0.482565
-0.831299,0.076904,0.040161,-0.830907,0.442085,0.529437
-0.874878,0.037354,0.040649,-0.956608,0.387756,0.453803
-0.961792,0.012207,0.029053,-1.006675,0.283360,0.313188
-0.935425,0.002319,0.007568,-1.004545,0.199205,0.178964
-1.014038,0.023682,0.010254,-0.913997,0.142745,-0.084156
-1.066772,0.126465,-0.004883,-0.985370,0.152333,0.203466
-1.040161,0.044922,0.006104,-1.041829,0.173638,-0.100135
-0.970581,0.101685,0.010132,-1.083374,0.274838,-0.484696
-1.052002,0.149536,0.015747,-1.166465,0.416519,-0.515588
-0.989624,0.115356,0.019653,-1.208010,0.486826,-0.563525
-0.988037,0.120605,0.021729,-1.234642,0.531567,-0.547546
-0.977295,0.117798,0.028442,-1.257013,0.540089,-0.445281
-0.951538,0.127319,0.054199,-1.264469,0.537959,-0.341950
-0.949341,0.106567,0.066162,-1.232512,0.523045,-0.238619
-0.920776,0.084473,0.066162,-1.167530,0.480434,-0.232228
-0.890259,0.114990,0.065552,-1.115332,0.428236,-0.279099
-0.902588,0.152954,0.072510,-1.122789,0.363255,-0.301470
-0.905151,0.166870,0.097534,-1.145160,0.324906,-0.420780
-0.863159,0.134766,0.092163,-1.058873,0.299339,-0.536893
-0.860474,0.128296,0.067749,-0.943825,0.280165,-0.537959
-0.868408,0.147339,0.051880,-0.838363,0.242880,-0.452738
-0.897949,0.192261,0.050171,-0.803210,0.211988,-0.355798
-0.920654,0.208252,0.057983,-0.811732,0.206661,-0.273773
-0.985229,0.168823,0.068115,-0.796818,0.222640,-0.289752
-1.039673,0.139404,0.061401,-0.672182,0.218379,-0.303600
-1.083252,0.132812,0.044312,-0.504936,0.166181,-0.284426
-1.130859,0.113281,0.027466,-0.320645,0.058590,-0.225836
-1.172485,0.052002,0.032227,0.083091,-0.071373,-0.101200
-1.222778,-0.020020,-0.005005,0.401605,-0.159790,-0.008522
-1.291260,-0.031494,-0.035645,0.720119,-0.264186,0.027697
-1.369629,-0.054932,-0.032227,1.129181,-0.348342,0.043676
-1.431152,0.000854,-0.041382,1.537177,-0.470847,-0.003196
-1.371948,0.091919,-0.056519,1.629855,-0.572047,-0.072438
-1.215332,0.092041,-0.076050,1.528655,-0.630637,0.049002
-0.989990,0.134399,-0.064453,1.227185,-0.605070,0.245011
-0.820923,0.171875,0.006348,0.920389,-0.545416,0.349407
-0.715576,0.170532,0.031982,0.596548,-0.402670,0.476173
-0.732910,0.104614,-0.001099,0.172573,-0.105461,0.495348
-0.822998,0.103516,-0.052246,-0.103331,0.023436,0.498544
-0.963867,0.101563,-0.099609,-0.407996,0.057524,0.578439
-1.029907,0.035400,-0.104126,-0.659399,0.037284,0.722250
-1.048096,-0.052734,-0.130981,-0.763795,0.049002,0.665791
-1.208618,-0.172852,-0.194092,-0.818123,0.055394,0.577374
-1.187744,-0.217163,-0.259644,-0.671117,0.006392,0.406931
-1.180786,-0.144775,-0.303711,-0.521980,0.045806,0.559264
-1.176880,-0.194336,-0.285767,-0.420780,0.225836,0.661529
-1.073486,-0.285767,-0.233643,-0.254598,0.686031,0.733967
-0.987915,-0.222046,-0.172363,-0.173638,0.917193,0.565656
-0.949585,-0.084839,-0.158813,-0.140615,1.016263,0.506001
-0.972778,0.030518,-0.150269,-0.255664,0.970456,0.415453
-0.969971,0.084351,-0.130615,-0.477239,0.828776,0.361125
-0.943115,0.050903,-0.106934,-0.674313,0.724380,0.358994
-0.933472,0.039673,-0.070679,-0.796818,0.658334,0.378169
-0.921631,0.044800,-0.034668,-0.854342,0.607201,0.333428
-0.926758,0.070312,-0.009888,-0.899084,0.550742,0.243946
-0.913330,0.034424,0.009277,-0.831972,0.465521,0.022371
-0.917847,0.038330,0.030396,-0.577374,0.420780,-0.076699
-0.944702,0.040405,0.034546,-0.464455,0.356864,-0.238619
-0.969238,0.072998,0.030762,-0.410127,0.281230,-0.413323
-1.007568,0.112427,0.007690,-0.402670,0.178964,-0.461260
-1.029419,0.075928,-0.018311,-0.420780,0.066046,-0.485761
-1.074951,-0.151855,-0.067139,-0.372843,-0.080960,-0.445281
-1.119629,-0.212402,-0.058228,-0.354733,-0.183226,-0.654073
-1.110596,-0.046997,0.026001,-0.377104,-0.169377,-1.049286
-1.099609,0.085327,0.069702,-0.487891,-0.140615,-1.314537
-1.124634,0.098633,0.040405,-0.648746,-0.239685,-1.542504
-1.235229,0.000488,-0.081421,-0.567786,-0.396279,-1.545699
-1.406006,-0.046387,-0.110962,-0.454868,-0.543285,-1.674596
-1.599487,0.086670,-0.089966,-0.250337,-0.560329,-1.569135
-1.587402,0.108521,-0.032593,-0.030893,-0.465521,-1.372061
-1.397705,0.148560,0.001587,0.176834,-0.303600,-1.059939
-1.089233,0.020874,0.036987,0.447411,-0.123571,-1.492436
-1.025513,0.253540,0.057373,0.723315,0.006392,-1.014132
-0.887085,0.212524,0.101563,0.940629,0.084156,-0.727576
-0.780273,0.329102,0.106934,1.039698,0.057524,0.068177
-0.606201,0.237793,0.106201,0.692422,0.042611,-0.011718
-0.692017,0.346069,0.127563,0.302535,-0.022371,-0.222640
-0.730225,0.375610,0.132202,-0.170442,-0.107592,-0.135289
-0.779297,0.346313,0.120605,-0.541155,-0.207727,-0.043676
-0.884521,0.308594,0.092529,-0.756338,-0.373908,-0.031958
-0.993774,0.279053,0.065308,-0.875648,-0.591222,-0.042611
-1.045532,0.232178,0.051636,-0.862865,-0.772317,0.023436
-1.061279,0.179687,0.057861,-0.659399,-0.806406,0.149137
-1.049072,0.157227,0.086304,-0.430367,-0.684965,0.337689
-0.997192,0.090942,0.106812,0.001065,-0.356864,0.566721
-0.968872,0.167725,0.084961,0.125701,-0.181095,0.624245
-1.001831,0.224854,0.067627,0.040480,-0.084156,0.666856
-0.908203,0.291382,0.029541,-0.272708,-0.046872,0.706271
-0.979858,0.310303,0.010986,-0.692422,-0.063916,0.624245
-0.949463,0.352173,-0.020752,-1.210141,-0.074569,1.129181
-0.898926,0.163818,-0.026245,-1.585114,-0.082025,0.623180
-0.876343,0.196045,-0.034668,-1.766209,-0.038350,0.447411
-0.888794,0.165771,-0.043457,-1.882323,0.045806,0.531567
-0.917114,0.107666,-0.041992,-1.876997,0.180030,0.414388
-0.932007,0.078369,-0.056396,-1.781123,0.235424,0.441020
-0.900269,0.031982,-0.056519,-1.630921,0.264186,0.328102
-0.923096,-0.000610,-0.043701,-1.467935,0.279099,0.205596
-1.013428,0.054687,-0.025757,-1.389105,0.283360,0.147007
-1.106567,0.023193,-0.016357,-1.394432,0.271643,0.149137
-1.159790,-0.069336,-0.001343,-1.350756,0.267381,0.143811
-1.186035,-0.117432,-0.007080,-1.190966,0.264186,0.116114
-1.285522,-0.105835,-0.088989,-1.034372,0.193878,0.017044
-1.382080,-0.067017,-0.156006,-1.090831,0.041545,-0.068177
-1.397583,-0.053345,-0.185669,-1.366735,-0.144876,-0.121440
-1.434082,-0.022827,-0.184204,-1.472196,-0.185356,-0.124636
-1.342041,0.004395,-0.184326,-1.529720,-0.183226,-0.096939
-1.153076,0.007568,-0.175537,-1.508415,-0.100135,-0.022371
-0.959229,0.040527,-0.152222,-1.398693,0.037284,0.143811
-0.775757,0.035645,-0.128540,-1.287905,0.188552,0.291883
-0.672729,0.003662,-0.138916,-1.213337,0.286556,0.379234
-0.677612,-0.002441,-0.151001,-1.209076,0.299339,0.349407
-0.751953,0.005737,-0.155029,-1.365670,0.216249,0.254598
-0.814209,0.028442,-0.127319,-1.745969,0.162986,0.165116
-0.969482,0.076294,-0.041992,-2.287124,0.057524,0.075634
-1.045776,0.063477,-0.127686,-2.423478,-0.107592,-0.094809
-1.116821,0.010986,-0.234863,-2.435195,-0.354733,-0.267381
-1.155151,-0.055298,-0.316895,-2.245578,-0.625310,-0.560329
-1.258301,0.007324,-0.380615,-2.030395,-0.776578,-0.584830
-1.177368,-0.001343,-0.401001,-1.772601,-0.754208,-0.491087
-1.111206,0.028564,-0.411011,-1.486045,-0.604005,-0.224771
-1.049194,0.031128,-0.394897,-1.246360,-0.371777,0.025566
-0.995728,0.041260,-0.344238,-1.039698,-0.101200,0.282295
-0.956177,0.014282,-0.273926,-0.713727,0.294013,0.581635
-0.937256,-0.032959,-0.188354,-0.468717,0.491087,0.629572
-0.927612,0.024902,-0.164185,-0.355798,0.574178,0.515588
-0.904541,0.096924,-0.169800,-0.399474,0.530502,0.354733
-0.960327,0.195435,-0.189331,-0.622115,0.392017,0.501740
-0.993896,0.094971,-0.200073,-0.905475,0.162986,0.402670
-0.959351,0.023071,-0.211792,-1.071656,-0.070307,0.386691
-1.034790,0.007568,-0.201538,-1.174987,-0.232228,0.347276
-1.086304,-0.003540,-0.195435,-1.168596,-0.308927,0.272708
-1.159058,0.003784,-0.205688,-1.152617,-0.343015,0.150202
-1.285034,0.041992,-0.264648,-1.068461,-0.381365,0.063916
-1.439819,0.046631,-0.325806,-0.984305,-0.451672,0.026632
-1.451782,0.059204,-0.307861,-0.781904,-0.464455,0.037284
-1.274048,0.124512,-0.214722,-0.607201,-0.305731,0.186421
-1.086792,0.196045,-0.090942,-0.518784,0.087352,0.477239
-0.988647,0.177979,-0.024658,-0.442085,0.444215,0.798949
-0.950073,0.173340,0.026001,-0.235424,0.627441,0.855408
-0.899780,0.250610,0.086670,-0.175769,0.661529,0.870321
-0.850952,0.351685,0.144043,-0.415453,0.662595,0.893757
-0.863037,0.440186,0.125854,-1.296427,0.705205,0.998153
-0.891846,0.410522,0.143433,-1.936652,0.737163,1.007741
-0.973755,0.376465,0.107422,-2.446913,0.732902,1.103614
-1.023438,0.296509,0.047607,-2.809103,0.622115,1.288970
-1.028320,0.166870,-0.010986,-2.938000,0.480434,1.401889
-1.051514,0.074951,-0.023926,-2.865562,0.412258,1.348625
-1.024658,0.042725,-0.028687,-2.713230,0.409062,1.199488
-0.970459,0.042603,-0.044922,-2.504438,0.483630,1.022654
-0.982910,0.039917,-0.067139,-2.345713,0.586961,0.846886
-0.924805,0.007568,-0.096558,-2.148639,0.774448,0.583765
-0.887451,-0.019653,-0.169067,-1.878062,0.820254,0.400540
-0.946411,-0.014526,-0.197876,-1.665009,0.777643,0.085221
-1.017090,0.085205,-0.200195,-1.523329,0.671117,0.196009
-0.990234,0.100708,-0.179443,-1.509480,0.547546,0.494283
-0.931274,0.005371,-0.156982,-1.367800,0.479369,0.421845
-0.857544,-0.118164,-0.124512,-0.989631,0.466586,0.338754
-0.782471,-0.282959,-0.104980,-0.420780,0.507066,0.330232
-0.760498,-0.223267,-0.099487,0.090548,0.535828,0.140615
-0.875366,-0.051147,-0.070068,0.243946,0.536893,-0.111853
-0.923096,0.049194,-0.047607,-0.035154,0.463390,-0.392017
-0.831787,0.047974,-0.065308,-0.299339,0.426106,-0.469782
-0.838501,0.000854,-0.067871,-0.419714,0.423975,-0.549677
-0.924438,-0.069458,-0.056519,-0.367516,0.480434,-0.581635
-0.997437,-0.087402,-0.042603,-0.297209,0.590157,-0.641289
-1.042847,-0.117554,-0.040161,-0.201335,0.684965,-0.711597
-1.103882,-0.162720,-0.114868,-0.064981,0.722250,-0.813862
-1.237183,-0.156860,-0.231323,0.023436,0.667921,-0.988566
-1.427612,-0.165039,-0.299194,-0.010653,0.559264,-1.183509
-1.527588,-0.186157,-0.272949,-0.137419,0.578439,-1.364604
-1.616577,-0.124146,-0.289795,-0.623180,0.683900,-1.488175
-1.542847,-0.087402,-0.260986,-1.082309,0.871387,-1.551026
-1.269897,-0.093506,-0.208618,-1.390171,1.143029,-1.577657
-1.097168,-0.039917,-0.197632,-1.497762,1.345430,-1.622398
-1.058350,-0.023560,-0.221802,-1.551026,1.421063,-1.597897
-1.064453,-0.004517,-0.231812,-1.579788,1.400823,-1.564874
-1.028320,0.037231,-0.202759,-1.519068,1.373126,-1.331581
-0.981323,0.062256,-0.197021,-1.438108,1.331581,-1.098288
-0.966309,0.065674,-0.187988,-1.413607,1.250621,-0.952347
-0.939331,0.072144,-0.182617,-1.335842,1.035437,-0.786165
-0.850952,0.042236,-0.172119,-1.246360,0.883105,-0.702010
-0.814575,0.006104,-0.165527,-1.079113,0.751012,-0.678574
-0.820068,0.012939,-0.170654,-0.820254,0.613593,-0.664725
-0.835571,0.057861,-0.178345,-0.630637,0.460194,-0.656203
-0.869507,0.065552,-0.177979,-0.497479,0.288687,-0.595483
-0.917969,0.073242,-0.194946,-0.357929,0.103331,-0.539024
-0.953125,0.082764,-0.245850,-0.257794,-0.106526,-0.492152
-0.969360,0.035889,-0.284912,-0.147007,-0.308927,-0.422910
-0.987183,0.019287,-0.324707,0.071373,-0.560329,-0.345146
-1.034668,-0.008057,-0.368530,0.219445,-0.672182,-0.235424
-1.016602,-0.034424,-0.379272,0.368582,-0.697748,-0.109722
-1.000366,-0.012451,-0.386108,0.432498,-0.634898,0.025566
-0.957642,-0.000854,-0.380127,0.389887,-0.474043,0.166181
-0.938477,0.016724,-0.380859,0.229032,-0.313188,0.254598
-0.955444,0.015747,-0.390137,-0.029827,-0.211988,0.290817
-0.983276,-0.016479,-0.395264,-0.172573,-0.133158,0.328102
-0.966309,-0.107056,-0.363037,-0.181095,-0.083091,0.356864
-0.959229,-0.090210,-0.334229,-0.151268,-0.122505,0.306796
-0.967041,-0.061157,-0.309204,-0.162986,-0.294013,0.227967
-0.989014,-0.052856,-0.299683,-0.150202,-0.422910,0.157659
-0.984009,-0.044067,-0.286133,-0.152333,-0.537959,0.113983
-0.953003,-0.022583,-0.270386,-0.141680,-0.621049,0.124636
-0.947266,-0.023315,-0.261230,-0.075634,-0.680704,0.105461
-0.959961,-0.022217,-0.269287,0.049002,-0.716923,0.067112
-0.985107,-0.019165,-0.270752,0.181095,-0.740359,0.044741
-0.991455,-0.078857,-0.279785,0.330232,-0.764860,0.015979
-0.998779,-0.090576,-0.311279,0.499609,-0.768056,-0.034088
-1.055420,-0.080444,-0.364380,0.535828,-0.757403,-0.202400
-1.285400,-0.082275,-0.405640,0.474043,-0.826646,-0.329167
-1.340454,-0.100586,-0.395264,0.394148,-0.875648,-0.366451
-1.256714,-0.088989,-0.387939,0.283360,-0.842625,-0.364321
-1.134277,-0.035889,-0.334229,0.089482,-0.711597,-0.333428
-0.963989,0.017578,-0.253906,-0.257794,-0.448477,-0.253533
-0.867798,0.059448,-0.140015,-0.665791,-0.108657,-0.144876
-0.839844,0.065552,-0.029663,-0.994957,0.178964,-0.011718
-0.778198,0.020020,0.041382,-1.205880,0.373908,0.159790
-0.738037,-0.092773,0.048462,-1.177118,0.400540,0.347276
-0.803101,-0.179321,0.013550,-0.835168,0.142745,0.430367
-1.000488,-0.205444,-0.032104,-0.544350,-0.167247,0.458064
-1.119751,-0.150391,-0.058228,-0.301470,-0.516653,0.537959
-1.169189,-0.118896,-0.057739,-0.166181,-0.809601,0.683900
-1.113647,-0.103027,-0.043701,-0.087352,-0.935303,0.823450
-1.070801,-0.055054,-0.047241,-0.031958,-0.907606,0.898018
-1.051025,-0.026978,-0.060547,-0.029827,-0.751012,0.975783
-1.018433,-0.069580,-0.057617,-0.022371,-0.482565,1.075917
-0.979980,-0.018066,-0.035156,-0.102265,-0.184291,1.141964
-0.927490,-0.005981,-0.010498,-0.370712,0.169377,1.117463
-0.871216,-0.038086,0.005981,-0.463390,0.316384,0.944890
-0.959595,0.045410,0.006104,-0.629572,0.319579,0.791492
-0.940308,0.108032,0.000854,-0.846886,0.193878,0.613593
-0.920776,0.129883,-0.014893,-1.052482,0.038350,0.520915
-0.918701,0.042603,-0.011230,-1.166465,-0.090548,0.469782
-0.925903,-0.031128,0.021851,-1.148355,-0.157659,0.405866
-1.006348,-0.007568,0.046875,-0.980044,-0.203466,0.290817
-1.064697,-0.007324,0.032715,-0.777643,-0.279099,0.225836
-1.040894,-0.025635,0.012085,-0.583765,-0.353668,0.208792
-0.996582,-0.008179,0.003784,-0.411192,-0.386691,0.196009
-0.942139,0.044434,0.017944,-0.406931,-0.303600,0.162986
-0.913452,0.059204,0.048584,-0.437824,-0.160855,0.156594
-0.881592,0.053833,0.056152,-0.409062,-0.025566,0.199205
-0.853149,0.016479,0.042725,-0.327036,0.043676,0.233293
-0.833008,-0.074829,0.061279,-0.101200,0.047937,0.254598
-0.847412,0.002075,0.088135,0.049002,0.037284,0.104396
-0.920288,0.039917,0.129639,0.027697,0.031958,-0.070307
-1.036499,0.054687,0.150269,-0.018110,0.039415,-0.267381
-1.181396,0.085083,0.154053,-0.109722,0.005326,-0.458064
-1.369385,0.145752,0.094604,-0.177899,-0.083091,-0.543285
-1.480957,0.177368,0.088501,-0.324906,-0.156594,-0.569917
-1.512817,0.248901,0.108398,-0.523045,-0.199205,-0.512392
-1.394531,0.242798,0.107910,-0.709466,-0.214118,-0.323841
-1.179321,0.164429,0.106079,-0.723315,-0.197074,-0.083091
-0.983398,0.073120,0.110962,-0.530502,-0.103331,0.116114
-0.882568,0.053711,0.122559,-0.238619,0.005326,0.221575
-0.880249,0.058960,0.129639,0.008522,0.087352,0.268447
-0.888916,0.106689,0.128906,0.149137,0.117179,0.285491
-0.864014,0.174072,0.085083,0.102265,0.030893,0.301470
-0.814331,0.200317,0.038574,-0.029827,-0.072438,0.284426
-0.783569,0.205688,0.006958,-0.211988,-0.176834,0.227967
-0.764893,0.214600,-0.009644,-0.422910,-0.245011,0.096939
-0.780396,0.229980,-0.020142,-0.657268,-0.263120,-0.051133
-0.844482,0.233887,-0.032959,-0.899084,-0.238619,-0.217314
-0.948242,0.243652,-0.040405,-1.124920,-0.191748,-0.386691
-1.044800,0.239624,-0.046021,-1.208010,-0.135289,-0.513458
-1.138672,0.280396,-0.066528,-1.243164,-0.100135,-0.637028
-1.221680,0.354614,-0.091431,-1.333712,-0.141680,-0.664725
-1.258789,0.451782,-0.127930,-1.421063,-0.233293,-0.510262
-1.188721,0.420776,-0.169189,-1.440238,-0.337689,-0.189617
-1.090454,0.323730,-0.195068,-1.369931,-0.399474,0.237554
-1.004395,0.212036,-0.179077,-1.213337,-0.376038,0.677508
-0.947754,0.144775,-0.130371,-0.968326,-0.269512,1.072722
-0.934814,0.114502,-0.085937,-0.623180,-0.117179,1.383779
-0.928833,0.114868,-0.050903,-0.303600,0.041545,1.589375
-0.930176,0.121948,-0.030762,-0.105461,0.187487,1.673531
-0.932739,0.125488,-0.026489,0.000000,0.280165,1.683118
-0.920654,0.139160,-0.029541,-0.093743,0.319579,1.574461
-0.958618,0.127563,-0.035767,-0.259925,0.298274,1.425324
-1.009766,0.100220,-0.040649,-0.423975,0.238619,1.279383
-1.023682,0.059814,-0.038330,-0.544350,0.151268,1.113202
-1.031128,0.023071,-0.033813,-0.573112,0.077764,0.928911
-1.055908,0.004395,-0.020508,-0.552872,0.026632,0.710532
-1.065918,0.012939,0.016602,-0.499609,0.015979,0.511327
-1.067993,0.001343,0.057129,-0.383495,0.056459,0.346211
-1.117065,-0.035278,0.067139,-0.164051,0.094809,0.168312
-1.214111,-0.054321,0.064941,0.239685,0.066046,-0.187487
-1.269775,0.006104,0.120117,0.466586,0.071373,-0.398409
-1.160522,0.092651,0.185059,0.531567,0.168312,-0.536893
-1.036621,0.175903,0.244263,0.437824,0.311057,-0.625310
-0.921143,0.250488,0.278076,0.248207,0.425041,-0.647681
-0.797607,0.281494,0.264282,0.027697,0.459129,-0.578439
-0.705322,0.275635,0.210815,-0.221575,0.418649,-0.501740
-0.678101,0.241699,0.153809,-0.434628,0.352603,-0.469782
-0.716675,0.224731,0.115479,-0.630637,0.273773,-0.498544
-0.789185,0.225464,0.099854,-0.821319,0.165116,-0.544350
-0.872559,0.219604,0.079468,-1.037568,-0.014914,-0.536893
-0.958984,0.155029,0.065186,-1.025850,-0.079895,-0.563525
-0.982666,0.132690,0.056030,-0.887366,-0.056459,-0.539024
-0.993408,0.118530,0.047729,-0.647681,0.036219,-0.558199
-1.020996,0.129517,0.043213,-0.374973,0.162986,-0.614658
-1.054199,0.175781,0.044800,-0.144876,0.296144,-0.659399
-1.051270,0.217896,0.059082,-0.017044,0.413323,-0.670052
-1.014526,0.262207,0.094849,0.014914,0.529437,-0.691357
-0.977905,0.296875,0.135010,-0.009587,0.628506,-0.644485
-0.940063,0.312256,0.158447,-0.137419,0.702010,-0.506001
-0.898682,0.289307,0.177124,-0.258859,0.692422,-0.443150
-0.882690,0.299438,0.195068,-0.420780,0.655138,-0.434628
-0.875000,0.293213,0.223022,-0.588026,0.612527,-0.431432
-0.865356,0.275635,0.221436,-0.707336,0.548611,-0.432498
-0.870972,0.259277,0.200073,-0.823450,0.481500,-0.468717
-0.938965,0.243774,0.197998,-0.928911,0.411192,-0.537959
-1.015869,0.237305,0.203247,-1.008806,0.309992,-0.576308
-1.047485,0.235962,0.176758,-1.061004,0.245011,-0.550742
-1.089233,0.213257,0.115601,-1.042894,0.173638,-0.540089
-1.144043,0.181641,0.002075,-0.929976,0.026632,-0.480434
-1.242676,0.174927,-0.044434,-0.926780,-0.047937,-0.442085
-1.366211,0.214966,-0.034058,-1.045025,-0.077764,-0.528371
-1.401489,0.235107,-0.012695,-1.216532,-0.050067,-0.497479
-1.236328,0.172729,-0.064575,-1.303884,-0.022371,-0.280165
-1.055298,0.056274,-0.150146,-1.226120,-0.043676,-0.161920
-0.990723,-0.000610,-0.209961,-1.020524,-0.099070,-0.082025
-1.023804,-0.003418,-0.217773,-0.828776,-0.131028,0.002131
-0.973999,-0.020508,-0.171631,-0.726511,-0.051133,0.193878
-0.857788,-0.067383,-0.175781,-0.542220,0.026632,0.450607
-0.723267,-0.099976,-0.244263,-0.448477,0.000000,0.496413
-0.691895,-0.116699,-0.263428,-0.365386,-0.021305,0.413323
-0.769897,-0.052002,-0.291870,-0.364321,-0.049002,0.185356
-0.899658,0.031250,-0.320801,-0.561395,-0.069242,0.023436
-1.020020,0.022949,-0.346191,-0.811732,-0.075634,-0.051133
-1.109009,-0.078735,-0.367554,-0.983239,-0.067112,-0.054329
-1.170898,-0.074585,-0.390869,-1.069526,-0.055394,-0.100135
-1.197388,-0.042725,-0.397583,-1.152617,-0.052198,-0.078830
-1.149414,-0.011719,-0.394897,-1.253817,-0.046872,0.015979
-1.085327,-0.029541,-0.385254,-1.388040,-0.014914,0.099070
-1.003052,-0.012939,-0.358887,-1.388040,0.057524,0.177899
-0.945557,-0.014404,-0.314697,-1.370996,0.159790,0.251403
-0.932983,0.029053,-0.270264,-1.361408,0.266316,0.236489
-0.968262,0.108887,-0.240845,-1.438108,0.338754,0.220510
-1.002563,0.195923,-0.239380,-1.695902,0.351537,0.218379
-0.985840,0.293457,-0.246460,-2.234926,0.309992,0.198139
-1.053589,0.329712,-0.235352,-2.997655,0.245011,0.348342
-0.915649,0.187134,-0.185791,-3.468503,0.223706,-0.210922
-0.981323,0.204956,-0.174561,-3.397130,0.236489,0.164051
-1.000122,-0.004761,-0.228882,-2.953979,0.147007,0.180030
-1.083618,-0.017822,-0.249756,-2.528939,-0.008522,0.075634
-1.175781,-0.001953,-0.222168,-2.193380,-0.152333,0.120375
-1.108643,0.015015,-0.199707,-1.903628,-0.223706,0.132093
-1.105591,0.037598,-0.215942,-1.707620,-0.256729,0.155529
-1.214233,-0.015259,-0.259521,-1.477522,-0.321710,0.174703
-1.314453,-0.062500,-0.277710,-1.174987,-0.405866,0.167247
-1.312866,-0.061401,-0.251831,-0.833037,-0.442085,0.174703
-1.204224,-0.021606,-0.208130,-0.523045,-0.384561,0.231162
-1.055908,0.044434,-0.119873,-0.248207,-0.162986,0.204531
-0.973267,0.110962,-0.064941,-0.203466,-0.021305,0.239685
-0.921875,0.186890,-0.011597,-0.316384,0.076699,0.291883
-0.866333,0.228638,0.027466,-0.518784,0.123571,0.386691
-0.797363,0.224243,0.037231,-0.754208,0.134223,0.453803
-0.741333,0.203125,0.013794,-0.990696,0.102265,0.511327
-0.730103,0.172729,-0.015381,-1.228250,0.088417,0.491087
-0.910278,0.112183,-0.022217,-1.450891,-0.001065,0.181095
-1.084229,0.202637,-0.030518,-1.628790,-0.170442,0.449542
-1.090698,0.091309,-0.048340,-1.918542,-0.374973,0.788296
-1.185425,-0.028809,-0.062744,-1.899367,-0.476173,0.802144
-1.201416,-0.075684,-0.054443,-1.735317,-0.496413,0.838363
-1.153076,-0.123535,-0.037598,-1.450891,-0.411192,0.818123
-0.982788,-0.235352,-0.011108,-0.999218,-0.168312,0.488957
-1.146851,-0.002319,-0.024414,-0.606136,0.053263,0.929976
-0.887939,-0.149292,-0.012695,-0.469782,0.239685,0.704140
-0.755737,-0.051514,-0.010986,-0.344081,0.421845,0.406931
-0.884033,-0.018677,-0.014771,-0.420780,0.526241,0.352603
-0.836548,-0.010254,-0.009521,-0.552872,0.532632,0.189617
-0.803955,-0.090942,0.001221,-0.713727,0.445281,-0.058590
-0.769897,-0.018677,0.014526,-0.713727,0.395213,-0.254598
-0.843628,-0.038574,0.028076,-0.727576,0.356864,-0.239685
-0.879028,-0.117676,0.040527,-0.599744,0.351537,-0.242880
-0.862915,-0.176758,0.044434,-0.341950,0.378169,-0.376038
-0.926025,-0.130371,0.042114,-0.121440,0.425041,-0.560329
-1.003540,-0.028931,0.045410,-0.070307,0.454868,-0.692422
-1.029785,0.060303,0.056519,-0.201335,0.476173,-0.768056
-1.007202,0.074829,0.077515,-0.383495,0.502805,-0.787231
-0.987305,0.090454,0.093018,-0.518784,0.532632,-0.788296
-0.965942,0.069702,0.121094,-0.467651,0.545416,-0.819189
-0.973511,0.088867,0.138550,-0.385626,0.547546,-0.876713
-1.003052,0.097290,0.155762,-0.304666,0.532632,-0.871387
-1.044800,0.108887,0.150269,-0.176834,0.470847,-0.804275
-1.073608,0.135498,0.124634,-0.041545,0.353668,-0.724380
-1.103638,0.120483,0.101685,0.074569,0.231162,-0.629572
-1.188232,0.124756,0.078979,0.187487,0.110788,-0.573112
-1.313599,0.159302,0.060791,0.253533,-0.010653,-0.530502
-1.410889,0.182373,0.044312,0.298274,-0.119310,-0.413323
-1.444580,0.187866,0.004395,0.378169,-0.234358,-0.272708
-1.284424,0.169800,-0.037964,0.414388,-0.243946,-0.139550
-1.147827,0.171387,-0.061523,0.419714,-0.185356,-0.022371
-1.026855,0.181274,-0.048218,0.316384,-0.054329,0.109722
-0.900024,0.194702,-0.016479,0.092678,0.119310,0.215184
-0.788330,0.204468,0.004395,-0.205596,0.305731,0.312123
-0.734863,0.179565,0.008423,-0.479369,0.456999,0.360060
-0.756104,0.149414,-0.021484,-0.746751,0.493218,0.392017
-0.804932,0.062134,-0.062622,-0.964065,0.417584,0.414388
-0.890381,-0.018799,-0.108032,-1.113202,0.198139,0.268447
-1.044434,-0.075928,-0.131958,-1.172857,0.050067,0.209857
-1.081787,-0.108276,-0.154663,-1.125985,-0.078830,0.151268
-1.104370,-0.115234,-0.186401,-1.005610,-0.166181,0.106526
-1.129150,-0.083618,-0.209839,-0.904410,-0.213053,0.050067
-1.082764,-0.074463,-0.231445,-0.839429,-0.205596,0.038350
-1.182373,0.001831,-0.244995,-0.790427,-0.131028,0.061785
-1.110229,-0.078125,-0.221924,-0.677508,-0.083091,-0.039415
-0.925171,0.007568,-0.220947,-0.566721,-0.020240,0.090548
-0.918579,-0.007080,-0.211548,-0.537959,0.066046,0.211988
-0.921997,-0.001831,-0.191162,-0.394148,0.215184,0.313188
-0.947510,-0.030396,-0.188232,-0.394148,0.241815,0.251403
-0.946411,-0.052979,-0.179687,-0.463390,0.201335,0.168312
-0.864014,-0.016113,-0.149658,-0.535828,0.190682,0.158724
-0.947754,0.005493,-0.132812,-0.608266,0.203466,0.356864
-0.970703,0.012573,-0.116455,-0.680704,0.220510,0.397344
-0.963379,0.025024,-0.125854,-0.731837,0.208792,0.272708
-0.991699,0.064575,-0.142822,-0.795753,0.169377,0.266316
-0.989746,0.003296,-0.128052,-0.823450,0.121440,0.327036
-1.025024,-0.068237,-0.097046,-0.504936,0.062851,0.321710
-1.097412,-0.053955,-0.082031,-0.247141,0.005326,0.275904
-1.127441,-0.037476,-0.087769,-0.057524,-0.085221,0.229032
-1.108276,-0.023926,-0.097412,0.069242,-0.170442,0.217314
-1.110718,0.001099,-0.106567,0.142745,-0.222640,0.221575
-1.147949,0.026855,-0.107056,0.168312,-0.238619,0.217314
-1.169678,0.039673,-0.105835,0.162986,-0.213053,0.227967
-1.225952,0.022705,-0.105469,0.143811,-0.174703,0.241815
-1.297363,0.043457,-0.099121,0.071373,-0.158724,0.290817
-1.346558,0.041382,-0.070923,-0.042611,-0.143811,0.276969
-1.275391,0.071655,-0.007202,-0.280165,-0.104396,0.213053
-1.137207,0.102173,0.036987,-0.416519,-0.042611,0.203466
-1.009399,0.090210,0.084106,-0.501740,0.024501,0.196009
-0.895874,0.082642,0.126709,-0.476173,0.063916,0.166181
-0.787109,0.054687,0.133789,-0.382430,0.071373,0.142745
-0.741455,0.007935,0.118286,-0.157659,0.035154,0.208792
-0.742676,-0.019897,0.094727,0.049002,-0.067112,0.198139
-0.771851,0.010742,0.062988,0.180030,-0.208792,0.169377
-0.859253,0.024902,0.036133,0.232228,-0.384561,0.220510
-0.927368,0.003906,0.010986,0.282295,-0.634898,0.220510
-0.954468,-0.037598,-0.027588,0.389887,-0.696683,0.099070
-0.975952,0.003540,-0.041138,0.498544,-0.662595,0.054329
-0.953125,0.029297,-0.046143,0.614658,-0.474043,-0.123571
-0.979858,0.074097,-0.039063,0.599744,-0.260990,-0.199205
-0.932495,0.251099,-0.056396,0.379234,-0.024501,0.388822
-0.957031,0.088135,-0.032104,0.129962,0.087352,0.051133
-0.815552,0.138916,0.000244,-0.013848,0.166181,-0.312123
-0.815063,0.174316,0.034912,-0.145941,0.250337,-0.351537
-0.887085,0.161743,0.058960,-0.223706,0.280165,-0.299339
-0.849121,0.133545,0.071289,-0.265251,0.272708,-0.336624
-0.873291,0.109375,0.081421,-0.191748,0.267381,-0.412258
-0.885254,0.150024,0.099121,-0.137419,0.270577,-0.442085
-0.911133,0.199341,0.140747,-0.113983,0.308927,-0.397344
-0.929687,0.218018,0.242920,-0.099070,0.416519,-0.316384
-0.939697,0.160767,0.238159,0.051133,0.449542,-0.279099
-0.927612,0.126587,0.182617,0.245011,0.370712,-0.289752
-0.928223,0.172363,0.167114,0.378169,0.258859,-0.325971
-0.968140,0.241211,0.184204,0.396279,0.121440,-0.276969
-0.952148,0.279053,0.193237,0.199205,0.024501,-0.415453
-0.998413,0.263428,0.204224,0.139550,-0.009587,-0.558199
-1.032227,0.250244,0.161255,0.110788,-0.082025,-0.543285
-1.084229,0.242310,0.121704,0.084156,-0.172573,-0.546481
-1.146851,0.223267,0.083252,0.096939,-0.260990,-0.527306
-1.220947,0.220703,0.019897,0.106526,-0.345146,-0.512392
-1.340820,0.235962,-0.024170,0.038350,-0.414388,-0.476173
-1.430420,0.265625,-0.050171,-0.094809,-0.480434,-0.417584
-1.438477,0.304077,-0.057373,-0.250337,-0.470847,-0.345146
-1.337036,0.300537,-0.063232,-0.374973,-0.361125,-0.100135
-1.059692,0.240234,-0.093994,-0.497479,-0.203466,0.110788
-0.885620,0.181519,-0.079834,-0.559264,0.003196,0.284426
-0.781250,0.168701,-0.039673,-0.611462,0.219445,0.367516
-0.740112,0.184692,-0.013672,-0.710532,0.401605,0.412258
-0.746826,0.179565,-0.020630,-0.837298,0.491087,0.495348
-0.779907,0.102417,-0.053833,-0.974717,0.459129,0.610397
-0.845459,0.040649,-0.090576,-1.080179,0.338754,0.551807
-0.907349,0.050903,-0.126465,-1.206945,0.167247,0.467651
-0.951904,0.054077,-0.151611,-1.390171,0.028762,0.379234
-1.027832,0.045776,-0.174194,-1.688445,-0.106526,0.264186
-1.149536,-0.004028,-0.227051,-1.851430,-0.152333,0.203466
-1.194580,-0.055664,-0.247681,-1.884454,-0.151268,0.216249
-1.168091,-0.082397,-0.252563,-1.750230,-0.098004,0.194943
-1.118774,-0.087036,-0.253906,-1.491371,-0.008522,0.203466
-1.067749,-0.082031,-0.244629,-1.178183,0.098004,0.250337
-0.960449,-0.080933,-0.226685,-0.885235,0.233293,0.282295
-1.047485,0.072388,-0.214478,-0.692422,0.344081,0.559264
-0.901978,-0.174561,-0.182251,-0.633833,0.415453,-0.072438
-0.894897,0.054443,-0.181396,-0.463390,0.468717,-0.063916
-1.065674,0.088623,-0.178589,-0.703075,0.371777,0.205596
-0.947632,0.050049,-0.165894,-0.895888,0.253533,0.316384
-0.933716,-0.000977,-0.158691,-0.999218,0.193878,0.263120
-0.969849,0.021362,-0.143433,-1.054612,0.149137,0.221575
-0.943604,0.018188,-0.123901,-1.108941,0.129962,0.116114
-0.943848,0.014160,-0.109497,-1.111071,0.137419,0.036219
-0.959839,-0.006714,-0.089966,-1.048221,0.153398,0.007457
-0.993652,-0.000488,-0.072510,-0.928911,0.156594,0.005326
-1.040161,-0.006592,-0.062378,-0.769121,0.128897,0.008522
-1.093872,-0.005737,-0.057007,-0.507066,0.027697,-0.005326
-1.150879,0.034912,-0.039795,-0.414388,-0.082025,0.039415
-1.161255,0.057495,-0.026123,-0.357929,-0.178964,0.044741
-1.223877,0.062622,-0.038818,-0.316384,-0.269512,0.037284
-1.382935,0.062622,-0.062256,-0.272708,-0.369647,-0.029827
-1.508667,0.096924,-0.039185,-0.248207,-0.425041,-0.092678
-1.411011,0.119629,0.000366,-0.210922,-0.382430,-0.053263
-1.165527,0.137329,0.030029,-0.169377,-0.216249,0.017044
-0.948730,0.151123,0.104614,-0.143811,0.047937,0.073503
-0.845581,0.165161,0.170776,-0.087352,0.395213,0.184291
-0.766235,0.173096,0.201294,-0.079895,0.472978,0.275904
-0.702148,0.179932,0.189941,-0.139550,0.432498,0.331297
-0.706055,0.201660,0.146729,-0.280165,0.278034,0.425041
-0.693115,0.168091,0.109497,-0.455933,0.108657,0.353668
-0.713623,0.163574,0.084595,-0.628506,-0.071373,0.264186
-0.791992,0.172852,0.064575,-0.785100,-0.298274,0.120375
-0.872559,0.178345,0.046021,-0.938498,-0.465521,0.008522
-0.956665,0.163696,0.046509,-1.013067,-0.490022,0.025566
-1.042725,0.130493,0.050415,-0.986435,-0.370712,-0.057524
-1.147705,0.123047,0.029419,-0.831972,-0.135289,-0.084156
-1.124268,0.243286,0.010254,-0.874582,0.063916,0.449542
-1.067749,0.111938,0.012207,-0.801079,0.193878,0.055394
-0.948853,0.202637,0.006836,-0.805340,0.288687,0.073503
-0.933228,0.205444,0.027100,-0.883105,0.328102,0.166181
-0.888550,0.185669,0.063843,-0.982174,0.353668,0.266316
-0.834717,0.112549,0.100708,-1.021589,0.385626,0.184291
-0.832275,0.085205,0.109253,-0.984305,0.385626,0.102265
-0.837646,0.089355,0.095947,-0.939564,0.345146,0.084156
-0.850342,0.105225,0.078979,-0.916128,0.246076,0.038350
-0.875732,0.128296,0.062256,-0.961934,0.193878,-0.018110
-0.888672,0.134277,0.047485,-1.003479,0.181095,-0.083091
-0.890015,0.141113,0.038086,-1.038633,0.227967,-0.127832
-0.916626,0.147705,0.039673,-1.071656,0.322775,-0.155529
-0.961182,0.167114,0.044067,-1.127050,0.403735,-0.119310
-0.946533,0.162720,0.052979,-1.185640,0.467651,-0.091613
-0.958374,0.146606,0.055542,-1.213337,0.497479,-0.112918
-0.984619,0.134155,0.054565,-1.217598,0.493218,-0.131028
-1.044678,0.137085,0.054687,-1.186705,0.459129,-0.138484
-1.093140,0.123413,0.051758,-1.088701,0.400540,-0.106526
-1.215942,0.104004,0.010132,-0.999218,0.349407,-0.129962
-1.328247,0.137939,-0.006592,-0.971522,0.289752,-0.176834
-1.314209,0.149292,-0.018921,-0.966195,0.252468,-0.178964
-1.196533,0.140503,-0.052856,-0.959804,0.257794,-0.125701
-1.113647,0.151245,-0.074219,-0.978978,0.292948,-0.059655
-1.042603,0.160400,-0.071655,-1.045025,0.337689,0.026632
-0.993530,0.150513,-0.069458,-1.133442,0.393083,0.074569
-0.974609,0.144531,-0.068970,-1.264469,0.433563,0.057524
-0.932007,0.147949,-0.073242,-1.426390,0.444215,0.035154
-0.835693,0.143066,-0.078247,-1.711881,0.437824,0.044741
-0.765381,0.134888,-0.081787,-1.888715,0.450607,0.008522
-0.782104,0.128052,-0.077026,-2.053831,0.463390,-0.041545
-0.834351,0.108643,-0.083008,-2.149704,0.441020,-0.098004
-0.902344,0.104858,-0.111694,-2.215751,0.355798,-0.137419
-0.978149,0.118164,-0.130493,-2.298842,0.230097,-0.184291
-1.046997,0.117065,-0.157227,-2.363823,0.094809,-0.291883
-1.138916,0.113647,-0.217773,-2.387259,-0.062851,-0.378169
-1.198486,0.096069,-0.270508,-2.352105,-0.219445,-0.458064
-1.189819,0.085205,-0.296509,-2.159292,-0.349407,-0.553938
-1.097168,0.105713,-0.310791,-1.988850,-0.329167,-0.556068
-1.050049,0.110474,-0.318970,-1.786449,-0.252468,-0.477239
-1.008545,0.128052,-0.335815,-1.553156,-0.150202,-0.332363
-1.018311,0.093384,-0.343994,-1.321994,-0.061785,-0.239685
-1.003418,0.118164,-0.329590,-1.029046,0.028762,-0.109722
-0.980957,0.132446,-0.304565,-0.809601,0.122505,0.041545
-0.991577,0.141235,-0.286133,-0.682835,0.210922,0.206661
-0.974976,0.152588,-0.268433,-0.621049,0.273773,0.218379
-0.987793,0.181152,-0.252441,-0.691357,0.332363,0.305731
-0.962280,0.163086,-0.226196,-0.944890,0.346211,0.291883
-0.997192,0.140747,-0.210449,-1.086570,0.337689,0.259925
-0.966797,0.091919,-0.193237,-1.186705,0.295078,0.264186
-0.976807,0.035522,-0.172363,-1.192031,0.235424,0.117179
-1.032715,0.036743,-0.145874,-1.132377,0.168312,0.224771
-1.055420,-0.006470,-0.125854,-1.013067,0.106526,0.217314
-1.074097,-0.016113,-0.110718,-0.867126,0.053263,0.176834
-1.105347,-0.023437,-0.088379,-0.730772,0.010653,0.136354
-1.130615,-0.030273,-0.097778,-0.599744,-0.052198,0.082025
-1.227295,-0.051758,-0.122192,-0.423975,-0.183226,0.000000
-1.287476,0.010742,-0.088989,-0.382430,-0.191748,-0.045806
-1.246704,0.069946,-0.044922,-0.478304,-0.107592,-0.068177
-1.162964,0.119751,-0.007446,-0.676443,0.038350,-0.068177
-1.096558,0.181152,0.036499,-0.965130,0.192813,0.001065
-1.022339,0.204834,0.074951,-1.260208,0.304666,0.138484
-0.935303,0.166626,0.088013,-1.487110,0.347276,0.284426
-0.864502,0.093750,0.077271,-1.605354,0.306796,0.379234
-0.826416,0.059570,0.055786,-1.665009,0.201335,0.444215
-0.817017,-0.001221,0.044189,-1.669270,-0.013848,0.456999
-0.905273,-0.116699,0.094604,-1.463674,-0.283360,0.368582
-1.000977,-0.213257,0.194214,-0.940629,-0.726511,0.236489
-1.095581,-0.055054,0.148315,-0.476173,-0.934237,0.235424
-1.072754,-0.000122,0.060059,-0.464455,-0.857538,0.404801
-1.001099,-0.033447,-0.010864,-0.481500,-0.615723,0.403735
-1.052246,0.021118,-0.057983,-0.547546,-0.316384,0.381365
-1.028320,0.029541,-0.053101,-0.589091,-0.049002,0.177899
-0.997070,0.092651,-0.063354,-0.707336,0.182160,-0.013848
-0.963379,0.127808,-0.056274,-1.016263,0.383495,0.082025
-0.899170,0.133057,-0.004272,-1.319863,0.540089,0.253533
-0.883423,0.000000,-0.004883,-1.362474,0.564590,0.139550
-0.815308,0.019897,0.011597,-1.291101,0.531567,-0.013848
-0.813965,0.019775,0.017700,-1.204815,0.468717,-0.105461
-0.838379,-0.011108,0.026245,-1.089766,0.390952,-0.141680
-0.871216,0.001953,0.038330,-0.947020,0.303600,-0.254598
-0.912842,0.062134,0.039795,-0.863930,0.242880,-0.262055
-0.948364,0.062256,0.035767,-0.825580,0.222640,-0.196009
-0.960937,0.048462,0.029541,-0.785100,0.252468,-0.131028
-0.963867,0.082397,0.032837,-0.780839,0.350472,-0.038350
-0.967285,0.072510,0.054810,-0.831972,0.417584,-0.015979
-0.962891,0.064087,0.075073,-0.827711,0.445281,-0.038350
-0.965454,0.051392,0.090820,-0.789361,0.427171,-0.034088
-0.964966,0.043579,0.097046,-0.698814,0.378169,-0.044741
-0.958740,0.041748,0.099365,-0.614658,0.323841,-0.058590
-0.950073,0.012939,0.097778,-0.495348,0.278034,-0.083091
-0.955322,0.024658,0.087769,-0.358994,0.250337,-0.147007
-0.978394,0.053345,0.068604,-0.267381,0.236489,-0.202400
-0.993164,0.089844,0.038452,-0.247141,0.236489,-0.229032
-1.006348,0.107910,-0.023804,-0.321710,0.269512,-0.206661
-1.019775,0.139893,-0.027588,-0.402670,0.316384,-0.153398
-1.003540,0.119995,-0.035400,-0.499609,0.389887,-0.092678
-1.007568,0.111816,-0.054077,-0.593353,0.469782,-0.025566
-1.056274,0.083496,-0.070923,-0.644485,0.529437,0.018110
-1.164307,0.052002,-0.091064,-0.648746,0.518784,-0.009587
-1.249512,0.036987,-0.086426,-0.601875,0.468717,-0.050067
-1.261719,0.029541,-0.082642,-0.547546,0.401605,-0.047937
-1.217773,0.018311,-0.095215,-0.514523,0.307862,-0.004261
-1.130005,-0.008301,-0.118042,-0.476173,0.162986,0.083091
-0.922241,-0.032715,-0.168579,-0.515588,0.153398,0.100135
-0.858521,-0.048828,-0.198364,-0.635963,0.223706,0.110788
-0.838745,-0.146973,-0.217529,-0.666856,0.335558,0.092678
-0.874878,-0.203735,-0.238770,-0.622115,0.441020,0.071373
-0.931396,-0.197388,-0.247070,-0.628506,0.525176,0.028762
-1.018066,-0.186401,-0.237305,-0.680704,0.533698,-0.108657
-1.156982,-0.126831,-0.208862,-0.651942,0.446346,-0.161920
-1.063721,-0.207642,-0.203247,-0.542220,0.294013,-0.259925
-1.168335,-0.115356,-0.204712,-0.206661,0.040480,-0.272708
-1.052124,-0.098389,-0.269653,0.133158,-0.178964,-0.175769
-1.075195,-0.001831,-0.284546,0.249272,-0.220510,-0.388822
-0.994141,0.048706,-0.281860,0.193878,-0.104396,-0.167247
-0.945068,0.014038,-0.253174,0.214118,0.090548,-0.373908
-0.995117,0.050781,-0.225586,0.264186,0.283360,-0.246076
-0.990479,0.067505,-0.192383,0.241815,0.427171,-0.233293
-0.995117,0.103394,-0.188843,0.057524,0.439954,-0.230097
-0.997192,0.072510,-0.202393,-0.172573,0.354733,-0.230097
-0.979736,0.042236,-0.213135,-0.382430,0.238619,-0.240750
-0.948853,0.015991,-0.206543,-0.622115,0.155529,-0.247141
-0.924072,-0.073608,-0.189697,-0.590157,0.171508,-0.255664
-0.923950,-0.074219,-0.193970,-0.484696,0.210922,-0.264186
-0.927246,-0.045654,-0.198486,-0.411192,0.243946,-0.231162
-0.942627,-0.020630,-0.196167,-0.370712,0.254598,-0.216249
-0.993164,-0.015015,-0.185425,-0.311057,0.204531,-0.162986
-0.971436,-0.002441,-0.191895,-0.213053,0.127832,-0.063916
-0.972168,-0.028442,-0.219360,-0.110788,0.015979,-0.094809
-0.990845,-0.008179,-0.242187,-0.023436,-0.080960,-0.087352
-0.981689,-0.021851,-0.241089,0.063916,-0.141680,-0.098004
-0.999512,-0.016357,-0.191895,0.271643,-0.170442,-0.072438
-1.014893,-0.002197,-0.198853,0.463390,-0.177899,-0.042611
-0.990723,0.010010,-0.188354,0.654073,-0.188552,-0.010653
-0.972290,0.035522,-0.180420,0.809601,-0.200270,0.000000
-0.975098,0.052734,-0.168823,0.920389,-0.208792,0.001065
-0.979370,0.065308,-0.165649,0.967261,-0.230097,-0.005326
-0.998657,0.061401,-0.169434,0.949151,-0.267381,-0.025566
-1.028931,0.037598,-0.175903,0.904410,-0.322775,-0.070307
-1.038818,-0.025024,-0.174927,0.836233,-0.360060,-0.151268
-1.081909,-0.050171,-0.183838,0.797883,-0.360060,-0.377104
-1.122681,0.012695,-0.194214,0.710532,-0.371777,-0.605070
-1.129395,0.052490,-0.219604,0.499609,-0.373908,-0.640224
-1.077271,0.006104,-0.238892,0.330232,-0.385626,-0.757403
-1.099854,-0.005005,-0.252075,0.211988,-0.397344,-0.609331
-1.195679,-0.079590,-0.247314,0.196009,-0.378169,-0.537959
-1.287964,-0.086914,-0.221313,0.248207,-0.348342,-0.406931
-1.366211,-0.125977,-0.189453,0.339819,-0.318514,-0.268447
-1.314453,-0.145508,-0.160645,0.448477,-0.267381,-0.191748
-1.141602,-0.119385,-0.091919,0.486826,-0.129962,-0.093743
-0.969849,-0.115479,0.020264,0.438889,0.151268,0.061785
-0.738159,-0.131714,0.063843,0.373908,0.304666,0.160855
-0.684692,-0.175781,0.077026,0.280165,0.372843,0.245011
-0.723633,-0.212891,0.081055,0.205596,0.340885,0.251403
-0.816284,-0.229492,0.086426,0.108657,0.227967,0.202400
-0.913818,-0.211670,0.086426,0.044741,0.063916,0.126767
-1.013916,-0.190186,0.061035,0.003196,-0.143811,0.069242
-1.072021,-0.135986,0.030518,-0.083091,-0.335558,0.042611
-1.052002,-0.154663,0.023193,-0.144876,-0.443150,0.104396
-0.961426,-0.177612,0.030640,-0.076699,-0.308927,0.225836
-0.917358,-0.101318,0.049561,-0.074569,-0.143811,0.273773
-0.929932,-0.033813,0.052246,-0.113983,-0.020240,0.308927
-0.957642,0.066528,0.069092,-0.257794,0.025566,0.349407
-0.928711,0.010864,0.104614,-0.394148,0.043676,0.453803
-0.887085,-0.006226,0.129761,-0.374973,0.059655,0.445281
-0.907227,0.031250,0.139771,-0.337689,0.046872,0.363255
-0.944336,0.027222,0.145264,-0.283360,-0.009587,0.315318
-0.908813,-0.035767,0.138062,-0.156594,-0.069242,0.311057
-0.927490,0.070312,0.129761,-0.149137,-0.141680,0.168312
-0.971313,0.130859,0.112915,-0.290817,-0.245011,0.135289
-0.960937,0.181274,0.086182,-0.468717,-0.284426,0.153398
-0.951416,0.197388,0.066162,-0.637028,-0.300405,0.205596
-0.938843,0.189209,0.052002,-0.762730,-0.280165,0.285491
-0.923218,0.166016,0.044678,-0.814928,-0.229032,0.366451
-0.930054,0.144043,0.044678,-0.786165,-0.158724,0.435693
-0.944214,0.118408,0.049194,-0.712662,-0.091613,0.478304
-0.951660,0.090576,0.053711,-0.585896,-0.042611,0.504936
-0.957031,0.071289,0.056641,-0.437824,-0.012783,0.501740
-0.977783,0.086060,0.044800,-0.265251,-0.059655,0.518784
-0.966431,0.071289,0.015747,-0.233293,-0.108657,0.540089
-0.989380,0.039307,0.031738,-0.241815,-0.125701,0.534763
-1.052490,0.026489,0.055664,-0.283360,-0.105461,0.458064
-1.139771,0.030396,0.057617,-0.352603,-0.094809,0.371777
-1.221313,0.051880,0.044556,-0.423975,-0.119310,0.291883
-1.279297,0.046509,0.024536,-0.524110,-0.175769,0.199205
-1.315186,0.003540,0.013184,-0.558199,-0.249272,0.343015
-1.250854,-0.017212,0.000854,-0.442085,-0.279099,0.314253
-1.202637,0.004761,-0.014038,-0.332363,-0.268447,0.324906
-1.212524,0.006836,-0.015869,-0.258859,-0.210922,0.406931
-1.136475,0.034058,-0.014771,-0.281230,-0.148072,0.491087
-1.089844,0.042969,-0.015747,-0.361125,-0.075634,0.488957
-1.051758,0.057373,-0.020386,-0.470847,-0.008522,0.517719
-0.992798,0.087280,-0.025391,-0.600809,0.042611,0.493218
-0.946045,0.119019,-0.029663,-0.763795,0.077764,0.434628
-0.890625,0.122925,-0.028198,-0.932107,0.108657,0.405866
-0.843140,0.116821,-0.023560,-1.052482,0.144876,0.393083
-0.816528,0.113037,-0.017212,-1.108941,0.174703,0.364321
-0.831909,0.092163,-0.018433,-1.065265,0.171508,0.300405
-0.870361,0.053467,-0.028198,-0.975783,0.137419,0.211988
-0.898682,0.058838,-0.030518,-0.899084,0.088417,0.073503
-0.971069,0.080078,-0.030029,-0.892692,0.040480,-0.094809
-1.046265,0.092896,-0.045776,-0.898018,-0.036219,-0.259925
-1.085938,0.101563,-0.077515,-0.908671,-0.126767,-0.382430
-1.086792,0.105469,-0.101685,-0.888431,-0.215184,-0.466586
-1.073242,0.120117,-0.115356,-0.820254,-0.272708,-0.504936
-1.056396,0.143433,-0.121094,-0.737163,-0.282295,-0.494283
-1.030396,0.158569,-0.115723,-0.659399,-0.239685,-0.456999
-1.001587,0.170166,-0.097900,-0.527306,-0.104396,-0.316384
-0.975464,0.174805,-0.084961,-0.416519,0.003196,-0.211988
-0.980957,0.185181,-0.072388,-0.316384,0.095874,-0.124636
-0.978760,0.209106,-0.059082,-0.273773,0.166181,-0.056459
-0.972534,0.243774,-0.046387,-0.353668,0.206661,0.005326
-0.934204,0.255127,-0.031616,-0.528371,0.220510,0.089482
-0.898682,0.234253,-0.022339,-0.709466,0.216249,0.151268
-0.894165,0.203613,-0.011475,-0.844755,0.203466,0.191748
-0.909058,0.174316,0.002075,-0.920389,0.191748,0.217314
-0.940552,0.146484,0.012817,-0.916128,0.178964,0.196009
-1.023926,0.118530,0.030762,-0.851147,0.165116,0.167247
-1.048340,0.113403,0.038940,-0.749946,0.148072,0.135289
-1.078369,0.127686,0.061523,-0.682835,0.141680,0.082025
-1.118164,0.142944,0.105957,-0.646616,0.147007,0.062851
-1.130249,0.113892,0.106201,-0.517719,0.112918,0.091613
-1.178345,0.050415,0.043579,-0.276969,-0.005326,0.079895
-1.291382,0.037598,0.030396,-0.031958,-0.153398,-0.039415
-1.307007,0.102661,0.064087,0.167247,-0.232228,-0.132093
-1.212280,0.173950,0.088623,0.242880,-0.178964,-0.147007
-1.071167,0.257080,0.122559,0.112918,0.060720,-0.119310
-0.875000,0.301636,0.148437,-0.113983,0.197074,-0.054329
-0.745361,0.315796,0.155640,-0.346211,0.264186,0.095874
-0.642578,0.252197,0.140991,-0.484696,0.283360,0.194943
-0.616211,0.189331,0.114136,-0.497479,0.270577,0.247141
-0.655151,0.149780,0.085937,-0.510262,0.198139,0.240750
-0.757324,0.178467,0.053345,-0.535828,0.079895,0.353668
-0.897705,0.176025,0.035889,-0.677508,-0.077764,0.498544
-0.994995,0.143921,0.020264,-0.843690,-0.217314,0.574178
-1.072876,0.097534,0.004639,-0.937433,-0.234358,0.573112
-1.192505,0.076782,-0.013428,-0.895888,-0.115049,0.594418
-1.214355,0.054443,-0.013672,-0.805340,0.072438,0.501740
-1.182983,0.089478,-0.012451,-0.663660,0.330232,0.420780
-1.093262,0.128906,-0.013916,-0.593353,0.593353,0.402670
-1.010498,0.162109,-0.020630,-0.659399,0.772317,0.383495
-0.953979,0.168091,0.005615,-0.798949,0.830907,0.401605
-0.905884,0.108643,0.083862,-0.779774,0.784035,0.433563
-0.870728,0.077515,0.175049,-0.680704,0.693487,0.431432
-0.881348,0.063843,0.272705,-0.687096,0.422910,0.273773
-0.861084,0.057617,0.293579,-1.017328,0.076699,0.194943
-0.742676,-0.049561,0.275513,-1.106810,0.038350,0.105461
-0.694336,-0.080444,0.245728,-1.002414,0.119310,-0.038350
-0.711304,-0.084473,0.203003,-0.811732,0.298274,-0.220510
-0.828003,-0.046143,0.168579,-0.388822,0.517719,-0.430367
-0.939575,0.083984,0.095581,-0.199205,0.737163,-0.559264
-1.058960,0.178223,0.035889,-0.271643,0.846886,-0.601875
-1.188721,0.200439,-0.027588,-0.336624,0.759534,-0.681770
-1.374268,0.177124,-0.082397,-0.421845,0.570982,-0.823450
-1.557495,0.221558,-0.083740,-0.772317,0.281230,-0.868191
-1.421997,0.312012,-0.046509,-1.033307,0.134223,-0.622115
-1.149048,0.250244,-0.069458,-1.202684,0.096939,-0.369647
-0.998291,0.185059,-0.074829,-1.186705,0.174703,-0.268447
-1.000122,0.184937,-0.045654,-1.113202,0.284426,-0.136354
-0.973145,0.204102,-0.016235,-1.053547,0.378169,-0.003196
-0.958740,0.218018,-0.011108,-1.070591,0.430367,0.085221
-0.917603,0.225098,-0.023804,-1.160073,0.432498,0.101200
-0.858887,0.229126,-0.044189,-1.281514,0.397344,0.092678
-0.831665,0.228882,-0.069092,-1.413607,0.327036,0.075634
-0.818481,0.178711,-0.114868,-1.598963,0.211988,0.033023
-0.906006,0.154419,-0.158325,-1.638377,0.135289,-0.058590
-0.957031,0.126709,-0.182007,-1.678857,0.093743,-0.037284
-0.957764,0.129272,-0.189087,-1.737447,0.099070,-0.077764
-0.986694,0.120483,-0.197632,-1.791776,0.129962,-0.120375
-1.008911,0.088623,-0.213989,-1.774731,0.155529,-0.207727
-1.064209,0.071045,-0.245239,-1.704424,0.153398,-0.325971
-1.094604,0.052734,-0.278198,-1.592571,0.117179,-0.445281
-1.101807,0.065552,-0.293213,-1.465804,0.073503,-0.516653
-1.080444,0.092896,-0.299072,-1.263404,0.017044,-0.470847
-1.028564,0.115723,-0.300171,-1.155812,-0.028762,-0.485761
-1.045654,0.150391,-0.292847,-1.035437,-0.079895,-0.472978
-1.034912,0.172241,-0.282959,-0.935303,-0.121440,-0.406931
-0.979248,0.177246,-0.271240,-0.795753,-0.136354,-0.291883
-0.954712,0.183105,-0.264404,-0.680704,-0.136354,-0.136354
-0.927979,0.189941,-0.260986,-0.622115,-0.140615,0.019175
-0.934082,0.195679,-0.267090,-0.631702,-0.149137,0.123571
-0.922607,0.203613,-0.263184,-0.707336,-0.127832,0.200270
-0.945068,0.218140,-0.246704,-0.852212,-0.088417,0.263120
-0.960205,0.188354,-0.275757,-1.232512,-0.094809,0.239685
-1.033447,0.160522,-0.295776,-1.440238,-0.126767,0.178964
-1.034546,0.134766,-0.284912,-1.511611,-0.115049,0.137419
-1.042603,0.117798,-0.251343,-1.509480,-0.044741,0.067112
-1.025879,0.111450,-0.224976,-1.450891,0.069242,0.119310
-1.068970,0.077515,-0.197998,-1.281514,0.182160,0.043676
-1.068726,0.094116,-0.171875,-1.105745,0.234358,0.121440
-1.101563,0.076294,-0.159424,-0.973652,0.197074,0.109722
-1.196289,0.065063,-0.161865,-0.856473,0.088417,0.029827
-1.282837,0.071167,-0.148071,-0.719054,-0.088417,-0.073503
-1.215576,0.198120,-0.085937,-0.741424,-0.136354,0.161920
-1.165039,0.207642,-0.046265,-0.790427,-0.171508,0.241815
-1.095093,0.267822,-0.016724,-0.981109,-0.186421,0.255664
-1.010864,0.265869,-0.009644,-1.296427,-0.173638,0.213053
-0.954346,0.239136,-0.013916,-1.644769,-0.176834,0.353668
-0.910400,0.153320,-0.001099,-1.855691,-0.174703,0.627441
-0.898560,0.035156,0.013550,-1.792841,-0.166181,0.834102
-0.895264,-0.079468,0.037720,-1.503089,-0.176834,0.908671
-0.869507,-0.146362,0.041870,-1.073787,-0.204531,0.952347
-0.904663,-0.090332,0.041382,-0.673247,-0.288687,0.988566
-1.013184,-0.053955,0.043457,-0.616788,-0.341950,1.005610
-1.045166,-0.024414,0.036011,-0.667921,-0.369647,1.018393
-1.042603,-0.018799,0.028809,-0.719054,-0.332363,0.939564
-1.062134,-0.017334,0.033447,-0.778709,-0.233293,0.827711
-1.065552,-0.026123,0.043213,-0.794688,-0.075634,0.686031
-1.063843,0.016479,0.063599,-0.840494,0.120375,0.577374
-1.038940,0.040771,0.089722,-0.922519,0.303600,0.468717
-0.939575,-0.041382,0.115845,-0.971522,0.453803,0.098004
-0.984131,0.166382,0.102905,-1.123854,0.570982,0.463390
-0.880981,-0.040161,0.083862,-1.074852,0.566721,0.093743
-0.893066,0.042480,0.030396,-0.972587,0.569917,0.059655
-0.904663,0.045898,0.008301,-0.967261,0.611462,-0.031958
-0.915771,0.099854,0.018921,-1.045025,0.612527,-0.211988
-0.876587,0.103638,0.037109,-1.183509,0.621049,-0.374973
-0.835815,0.072510,0.033447,-1.223989,0.651942,-0.444215
-0.836060,0.057861,0.027466,-1.182444,0.639159,-0.404801
-0.860107,0.058472,0.026489,-1.117463,0.574178,-0.406931
-0.913208,0.073242,0.025146,-1.040764,0.504936,-0.404801
-0.960205,0.097534,0.041748,-0.959804,0.445281,-0.364321
-0.960571,0.083496,0.045288,-0.870321,0.441020,-0.348342
-0.946533,0.074585,0.044312,-0.714793,0.460194,-0.325971
-0.932861,0.074951,0.044434,-0.525176,0.488957,-0.246076
-0.911987,0.074585,0.046875,-0.333428,0.514523,-0.189617
-0.900024,0.084229,0.055786,-0.176834,0.528371,-0.166181
-0.898560,0.108154,0.071655,-0.075634,0.535828,-0.186421
-0.906250,0.125244,0.090332,-0.035154,0.534763,-0.222640
-0.916748,0.131470,0.097290,-0.022371,0.519849,-0.273773
-0.966064,0.139648,0.108521,-0.006392,0.463390,-0.387756
-1.066650,0.122559,0.093140,0.028762,0.382430,-0.465521
-1.177856,0.095459,0.055420,0.071373,0.220510,-0.563525
-1.311646,0.088623,0.034790,0.161920,0.021305,-0.612527
-1.401489,0.114868,0.032227,0.295078,-0.131028,-0.628506
-1.417114,0.166504,0.041992,0.403735,-0.188552,-0.592287
-1.338867,0.190063,0.043823,0.451672,-0.160855,-0.482565
-1.198242,0.206299,0.010498,0.492152,-0.078830,-0.320645
-1.071899,0.209473,-0.021362,0.472978,-0.021305,-0.145941
-0.960205,0.201782,-0.020630,0.412258,0.047937,0.120375
-0.847778,0.225464,0.012451,0.197074,0.194943,0.243946
-0.830933,0.200073,0.033936,-0.015979,0.285491,0.325971
-0.841919,0.142944,0.031250,-0.175769,0.319579,0.381365
-0.864380,0.120361,0.005859,-0.316384,0.258859,0.364321
-0.891602,0.105835,-0.039795,-0.463390,0.115049,0.323841
-0.950195,0.087402,-0.086182,-0.626376,-0.056459,0.250337
-1.019775,0.046753,-0.109009,-0.782970,-0.187487,0.134223
-1.102661,0.071411,-0.102173,-0.924650,-0.246076,0.064981
-1.178467,0.030762,-0.107666,-0.992827,-0.290817,0.129962
-1.177124,-0.067749,-0.138672,-0.793622,-0.436759,0.058590
-1.191650,-0.043457,-0.182983,-0.558199,-0.590157,0.049002
-1.117310,-0.057617,-0.169067,-0.401605,-0.657268,-0.031958
-1.008301,0.024048,-0.133179,-0.294013,-0.569917,-0.044741
-0.990356,0.017700,-0.115356,-0.357929,-0.389887,-0.029827
-0.953491,0.051880,-0.099609,-0.366451,-0.184291,-0.187487
-0.935913,0.091553,-0.096436,-0.477239,-0.003196,-0.178964
-0.837891,0.102417,-0.099976,-0.619984,0.140615,-0.062851
-0.893799,0.076538,-0.096313,-0.772317,0.253533,0.098004
-0.858154,0.026001,-0.095581,-0.844755,0.327036,0.236489
-0.901855,-0.024780,-0.085571,-0.924650,0.308927,0.198139
-0.876953,-0.044678,-0.052979,-0.866060,0.246076,0.138484
-0.914795,-0.009033,-0.018677,-0.763795,0.204531,0.140615
-0.956177,0.017822,0.002197,-0.650877,0.174703,0.138484
-1.008667,0.043457,-0.005249,-0.459129,0.120375,0.140615
-1.066895,0.095947,-0.022827,-0.298274,0.031958,0.170442
-1.099243,0.118408,-0.038330,-0.178964,-0.082025,0.250337
-1.107788,0.106812,-0.036377,-0.050067,-0.169377,0.360060
-1.137207,0.108643,-0.012573,0.071373,-0.202400,0.446346
-1.148071,0.090210,0.009644,0.282295,-0.157659,0.497479
-1.159424,0.105347,0.048706,0.380300,-0.087352,0.501740
-1.132813,0.112061,0.071777,0.426106,-0.025566,0.470847
-1.122437,0.115479,0.069824,0.404801,0.001065,0.443150
-1.182617,0.104370,0.057617,0.325971,-0.037284,0.409062
-1.267944,0.103760,0.056519,0.219445,-0.123571,0.317449
-1.339233,0.115845,0.069092,0.089482,-0.208792,0.230097
-1.325317,0.131470,0.099487,-0.046872,-0.259925,0.189617
-1.217896,0.136108,0.124512,-0.155529,-0.272708,0.185356
-1.074219,0.122803,0.133423,-0.193878,-0.279099,0.184291
-0.892334,0.126099,0.135376,-0.087352,-0.297209,0.193878
-0.805664,0.144897,0.131348,-0.007457,-0.320645,0.224771
-0.729492,0.159424,0.132690,0.030893,-0.330232,0.241815
-0.692383,0.161255,0.130737,0.033023,-0.327036,0.271643
-0.691284,0.148560,0.106323,0.034088,-0.356864,0.286556
-0.728394,0.139160,0.093262,0.001065,-0.402670,0.282295
-0.765625,0.126221,0.082153,-0.038350,-0.453803,0.198139
-0.812500,0.118530,0.069214,-0.082025,-0.450607,0.096939
-0.906982,0.137329,0.082153,-0.152333,-0.371777,-0.023436
-0.947632,0.117065,0.092773,-0.227967,-0.180030,-0.233293
-1.009644,0.135986,0.076538,-0.303600,-0.061785,-0.217314
-1.006470,0.235962,0.064209,-0.354733,0.017044,0.041545
-0.953857,0.158325,0.077271,-0.483630,0.055394,0.075634
-0.858765,0.195312,0.099243,-0.542220,0.144876,0.013848
-0.890259,0.165771,0.118286,-0.558199,0.218379,-0.001065
-0.853760,0.114990,0.143433,-0.477239,0.257794,-0.077764
-0.827881,0.096680,0.163330,-0.263120,0.256729,-0.049002
-0.816895,0.058594,0.182739,0.029827,0.256729,0.082025
-0.813965,0.034424,0.179565,0.365386,0.239685,0.060720
-0.857788,0.075439,0.168091,0.787231,0.219445,-0.007457
-0.891602,0.149414,0.177490,0.870321,0.219445,-0.006392
-0.900879,0.209961,0.189087,0.779774,0.252468,0.035154
-0.921021,0.221436,0.187012,0.601875,0.291883,0.057524
-0.924438,0.204590,0.176514,0.417584,0.311057,0.038350
-0.918213,0.167114,0.176270,0.292948,0.330232,-0.033023
-0.918579,0.148560,0.181763,0.242880,0.354733,-0.126767
-0.920166,0.153564,0.187988,0.192813,0.381365,-0.222640
-0.931152,0.168457,0.191040,0.095874,0.401605,-0.347276
-0.975830,0.176147,0.189941,-0.072438,0.380300,-0.552872
-1.032715,0.180176,0.185669,-0.134223,0.344081,-0.664725
-1.056274,0.189697,0.175415,-0.186421,0.304666,-0.732902
-1.128418,0.182739,0.168335,-0.186421,0.267381,-0.757403
-1.226318,0.163208,0.147583,-0.120375,0.219445,-0.802144
-1.331909,0.155762,0.133057,0.015979,0.176834,-0.859669
-1.400635,0.166992,0.100952,0.271643,0.106526,-0.831972
-1.429688,0.174561,0.041626,0.548611,0.004261,-0.706271
-1.364746,0.231079,-0.003540,0.740359,-0.093743,-0.500674
-1.228027,0.266846,-0.054199,0.769121,-0.144876,-0.170442
-1.081787,0.288452,-0.084961,0.527306,-0.086286,0.007457
-0.964478,0.281982,-0.064209,0.217314,0.042611,0.198139
-0.838989,0.283691,-0.033569,-0.103331,0.216249,0.321710
-0.751709,0.253418,-0.011353,-0.395213,0.411192,0.390952
-0.702881,0.189941,-0.005127,-0.569917,0.572047,0.410127
-0.720093,0.124390,-0.018677,-0.664725,0.645550,0.407996
-0.788696,0.121826,-0.035156,-0.739294,0.613593,0.329167
-0.867065,0.128418,-0.056152,-0.813862,0.494283,0.207727
-0.895752,0.135254,-0.081299,-0.921454,0.344081,0.117179
-0.907959,0.123657,-0.101318,-1.129181,0.122505,0.073503
-0.941772,0.023193,-0.146606,-1.100419,-0.014914,0.062851
-0.992676,-0.024170,-0.173584,-0.929976,-0.127832,0.039415
-1.047363,-0.019775,-0.181274,-0.696683,-0.206661,0.008522
-0.994507,-0.015747,-0.190674,-0.481500,-0.238619,-0.012783
-1.129761,0.168213,-0.200806,-0.314253,-0.218379,0.162986
-1.038696,-0.152466,-0.199829,-0.323841,-0.189617,-0.561395
-1.037476,0.104614,-0.219360,-0.039415,-0.120375,-0.619984
-1.216675,0.144043,-0.237305,-0.068177,-0.112918,-0.142745
-1.069946,0.146362,-0.207153,-0.150202,-0.092678,0.225836
-0.954346,0.112305,-0.163940,-0.340885,0.003196,0.120375
-1.003052,0.130737,-0.140869,-0.444215,0.092678,0.090548
-0.986938,0.131226,-0.117310,-0.563525,0.154463,0.040480
-0.990234,0.120850,-0.099121,-0.642355,0.188552,0.024501
-0.987305,0.117310,-0.091309,-0.699879,0.204531,0.113983
-0.968750,0.098999,-0.080933,-0.748881,0.191748,0.166181
-0.971436,0.099365,-0.070068,-0.780839,0.170442,0.160855
-0.988647,0.105103,-0.057129,-0.812797,0.143811,0.158724
-0.992310,0.110840,-0.043945,-0.853277,0.111853,0.131028
-1.004395,0.110474,-0.003540,-0.876713,0.059655,0.104396
-1.032837,0.098633,-0.011597,-0.827711,0.029827,0.064981
-1.041626,0.086426,0.000000,-0.714793,-0.012783,0.056459
-1.030518,0.079956,0.007202,-0.569917,-0.061785,0.000000
-1.052979,0.098755,0.010620,-0.442085,-0.122505,-0.086286
-1.066895,0.128906,0.017456,-0.366451,-0.183226,-0.161920
-1.065552,0.162109,0.037842,-0.357929,-0.219445,-0.220510
-1.123169,0.179565,0.143799,-0.433563,-0.134223,-0.253533
-1.266235,0.079224,0.215332,-0.417584,-0.021305,-0.282295
-1.421509,0.007324,0.142700,-0.267381,-0.220510,-0.458064
-1.432373,0.139771,0.140259,-0.074569,-0.445281,-0.600809
-1.267578,0.223022,0.190674,0.022371,-0.549677,-0.593353
-1.126221,0.288452,0.228516,-0.001065,-0.494283,-0.547546
-1.057373,0.333984,0.235596,-0.138484,-0.383495,-0.303600
-0.988159,0.262939,0.206543,-0.259925,-0.329167,0.012783
-0.897095,0.206543,0.152710,-0.260990,-0.376038,0.399474
-0.792358,0.154663,0.090210,-0.219445,-0.543285,0.714793
-0.685791,0.105103,0.029297,-0.107592,-0.764860,0.668986
-0.653442,0.133667,-0.013550,-0.074569,-0.932107,0.615723
-0.703491,0.175781,-0.048950,-0.204531,-1.118528,0.579504
-0.776611,0.245117,-0.078003,-0.415453,-1.092962,0.733967
-0.785034,0.187500,-0.084839,-0.579504,-0.910801,0.598679
-0.828613,0.174316,-0.089722,-0.651942,-0.601875,0.438889
-0.900024,0.171509,-0.081543,-0.704140,-0.234358,0.343015
-0.953857,0.188965,-0.069214,-0.725445,0.117179,0.255664
-0.934937,0.225830,-0.051392,-0.820254,0.432498,0.233293
-0.926392,0.235229,-0.017456,-0.945955,0.708401,0.124636
-0.929077,0.308105,0.031616,-1.057808,0.913997,0.176834
-0.891968,0.303589,0.049927,-1.249556,0.997088,0.319579
-0.787476,0.183594,0.075806,-1.352886,0.987501,0.058590
-0.830811,0.181030,0.063232,-1.311341,0.911867,0.079895
-0.860840,0.158325,0.074463,-1.316667,0.834102,0.110788
-0.917358,0.142456,0.111450,-1.318798,0.761664,0.104396
-0.952271,0.123657,0.135742,-1.334777,0.717989,0.153398
-0.925171,0.101440,0.143799,-1.386975,0.704140,0.197074
-0.878052,0.084106,0.129272,-1.433846,0.699879,0.157659
-0.921753,0.077759,0.098511,-1.456217,0.677508,0.140615
-0.962036,0.034058,0.076660,-1.463674,0.644485,0.125701
-0.996094,0.036255,0.061401,-1.453021,0.605070,0.021305
-1.000000,0.073486,0.026123,-1.494567,0.584830,-0.020240
-1.060181,0.114868,-0.071045,-1.572331,0.487891,-0.060720
-1.114868,0.185303,-0.210937,-1.917477,0.325971,-0.176834
-1.264038,0.281128,-0.303345,-2.679141,0.149137,-0.284426
-1.345703,0.227539,-0.277710,-3.514309,0.122505,-0.194943
-1.234375,0.105103,-0.194946,-4.082095,0.407996,-0.006392
-1.103882,-0.036499,-0.161865,-4.184361,0.886300,0.106526
-1.091064,-0.183594,-0.128906,-3.660250,1.291101,0.180030
-1.076660,-0.245361,-0.090454,-2.397911,1.551026,0.008522
-1.121826,-0.115356,-0.028076,-1.742773,1.465804,-0.094809
-1.084473,-0.007935,-0.012695,-1.327320,1.239968,-0.157659
-1.008179,0.086914,-0.014404,-1.169661,0.957673,-0.160855
-0.896973,0.131714,-0.028931,-1.162204,0.691357,-0.117179
-0.805908,0.117798,-0.050049,-1.200554,0.491087,-0.079895
-0.785400,0.117310,-0.070312,-1.227185,0.364321,-0.069242
-0.852417,0.106323,-0.077759,-1.248490,0.285491,-0.051133
-0.933716,0.073853,-0.117920,-1.183509,0.184291,-0.022371
-0.969360,0.048462,-0.164307,-1.074852,0.089482,-0.058590
-1.033813,0.046509,-0.198975,-0.912932,-0.002131,-0.299339
-1.083984,0.114136,-0.212158,-0.879909,-0.008522,-0.350472
-1.084106,0.125122,-0.231201,-0.909736,0.006392,-0.415453
-1.097778,0.136841,-0.265381,-0.939564,0.014914,-0.479369
-1.058350,0.147217,-0.295532,-0.969391,0.020240,-0.519849
-1.062744,0.153809,-0.314087,-1.016263,0.045806,-0.493218
-1.058105,0.162964,-0.303711,-1.007741,0.086286,-0.575243
-1.068359,0.227173,-0.272583,-1.022654,0.123571,-0.470847
-1.033447,0.214111,-0.233643,-1.095092,0.154463,-0.421845
-0.980835,0.241943,-0.200439,-1.183509,0.141680,-0.328102
-0.943848,0.231323,-0.165894,-1.244229,0.084156,-0.199205
-0.915039,0.204346,-0.152710,-1.227185,0.047937,-0.107592
-0.953613,0.183594,-0.139038,-1.185640,0.015979,-0.001065
-0.953247,0.171509,-0.109863,-1.113202,-0.015979,-0.017044
-1.020142,0.193359,-0.069336,-1.048221,-0.064981,0.037284
-1.081421,0.152588,-0.052124,-0.972587,-0.180030,0.155529
-1.065552,0.111450,-0.066406,-0.779774,-0.339819,0.086286
-1.172607,0.098389,-0.108643,-0.561395,-0.561395,0.075634
-1.252197,0.108765,-0.143799,-0.372843,-0.813862,0.073503
-1.330933,0.107788,-0.210083,-0.086286,-1.136638,0.017044
-1.317627,0.114868,-0.223755,0.147007,-1.164335,0.036219
-1.223633,0.143799,-0.199707,0.301470,-1.078048,0.134223
-1.113525,0.185181,-0.168213,0.301470,-0.895888,0.241815
-1.017456,0.214966,-0.131592,0.188552,-0.649812,0.393083
-0.999023,0.208496,-0.096436,0.013848,-0.430367,0.450607
-0.964966,0.223511,-0.078735,-0.183226,-0.303600,0.624245
-0.952393,0.233032,-0.059326,-0.494283,-0.248207,0.687096
-0.914917,0.244751,-0.044678,-0.871387,-0.237554,0.684965
-0.904907,0.250854,-0.041260,-1.441303,-0.259925,0.769121
-0.836182,0.162231,-0.038452,-1.748100,-0.254598,0.781904
-0.856201,0.114990,-0.032349,-1.933456,-0.234358,0.802144
-0.898682,0.090576,-0.021362,-2.005894,-0.215184,0.806406
-0.943481,0.063721,-0.009644,-1.990980,-0.189617,0.754208
-1.005981,0.074341,-0.007935,-1.914281,-0.162986,0.683900
-1.081177,0.115479,-0.014771,-1.849300,-0.131028,0.675378
-1.118286,0.134399,-0.022217,-1.838647,-0.087352,0.676443
-1.115845,0.123047,-0.028076,-1.825864,-0.018110,0.686031
-1.096313,0.146118,-0.030884,-1.771536,0.091613,0.688161
-1.036255,0.113525,-0.023682,-1.611746,0.294013,0.911867
-0.953613,0.092651,-0.016602,-1.524394,0.431432,0.933172
-0.882324,0.063354,0.005859,-1.425324,0.572047,0.822384
-0.878052,0.071411,0.029663,-1.345430,0.666856,0.683900
-0.881836,0.084473,0.035400,-1.329451,0.699879,0.684965
-0.884521,0.081177,0.034180,-1.341169,0.675378,0.686031
-0.894165,0.107788,0.046021,-1.393366,0.628506,0.744620
-0.895996,0.105469,0.073242,-1.475392,0.606136,0.797883
-0.869019,0.068604,0.092285,-1.549960,0.595483,0.672182
-0.863892,0.038818,0.107422,-1.490306,0.596548,0.435693
-0.896118,0.010620,0.125610,-1.367800,0.604005,0.271643
-0.923828,0.006958,0.156616,-1.208010,0.579504,0.197074
-0.944946,0.020264,0.172119,-1.049286,0.486826,0.133158
-0.949585,0.011719,0.179321,-0.940629,0.356864,0.061785
-0.944214,0.018311,0.180298,-0.839429,0.239685,0.023436
-0.924438,0.036621,0.182251,-0.762730,0.184291,0.008522
-0.920776,0.038208,0.196899,-0.690292,0.181095,-0.059655
-0.931396,0.049438,0.214478,-0.588026,0.216249,-0.104396
-0.931152,0.066772,0.219238,-0.461260,0.289752,-0.144876
-0.948486,0.076904,0.197021,-0.283360,0.364321,-0.190682
-0.981934,0.112427,0.190186,-0.192813,0.352603,-0.199205
-0.987183,0.142090,0.207886,-0.068177,0.300405,-0.198139
-0.969971,0.207275,0.200806,-0.027697,0.288687,-0.167247
-0.966064,0.221436,0.177734,-0.101200,0.315318,-0.092678
-0.969849,0.208130,0.144897,-0.280165,0.358994,-0.075634
-0.945312,0.159058,0.099609,-0.528371,0.459129,-0.084156
-0.973145,0.064331,0.049561,-0.492152,0.503870,-0.031958
-1.058105,0.042358,-0.014893,-0.318514,0.498544,-0.024501
-1.265869,0.063843,-0.033813,-0.183226,0.444215,-0.101200
-1.355713,0.113281,-0.033081,-0.249272,0.477239,-0.200270
-1.261719,0.090210,-0.038208,-0.239685,0.492152,-0.258859
-1.066895,0.114014,-0.051270,-0.188552,0.516653,-0.253533
-0.867920,0.159058,-0.064087,-0.196009,0.556068,-0.220510
-0.776855,0.174561,-0.087402,-0.237554,0.589091,-0.157659
-0.837524,0.125488,-0.101196,-0.289752,0.618919,-0.155529
-0.970337,0.109985,-0.091064,-0.311057,0.592287,-0.175769
-1.049927,0.114380,-0.077026,-0.389887,0.543285,-0.222640
-1.175903,0.122559,-0.080811,-0.485761,0.432498,-0.402670
-1.132324,0.180664,-0.120361,-0.573112,0.191748,-0.464455
-1.074829,0.167969,-0.153320,-0.640224,0.013848,-0.388822
-0.944336,0.141724,-0.173706,-0.579504,-0.084156,-0.452738
-0.908936,0.144287,-0.182251,-0.469782,-0.087352,-0.400540
-0.925171,0.108643,-0.150635,-0.305731,-0.006392,-0.347276
-0.963013,0.107056,-0.114014,-0.092678,0.127832,-0.165116
-0.989014,0.112183,-0.093628,0.089482,0.266316,-0.029827
-1.008545,0.158936,-0.088867,0.174703,0.352603,0.037284
-1.006226,0.181885,-0.085205,0.131028,0.371777,0.046872
-1.000488,0.195801,-0.076172,-0.068177,0.308927,0.098004
-1.000000,0.140137,-0.062744,-0.132093,0.233293,0.116114
-0.990967,0.117310,-0.062866,-0.131028,0.159790,0.157659
-0.963257,0.095459,-0.051025,-0.057524,0.112918,0.221575
-0.944824,0.097900,-0.038208,0.041545,0.100135,0.265251
-0.942749,0.115845,-0.021973,0.125701,0.107592,0.259925
-0.961182,0.112427,-0.007324,0.170442,0.106526,0.226901
-0.975708,0.146729,-0.002808,0.181095,0.086286,0.210922
-0.980713,0.135986,0.008301,0.145941,0.029827,0.101200
-0.993164,0.166260,0.013184,0.101200,-0.043676,0.096939
-1.015015,0.163208,0.015015,0.045806,-0.164051,0.098004
-1.003174,0.144287,0.011841,0.068177,-0.230097,0.031958
-1.015869,0.145386,0.006470,0.138484,-0.285491,0.004261
-1.021118,0.122681,0.002686,0.264186,-0.330232,-0.098004
-1.013184,0.125122,0.000610,0.413323,-0.345146,-0.175769
-1.007568,0.124268,0.003296,0.569917,-0.351537,-0.224771
-0.997803,0.132324,0.002197,0.699879,-0.347276,-0.255664
-1.015015,0.154541,0.021484,0.747816,-0.327036,-0.309992
-1.085083,0.212280,0.140137,0.627441,-0.209857,-0.369647
-1.119995,0.191650,0.167114,0.692422,-0.198139,-0.334493
-1.083252,0.065308,0.046021,0.934237,-0.367516,-0.395213
-1.064331,0.049316,-0.021484,1.223989,-0.581635,-0.523045
-1.120361,0.194458,-0.042236,1.365670,-0.759534,-0.286556
-1.049194,0.088379,-0.037842,1.382714,-0.840494,-0.618919
-1.153931,0.214478,-0.079468,1.370996,-0.834102,-0.543285
-1.239990,0.184570,-0.135132,1.159008,-0.769121,-0.125701
-1.191895,0.050415,-0.187012,0.977913,-0.665791,-0.122505
-1.310181,0.017334,-0.203369,0.851147,-0.456999,-0.430367
-1.414551,0.099731,-0.248169,0.583765,-0.076699,-0.345146
-1.270020,0.106812,-0.271240,-0.176834,0.449542,-0.211988
-0.978394,0.003662,-0.210693,-0.442085,0.635963,-0.136354
-0.782837,-0.092163,-0.112305,-0.435693,0.707336,0.001065
-0.624512,-0.211304,-0.043213,-0.125701,0.625310,0.125701
-0.574707,-0.270386,-0.050415,0.306796,0.585896,0.100135
-0.711182,-0.219604,-0.030151,0.646616,0.511327,-0.047937
-0.862549,-0.122314,0.032349,0.831972,0.339819,-0.157659
-0.903809,-0.043579,0.034424,0.891627,0.080960,-0.178964
-0.926025,0.053833,-0.021362,0.779774,-0.148072,-0.194943
-1.004150,0.114868,0.011597,0.384561,-0.477239,-0.434628
-1.083862,0.201172,0.141479,0.128897,-0.628506,-0.467651
-1.010742,0.135620,0.205688,0.005326,-0.474043,-0.298274
-0.962036,0.056030,0.234253,0.122505,-0.169377,-0.172573
-0.920776,0.008179,0.242310,0.362190,0.122505,-0.082025
-0.929077,0.042236,0.249146,0.582700,0.331297,0.131028
-0.934937,0.078369,0.249146,0.643420,0.422910,0.139550
-0.975830,0.160034,0.241943,0.515588,0.372843,0.064981
-0.994507,0.203735,0.225098,0.271643,0.243946,0.069242
-0.989502,0.230591,0.198975,-0.028762,0.085221,0.118244
-0.978027,0.227661,0.179443,-0.527306,-0.118244,0.099070
-1.010864,0.207886,0.206787,-0.781904,-0.175769,0.063916
-1.040527,0.196411,0.223633,-0.955543,-0.171508,0.003196
-1.014404,0.146851,0.238647,-1.012002,-0.135289,-0.021305
-0.968384,0.114624,0.233765,-0.880974,-0.121440,-0.001065
-0.953247,0.113403,0.226440,-0.681770,-0.158724,0.043676
-0.939575,0.107666,0.216919,-0.474043,-0.246076,0.056459
-0.921509,0.119385,0.192871,-0.301470,-0.340885,0.110788
-0.921265,0.124146,0.166260,-0.201335,-0.429302,0.167247
-0.926147,0.134399,0.149292,-0.185356,-0.518784,0.224771
-0.945557,0.143066,0.149902,-0.203466,-0.520915,0.267381
-0.937500,0.132446,0.122192,-0.201335,-0.497479,0.321710
-0.923950,0.113159,0.087280,-0.200270,-0.466586,0.366451
-0.932129,0.071777,0.075317,-0.150202,-0.416519,0.404801
-0.952393,0.064453,0.079102,-0.063916,-0.335558,0.419714
-0.989990,0.072510,0.077881,-0.001065,-0.249272,0.430367
-1.022827,0.074097,0.070801,0.023436,-0.172573,0.422910
-1.042603,0.078857,0.058350,0.008522,-0.120375,0.442085
-1.052002,0.070679,0.042725,-0.036219,-0.084156,0.438889
-1.085205,0.074097,0.032593,-0.148072,-0.046872,0.426106
-1.129517,0.079224,0.044434,-0.242880,0.001065,0.402670
-1.145142,0.085327,0.050903,-0.345146,0.064981,0.364321
-1.165283,0.095459,0.057129,-0.458064,0.134223,0.303600
-1.177979,0.098389,0.061401,-0.558199,0.188552,0.252468
-1.132690,0.100708,0.063354,-0.615723,0.233293,0.251403
-1.052002,0.096924,0.067017,-0.605070,0.281230,0.297209
-0.984619,0.089355,0.067139,-0.535828,0.332363,0.363255
-0.919678,0.090820,0.072998,-0.437824,0.392017,0.370712
-0.872681,0.087036,0.082275,-0.331297,0.472978,0.331297
-0.825439,0.126343,0.088745,-0.358994,0.496413,0.306796
-0.828247,0.138306,0.083252,-0.449542,0.497479,0.236489
-0.881836,0.153320,0.081787,-0.631702,0.476173,0.120375
-0.944214,0.180786,0.078003,-0.866060,0.420780,0.001065
-0.970825,0.198364,0.062500,-1.155812,0.351537,-0.094809
-0.994751,0.191528,0.043701,-1.415737,0.267381,-0.192813
-1.046021,0.168579,0.020020,-1.562744,0.181095,-0.252468
-1.102905,0.145264,-0.018921,-1.603224,0.074569,-0.282295
-1.149902,0.120361,-0.054565,-1.511611,-0.031958,-0.275904
-1.130493,0.119263,-0.057617,-1.254882,-0.132093,-0.234358
-1.132324,0.140747,-0.028687,-1.080179,-0.122505,-0.181095
-1.067871,0.153687,-0.011108,-0.920389,-0.073503,-0.107592
-1.010986,0.162964,-0.013062,-0.771252,-0.019175,0.066046
-0.955322,0.142090,-0.011353,-0.600809,0.000000,0.170442
-0.951172,0.139038,-0.014771,-0.402670,-0.025566,0.334493
-0.950195,0.116211,-0.019165,-0.213053,-0.083091,0.524110
-0.945435,0.109741,-0.015137,-0.069242,-0.133158,0.610397
-0.953613,0.110840,-0.005493,0.015979,-0.155529,0.664725
-0.950806,0.113647,0.008667,0.028762,-0.123571,0.714793
-0.930664,0.098145,0.021729,-0.011718,-0.083091,0.711597
-0.923828,0.078491,0.023437,-0.042611,-0.060720,0.634898
-0.929077,0.072266,0.018188,-0.054329,-0.071373,0.565656
-0.932861,0.052612,0.007935,-0.045806,-0.108657,0.468717
-0.959106,0.028320,0.005859,-0.015979,-0.149137,0.337689
-1.025269,0.021240,0.010986,0.047937,-0.165116,0.189617
-1.071533,0.016724,0.015381,0.124636,-0.155529,0.019175
-1.096802,0.034546,0.027222,0.181095,-0.112918,-0.126767
-1.128784,0.028442,0.044922,0.248207,-0.052198,-0.393083
-1.211548,0.038086,0.034912,0.383495,-0.006392,-0.519849
-1.199341,0.066284,0.047974,0.452738,0.022371,-0.629572
-1.187744,0.117798,0.083984,0.434628,0.105461,-0.744620
-1.159424,0.178589,0.121704,0.290817,0.240750,-0.821319
-1.116821,0.239380,0.165039,0.006392,0.397344,-0.858603
-1.064331,0.280640,0.218628,-0.366451,0.531567,-0.861799
-0.975708,0.297607,0.252319,-0.715858,0.611462,-0.792557
-0.869507,0.264160,0.247559,-0.955543,0.600809,-0.668986
-0.769775,0.201904,0.212769,-1.031176,0.481500,-0.542220
-0.703247,0.142334,0.157471,-0.886300,0.251403,-0.350472
-0.695435,0.086426,0.112427,-0.728641,0.124636,-0.258859
-0.749268,0.099854,0.111328,-0.592287,-0.006392,-0.206661
-0.821655,0.092529,0.098755,-0.467651,-0.157659,-0.174703
-0.912231,0.091553,0.074341,-0.369647,-0.278034,-0.171508
-0.991821,0.096191,0.069824,-0.273773,-0.281230,-0.188552
-1.053833,0.127197,0.109741,-0.230097,-0.133158,-0.236489
-1.112061,0.168457,0.135620,-0.220510,0.087352,-0.287622
-1.107300,0.190308,0.131836,-0.270577,0.314253,-0.311057
-1.119873,0.193726,0.145020,-0.356864,0.602940,-0.282295
-1.140747,0.190430,0.171265,-0.421845,0.648746,-0.170442
-1.079834,0.123779,0.129761,-0.383495,0.543285,-0.042611
-1.000366,0.097900,0.094971,-0.335558,0.403735,0.141680
-0.915649,0.080566,0.124878,-0.367516,0.307862,0.258859
-0.931274,0.117920,0.159912,-0.436759,0.253533,0.289752
-0.922119,0.138428,0.161377,-0.611462,0.205596,0.312123
-0.908691,0.119263,0.138184,-0.828776,0.165116,0.287622
-0.881714,0.118774,0.107300,-1.002414,0.140615,0.262055
-0.865356,0.136475,0.078613,-1.187770,0.120375,0.265251
-0.823486,0.137695,0.056763,-1.479653,0.143811,0.135289
-0.835937,0.164062,0.017090,-1.651161,0.197074,0.085221
-0.917969,0.159790,-0.003784,-1.831190,0.239685,0.054329
-1.016235,0.125366,-0.033081,-1.928129,0.242880,0.003196
-1.134521,0.086548,-0.076416,-1.917477,0.188552,-0.008522
-1.232666,0.038696,-0.119019,-1.815211,0.110788,-0.019175
-1.326660,0.036133,-0.113892,-1.678857,0.070307,-0.060720
-1.322266,0.082642,-0.077881,-1.568070,0.098004,-0.082025
-1.204590,0.081421,-0.081665,-1.414672,0.164051,-0.060720
-1.098511,0.073120,-0.116577,-1.217598,0.243946,0.069242
-0.976318,0.037598,-0.122925,-0.913997,0.275904,0.037284
-1.001953,0.096924,-0.099731,-0.751012,0.314253,0.072438
-0.981689,0.129883,-0.083618,-0.747816,0.354733,0.123571
-0.978271,0.150879,-0.093628,-0.867126,0.355798,0.105461
-0.968262,0.173340,-0.125610,-1.026915,0.316384,0.116114
-0.938721,0.167480,-0.148437,-1.244229,0.253533,0.134223
-0.881836,0.151855,-0.161011,-1.443434,0.218379,0.176834
-0.843872,0.111816,-0.156250,-1.594702,0.233293,0.202400
-0.876343,0.084351,-0.129028,-1.635182,0.294013,0.208792
-0.869995,0.015747,-0.096680,-1.471131,0.388822,0.264186
-0.962158,-0.046997,-0.135498,-1.166465,0.332363,0.138484
-1.088623,-0.066406,-0.180420,-0.795753,0.183226,-0.014914
-1.172607,-0.051392,-0.246826,-0.446346,0.010653,-0.168312
-1.192993,0.023437,-0.298584,-0.324906,-0.054329,-0.256729
-1.146851,0.112793,-0.329712,-0.480434,-0.022371,-0.309992
-1.102661,0.136719,-0.350708,-0.705205,0.038350,-0.363255
-1.063721,0.166138,-0.363403,-0.941694,0.086286,-0.414388
-1.038818,0.148071,-0.365479,-1.120659,0.087352,-0.450607
-1.017090,0.139038,-0.341553,-1.193097,0.071373,-0.433563
-0.978638,0.171265,-0.276489,-1.262339,0.047937,-0.341950
-0.944824,0.181641,-0.244507,-1.296427,0.015979,-0.272708
-0.913696,0.180664,-0.225586,-1.309211,-0.029827,-0.214118
-0.891357,0.171631,-0.213501,-1.290036,-0.075634,-0.155529
-0.879272,0.164673,-0.198608,-1.249556,-0.099070,-0.098004
-0.898315,0.149902,-0.191040,-1.168596,-0.102265,-0.064981
-0.958618,0.145386,-0.195190,-1.081244,-0.133158,0.013848
-0.957764,0.120605,-0.200073,-0.950216,-0.171508,0.007457
-1.018188,0.113159,-0.206665,-0.815993,-0.221575,0.026632
-1.050781,0.115356,-0.213989,-0.616788,-0.264186,0.116114
-1.179321,0.109985,-0.204834,-0.548611,-0.312123,0.091613
-1.141968,0.123779,-0.208862,-0.446346,-0.365386,0.167247
-1.180054,0.066772,-0.234619,-0.300405,-0.414388,0.208792
-1.284424,0.013794,-0.239868,-0.078830,-0.459129,0.173638
-1.327637,-0.021606,-0.196899,0.148072,-0.429302,0.192813
-1.204102,0.049805,-0.157837,0.189617,-0.358994,0.308927
-1.051392,0.122681,-0.123657,-0.034088,-0.241815,0.278034
-0.989746,0.223999,-0.072021,-0.488957,-0.076699,0.197074
-0.956421,0.253418,-0.012329,-1.319863,0.189617,0.115049
-0.944092,0.151001,0.039185,-1.611746,0.349407,0.136354
-0.936157,0.057007,0.030762,-1.739578,0.373908,0.185356
-0.889404,-0.033081,0.012085,-1.658617,0.291883,0.236489
-0.826538,-0.093140,0.000610,-1.460478,0.192813,0.292948
-0.795410,-0.112427,-0.029419,-1.199488,0.099070,0.295078
-0.871826,-0.060669,-0.045410,-1.047155,0.000000,0.372843
-0.847046,-0.010254,-0.058716,-1.006675,-0.020240,0.296144
-0.957275,0.016602,-0.076050,-1.112136,-0.006392,0.296144
-0.983276,0.023926,-0.077759,-1.274057,0.039415,0.265251
-1.028564,0.035400,-0.062378,-1.554222,0.192813,0.167247
-1.071045,0.069702,-0.021240,-1.726794,0.282295,0.039415
-1.071289,0.095703,0.001709,-1.963283,0.372843,-0.053263
-1.077148,0.093872,0.047852,-2.159292,0.379234,-0.194943
-1.032837,0.134888,0.061401,-2.433065,0.341950,-0.312123
-0.949829,0.178101,0.043701,-2.678076,0.372843,-0.355798
-0.995728,0.047241,0.026855,-2.825083,0.373908,-0.435693
-0.950317,0.053223,0.014160,-2.655705,0.335558,-0.311057
-0.944824,0.049927,-0.005859,-2.469284,0.239685,-0.169377
-0.942139,0.057007,-0.024536,-2.304168,0.043676,0.104396
-0.937744,-0.005981,-0.042725,-1.972871,-0.069242,0.214118
-0.904297,-0.043701,-0.059082,-1.692706,-0.119310,0.290817
-0.885376,-0.058228,-0.077515,-1.440238,-0.108657,0.334493
-0.876343,-0.066284,-0.084839,-1.214402,-0.054329,0.316384
-0.872681,-0.099487,-0.081299,-1.018393,0.028762,0.242880
-0.893799,-0.067871,-0.083496,-0.847951,0.116114,0.108657
-0.915405,-0.023682,-0.106689,-0.751012,0.149137,-0.060720
-0.911255,0.007935,-0.127563,-0.748881,0.151268,-0.168312
-0.928589,-0.012451,-0.133301,-0.777643,0.139550,-0.167247
-0.950317,-0.014038,-0.143921,-0.710532,0.134223,-0.105461
-0.981201,-0.012573,-0.156372,-0.665791,0.165116,-0.066046
-0.955811,-0.001953,-0.126099,-0.612527,0.268447,-0.004261
-0.916626,0.007080,-0.089966,-0.551807,0.422910,0.050067
-0.903809,0.024170,-0.070068,-0.488957,0.575243,0.063916
-0.923706,0.012939,-0.043945,-0.422910,0.692422,0.084156
-0.965454,-0.013184,-0.013306,-0.317449,0.754208,0.054329
-1.018433,-0.010132,-0.007690,-0.176834,0.740359,-0.024501
-1.088379,0.021973,0.013184,-0.107592,0.695618,-0.077764
-1.210938,0.037476,0.087280,-0.157659,0.683900,-0.218379
-1.479980,-0.008301,0.085205,-0.145941,0.559264,-0.380300
-1.546753,0.052856,0.024170,-0.139550,0.299339,-0.595483
-1.411255,0.140381,-0.032837,-0.245011,-0.049002,-0.778709
-1.257568,0.182617,-0.035889,-0.319579,-0.270577,-0.737163
-1.052002,0.201782,0.005249,-0.559264,-0.238619,-0.433563
-0.863647,0.167114,0.055786,-0.836233,-0.008522,-0.092678
-0.860107,0.029419,0.070435,-0.949151,0.183226,0.253533
-0.880737,-0.100220,0.033569,-0.854342,0.190682,0.483630
-0.963379,-0.182007,-0.001221,-0.578439,0.012783,0.661529
-1.004761,-0.243530,-0.084717,0.088417,-0.414388,0.737163
-1.009155,-0.175049,-0.160156,0.439954,-0.663660,0.663660
-0.832153,-0.173828,-0.241699,0.679639,-0.759534,0.427171
-1.111572,-0.157471,-0.313477,0.741424,-0.684965,0.437824
-1.024170,-0.157593,-0.327637,0.772317,-0.544350,0.470847
-0.988892,-0.093262,-0.309570,0.527306,-0.335558,0.358994
-1.066040,-0.064453,-0.273926,0.199205,-0.150202,0.321710
-1.045410,-0.058838,-0.235107,-0.116114,0.006392,0.315318
-1.006592,-0.081299,-0.188965,-0.253533,0.118244,0.262055
-0.986084,-0.073242,-0.134277,-0.242880,0.197074,0.233293
-0.957397,-0.023560,-0.084106,-0.142745,0.201335,0.251403
-0.916016,-0.002441,-0.068115,-0.028762,0.187487,0.283360
-0.890625,-0.011475,-0.048218,0.075634,0.164051,0.352603
-0.842041,-0.087280,-0.031982,0.230097,0.165116,0.354733
-0.859253,-0.035400,-0.021362,0.421845,0.174703,0.284426
-0.882935,0.001465,-0.016968,0.492152,0.177899,0.157659
-0.925903,0.031860,-0.022705,0.499609,0.188552,-0.017044
-0.985352,0.054932,-0.043213,0.435693,0.160855,-0.166181
-1.034180,0.081177,-0.071777,0.384561,0.113983,-0.160855
-1.129395,0.142578,-0.124512,0.125701,-0.071373,0.192813
-1.129639,0.150024,-0.090210,-0.027697,-0.236489,0.393083
-1.112671,0.118164,-0.085205,-0.088417,-0.317449,0.458064
-1.113525,0.087769,-0.063477,-0.057524,-0.307862,0.465521
-1.085571,0.053223,-0.030029,0.079895,-0.209857,0.343015
-1.085205,0.071655,-0.006592,0.246076,-0.071373,0.341950
-1.074585,0.028687,0.005737,0.432498,0.070307,0.204531
-1.059570,0.057251,0.011963,0.607201,0.160855,0.074569
-1.110352,0.107788,0.024170,0.634898,0.173638,0.151268
-1.146851,0.086060,0.038696,0.588026,0.002131,0.237554
-1.234009,0.060059,-0.000244,0.500674,-0.209857,0.171508
-1.325684,0.040527,-0.043823,0.471912,-0.483630,0.047937
-1.356567,0.031494,-0.067017,0.458064,-0.723315,-0.087352
-1.307861,0.014160,-0.071045,0.483630,-0.841559,-0.224771
-1.190186,0.035034,-0.055176,0.542220,-0.795753,-0.339819
-1.034424,0.064453,-0.033081,0.572047,-0.608266,-0.371777
-0.883667,0.085693,-0.004761,0.581635,-0.335558,-0.381365
-0.772461,0.129761,0.013550,0.548611,-0.085221,-0.361125
-0.698730,0.156006,0.019043,0.481500,0.085221,-0.273773
-0.700073,0.168823,0.014038,0.336624,0.139550,-0.091613
-0.738770,0.159424,-0.004883,0.197074,0.085221,-0.033023
-0.821533,0.148071,-0.007324,0.093743,-0.072438,-0.265251
-0.866455,0.192139,-0.011230,-0.025566,-0.223706,-0.227967
-0.953003,0.164917,-0.008179,-0.068177,-0.360060,-0.186421
-0.997803,0.137085,0.002197,-0.022371,-0.425041,-0.189617
-0.982056,0.079224,0.021118,0.178964,-0.400540,-0.514523
-1.009399,0.185791,0.041016,0.361125,-0.301470,-0.355798
-1.006104,0.187256,0.065796,0.529437,-0.196009,-0.286556
-0.984375,0.221558,0.073730,0.647681,-0.095874,-0.129962
-0.901245,0.231812,0.132202,0.626376,-0.014914,-0.002131
-0.861084,0.179077,0.156128,0.637028,0.067112,0.057524
-0.826172,0.150879,0.150269,0.693487,0.108657,0.103331
-0.799316,0.156250,0.141968,0.672182,0.124636,0.115049
-0.805420,0.185303,0.147827,0.558199,0.117179,0.086286
-0.842407,0.222046,0.139160,0.350472,0.098004,0.087352
-0.855103,0.216431,0.134399,0.125701,0.078830,0.075634
-0.848022,0.162109,0.140625,-0.019175,0.077764,-0.024501
-0.869507,0.144775,0.135498,-0.047937,0.134223,-0.058590
-0.864014,0.146240,0.130615,-0.094809,0.292948,-0.137419
-0.956543,0.125610,0.115112,-0.134223,0.371777,-0.166181
-0.931152,0.059326,0.119995,0.080960,0.404801,-0.251403
-0.952515,0.106445,0.126587,0.274838,0.449542,-0.307862
-1.047607,0.151367,0.144775,0.398409,0.467651,-0.250337
-1.092773,0.159180,0.130615,0.572047,0.422910,-0.128897