ax,ay,az,gx,gy,gz
-0.660156,0.133057,-0.082520,0.251403,0.549677,0.343015
-0.615112,0.219360,0.072754,0.245011,1.162204,0.306796
-0.659790,0.352417,0.312988,0.250337,1.707620,0.313188
-0.742920,0.332520,0.361816,-0.236489,1.866344,0.258859
-0.801880,0.283203,0.288574,-1.018393,1.678857,0.136354
-0.859253,0.194824,0.247681,-1.499893,1.421063,0.281230
-0.853638,0.061401,0.290405,-1.617072,1.165400,0.370712
-0.945923,-0.382324,0.579224,-0.627441,0.831972,0.564590
-1.069336,-0.560303,0.827637,0.550742,0.358994,0.355798
-1.161865,-0.317871,0.917480,0.650877,-0.219445,-0.086286
-1.004883,-0.281250,0.619751,1.160073,-0.248207,0.057524
-0.900391,-0.149170,0.445435,1.552091,-0.066046,0.040480
-0.960693,0.012939,0.295776,1.847169,-0.085221,-0.044741
-0.953491,0.081421,0.184448,2.257296,-0.180030,-0.089482
-0.970215,0.174438,0.118408,2.461827,-0.230097,-0.170442
-1.007080,0.256470,0.032471,2.151835,-0.347276,-0.235424
-0.997437,0.229126,-0.000122,1.765144,-0.515588,-0.300405
-0.947998,0.234009,-0.020874,1.409345,-0.575243,-0.426106
-0.896118,0.249512,-0.003662,1.075917,-0.453803,-0.537959
-0.869507,0.213257,0.038818,0.917193,-0.072438,-0.730772
-0.929077,0.188843,0.071655,0.915063,0.219445,-0.858603
-1.014038,0.220093,0.061035,0.846886,0.486826,-0.982174
-1.137695,0.295166,0.084717,0.651942,0.742490,-1.084440
-1.292725,0.403687,0.152100,0.361125,0.999218,-1.177118
-1.452515,0.561035,0.233887,-0.101200,1.252751,-1.229316
-1.560303,0.715332,0.257813,-0.728641,1.339038,-1.162204
-1.528320,0.753906,0.222900,-1.429585,1.145160,-0.866060
-1.372437,0.623413,0.172363,-2.049570,0.777643,-0.508131
-1.140137,0.434570,0.138184,-2.367018,0.486826,0.051133
-0.953125,0.183228,0.108154,-2.199772,0.224771,0.364321
-0.879883,0.079468,0.112915,-1.812016,0.056459,0.524110
-0.947144,0.089600,0.117676,-1.477522,-0.170442,0.564590
-1.020508,0.119385,0.120239,-1.253817,-0.496413,0.597614
-1.088257,0.151733,0.110962,-1.132377,-0.857538,0.670052
-1.150269,0.171143,0.100708,-1.064200,-1.215467,0.742490
-1.159058,0.171265,0.062744,-1.010936,-1.487110,0.823450
-1.111938,0.134888,0.016968,-0.904410,-1.556352,0.863930
-1.102661,0.100830,-0.012939,-0.692422,-1.505219,0.830907
-1.135254,0.085083,-0.019897,-0.225836,-1.265535,0.768056
-1.140991,0.085937,-0.001221,0.152333,-0.880974,0.727576
-1.114136,0.070068,-0.036743,0.515588,-0.525176,0.777643
-1.111816,0.010010,-0.107544,0.835168,-0.402670,0.823450
-1.069092,0.012573,-0.162476,1.067395,-0.456999,0.842625
-1.018066,0.043213,-0.191406,1.232512,-0.527306,0.934237
-0.985229,0.056152,-0.190308,1.339038,-0.590157,1.021589
-0.964233,0.072632,-0.161499,1.336907,-0.633833,1.049286
-0.946167,0.084473,-0.138184,1.219728,-0.667921,1.043960
-0.919556,0.088501,-0.080322,0.988566,-0.683900,1.035437
-0.906494,0.073120,-0.036865,0.658334,-0.736098,0.985370
-0.869385,0.057129,-0.015747,0.506001,-0.735033,0.903345
-0.830688,0.028564,0.010986,0.443150,-0.675378,0.761664
-0.802490,0.003906,0.041260,0.475108,-0.539024,0.563525
-0.772095,-0.015259,0.064087,0.610397,-0.307862,0.313188
-0.750977,-0.017456,0.059448,0.791492,-0.025566,0.037284
-0.768677,0.000977,0.023437,0.889496,0.247141,-0.207727
-0.797974,-0.000977,-0.023560,0.858603,0.411192,-0.414388
-0.811035,-0.032471,-0.055298,0.776578,0.486826,-0.637028
-0.836792,-0.060547,-0.052490,0.782970,0.560329,-1.115332
-0.938232,-0.060791,-0.026978,0.924650,0.567786,-1.480718
-1.034058,-0.048218,-0.002930,1.213337,0.515588,-1.821603
-1.124878,0.021851,0.002075,1.476457,0.422910,-2.126269
-1.213745,0.142700,-0.007690,1.602158,0.315318,-2.304168
-1.294922,0.236450,-0.012451,1.701228,0.218379,-2.348909
-1.286255,0.334106,-0.011230,2.136921,0.265251,-2.230665
-1.273560,0.487183,-0.081543,2.632270,0.441020,-2.012285
-1.334961,0.697754,-0.196533,2.672750,0.594418,-1.796037
-1.450562,0.816650,-0.262207,2.483132,0.674313,-1.333712
-1.595093,0.847412,-0.239136,2.076201,0.582700,-1.148355
-1.602417,0.884766,-0.223022,1.699098,0.350472,-1.010936
-1.377319,0.838257,-0.164307,1.226120,0.086286,-0.794688
-1.023804,0.624512,-0.078979,0.939564,-0.143811,-0.439954
-0.687134,0.390381,-0.019043,0.947020,-0.209857,-0.091613
-0.542114,0.243164,0.024658,1.124920,-0.124636,-0.041545
-0.611084,0.270996,0.035400,1.282579,-0.133158,-0.156594
-0.748047,0.367065,0.068726,1.257013,-0.278034,-0.074569
-0.862549,0.401367,0.110840,1.076983,-0.551807,0.105461
-0.907593,0.388184,0.108765,0.635963,-0.792557,0.232228
-0.931885,0.356689,0.114624,0.248207,-0.804275,0.263120
-0.931763,0.338013,0.103516,-0.128897,-0.676443,0.281230
-0.939087,0.331665,0.101563,-0.486826,-0.458064,0.282295
-0.974487,0.309814,0.099243,-0.804275,-0.214118,0.366451
-1.009644,0.261597,0.099487,-1.052482,-0.007457,0.482565
-1.017822,0.187744,0.089844,-1.172857,0.115049,0.615723
-0.994629,0.105347,0.076538,-1.151551,0.143811,0.728641
-0.953003,0.060181,0.062378,-1.061004,0.113983,0.776578
-0.935791,0.027344,0.063843,-0.962999,0.060720,0.763795
-0.938477,0.017944,0.091187,-0.825580,-0.009587,0.704140
-0.946899,-0.006958,0.095093,-0.629572,-0.028762,0.647681
-0.965210,-0.037842,0.087524,-0.262055,-0.017044,0.582700
-1.001953,0.005493,0.068848,0.002131,-0.011718,0.454868
-1.043457,0.072266,0.054565,0.018110,-0.030893,0.330232
-1.048218,0.093872,0.044312,-0.139550,-0.044741,0.248207
-1.036621,0.132080,0.045166,-0.413323,-0.028762,0.174703
-1.000366,0.144775,0.046631,-0.712662,0.011718,0.138484
-0.951538,0.138062,0.034180,-0.978978,0.067112,0.121440
-0.908081,0.118896,0.029053,-1.255947,0.160855,0.101200
-0.854004,0.087280,0.042236,-1.349691,0.214118,0.078830
-0.823608,0.069336,0.051758,-1.362474,0.255664,0.041545
-0.795288,0.042847,0.057129,-1.252751,0.286556,-0.013848
-0.792358,0.028442,0.064941,-1.062069,0.313188,-0.117179
-0.819580,0.043945,0.078613,-0.843690,0.340885,-0.230097
-0.866699,0.069946,0.081909,-0.647681,0.354733,-0.334493
-0.924805,0.102417,0.077271,-0.514523,0.347276,-0.412258
-1.003906,0.117188,0.066895,-0.396279,0.300405,-0.444215
-1.051636,0.089355,0.023315,-0.268447,0.222640,-0.439954
-1.272583,0.091431,-0.050659,-0.054329,0.028762,-0.373908
-1.277710,0.141357,-0.061523,0.011718,-0.062851,-0.323841
-1.322998,0.191162,-0.050537,-0.070307,-0.102265,-0.285491
-1.320679,0.220215,-0.036011,-0.262055,0.013848,-0.284426
-1.302612,0.262085,-0.009277,-0.513458,0.201335,-0.242880
-1.221680,0.291382,0.014160,-0.787231,0.329167,-0.108657
-1.074707,0.295288,0.030884,-1.025850,0.395213,0.058590
-0.907349,0.263672,0.039185,-1.188836,0.416519,0.253533
-0.805908,0.189941,0.035400,-1.230381,0.405866,0.415453
-0.845459,0.113159,0.040894,-1.105745,0.286556,0.472978
-1.042358,0.048096,0.052124,-0.953412,0.106526,0.551807
-1.137695,-0.006348,0.022827,-0.738229,-0.160855,0.524110
-1.221558,0.021118,-0.033203,-0.526241,-0.460194,0.622115
-1.265747,0.005859,-0.070801,-0.380300,-0.743555,0.648746
-1.278320,0.023560,-0.082642,-0.269512,-0.948086,0.647681
-1.232544,0.031006,-0.086914,-0.135289,-1.035437,0.693487
-1.167480,0.042969,-0.080933,0.012783,-0.975783,0.741424
-1.102905,0.022949,-0.065674,0.174703,-0.803210,0.812797
-1.005859,-0.030518,-0.050781,0.357929,-0.453803,0.899084
-0.885376,-0.002319,-0.026001,0.617854,-0.233293,0.863930
-0.884766,0.041016,-0.012451,0.644485,-0.091613,0.786165
-0.892334,0.094238,-0.006348,0.524110,-0.054329,0.719054
-0.863525,0.109863,-0.015137,0.278034,-0.103331,0.646616
-0.857666,0.116455,-0.025391,0.006392,-0.203466,0.509197
-0.843750,0.119629,-0.031372,-0.241815,-0.287622,0.532632
-0.856689,0.057251,-0.034058,-0.382430,-0.338754,0.428236
-0.858643,0.040161,-0.023437,-0.410127,-0.323841,0.263120
-0.854614,0.036621,-0.005615,-0.355798,-0.237554,0.131028
-0.852539,0.057495,0.011475,-0.256729,-0.101200,-0.014914
-0.847046,0.061279,0.015503,-0.230097,-0.053263,-0.173638
-0.874878,0.066162,0.014404,-0.166181,-0.031958,-0.290817
-0.927124,0.062134,0.019775,-0.111853,-0.060720,-0.436759
-0.999146,0.051636,0.026123,-0.042611,-0.094809,-0.575243
-1.072632,0.052856,0.031738,0.101200,-0.122505,-0.691357
-1.137695,0.042480,0.033936,0.270577,-0.158724,-0.803210
-1.218750,0.031860,0.036621,0.497479,-0.189617,-0.909736
-1.255737,0.032471,0.024780,0.772317,-0.217314,-0.907606
-1.304443,-0.022339,-0.002563,1.140899,-0.265251,-1.070591
-1.446533,-0.027832,-0.015503,1.875932,-0.273773,-1.162204
-1.443481,0.003418,0.007080,2.353170,-0.227967,-1.253817
-1.351074,0.068604,0.027832,2.697251,-0.140615,-1.309211
-1.208740,0.142944,0.061523,2.846388,-0.026632,-1.316667
-1.066528,0.215820,0.107666,2.810169,0.072438,-1.268731
-0.922363,0.282837,0.144775,2.633335,0.112918,-1.160073
-0.790771,0.332153,0.130493,2.347844,0.067112,-0.992827
-0.751953,0.328735,0.089722,1.924934,-0.027697,-0.882039
-0.793213,0.301636,0.062866,1.464739,-0.132093,-0.838363
-0.871460,0.288086,0.064331,0.884170,-0.304666,-0.770186
-0.985352,0.253174,0.084717,0.645550,-0.442085,-0.698814
-1.005493,0.206177,0.081055,0.542220,-0.527306,-0.626376
-1.006836,0.151855,0.066528,0.626376,-0.551807,-0.524110
-0.995972,0.111816,0.046143,0.887366,-0.526241,-0.427171
-0.970947,0.104980,0.029663,1.245295,-0.451672,-0.302535
-0.913696,0.093140,0.027710,1.618137,-0.323841,-0.160855
-0.844482,0.104492,0.040649,1.925999,-0.147007,-0.027697
-0.786499,0.123169,0.066772,2.130530,0.037284,0.134223
-0.748413,0.138184,0.078125,2.217881,0.221575,0.300405
-0.739502,0.158081,0.100708,2.060222,0.292948,0.339819
-0.757935,0.176025,0.175903,1.785384,0.396279,0.344081
-0.797852,0.150391,0.284790,1.421063,0.539024,0.335558
-0.849731,0.042236,0.318970,1.176052,0.573112,0.294013
-0.849121,-0.012573,0.328369,1.113202,0.549677,0.238619
-0.836060,-0.002930,0.349609,1.121724,0.518784,0.148072
-0.855957,0.039673,0.375000,1.099353,0.511327,0.017044
-0.907837,0.087646,0.390991,0.973652,0.492152,-0.116114
-0.962402,0.117188,0.388306,0.795753,0.430367,-0.209857
-0.997437,0.118408,0.355957,0.551807,0.248207,-0.311057
-1.034912,0.083496,0.274048,0.515588,0.099070,-0.366451
-1.048462,0.083008,0.225952,0.611462,-0.058590,-0.401605
-1.076782,0.100830,0.187378,0.768056,-0.200270,-0.418649
-1.127808,0.122925,0.137939,0.929976,-0.320645,-0.407996
-1.237305,0.152222,0.102661,1.033307,-0.363255,-0.435693
-1.371948,0.236084,0.138428,1.006675,-0.281230,-0.462325
-1.400513,0.336914,0.202881,0.910801,-0.115049,-0.389887
-1.304443,0.394897,0.193359,0.771252,0.018110,-0.234358
-1.150879,0.422607,0.147705,0.532632,0.094809,0.136354
-0.949829,0.340942,0.107910,0.111853,0.093743,0.427171
-0.915771,0.231079,0.125610,-0.018110,0.068177,0.670052
-0.923828,0.171021,0.145508,0.013848,-0.008522,0.844755
-0.962769,0.150513,0.133179,0.091613,-0.150202,0.932107
-1.054443,0.121948,0.109009,0.199205,-0.358994,0.992827
-1.131470,0.093384,0.072388,0.335558,-0.633833,1.075917
-1.163818,0.061035,0.027832,0.463390,-0.899084,1.178183
-1.204834,0.015381,-0.002686,0.597614,-1.088701,1.242099
-1.270142,-0.023804,-0.013794,0.802144,-1.205880,1.264469
-1.270996,-0.028564,-0.027710,1.168596,-1.213337,1.298558
-1.207153,-0.005005,-0.021729,1.302819,-1.088701,1.267665
-1.141602,0.019531,0.064575,1.304950,-0.818123,1.227185
-1.062378,0.026855,0.159790,1.222924,-0.495348,1.183509
-1.018555,0.011841,0.144531,1.131311,-0.325971,1.100419
-0.974731,0.004150,0.109985,0.990696,-0.334493,1.003479
-0.912476,-0.011597,0.093018,0.895888,-0.433563,0.883105
-0.858643,-0.022705,0.089600,0.824515,-0.545416,0.697748
-0.823242,-0.035156,0.099609,0.776578,-0.629572,0.469782
-0.783813,-0.045166,0.110718,0.774448,-0.654073,0.131028
-0.722046,-0.064087,0.101563,0.880974,-0.614658,-0.139550
-0.708130,-0.053589,0.076660,1.007741,-0.556068,-0.437824
-0.720703,-0.031250,0.046265,1.140899,-0.509197,-0.754208
-0.758057,-0.008057,0.017944,1.318798,-0.482565,-1.054612
-0.826172,0.011108,-0.003418,1.629855,-0.498544,-1.340103
-0.910156,0.016724,-0.037476,2.144378,-0.509197,-1.576592
-1.023193,0.111938,-0.074951,2.473545,-0.497479,-1.706554
-1.139893,0.183960,-0.077515,2.519351,-0.471912,-1.794971
-1.248901,0.267456,-0.068359,2.435195,-0.433563,-1.862083
-1.320313,0.387817,-0.078613,1.978197,-0.433563,-1.845039
-1.348267,0.484619,-0.117432,1.518003,-0.520915,-1.770470
-1.326904,0.473267,-0.135010,1.079113,-0.606136,-1.620268
-1.344727,0.403320,-0.141724,0.756338,-0.631702,-1.444499
-1.451782,0.306152,-0.132812,0.667921,-0.626376,-1.282579
-1.475220,0.254883,-0.106323,0.834102,-0.569917,-1.091897
-1.378662,0.236694,-0.101196,1.104680,-0.460194,-0.925715
-1.265015,0.296265,-0.115967,1.189901,-0.295078,-0.815993
-1.199341,0.329102,-0.124023,1.084440,-0.108657,-0.673247
-1.105591,0.354248,-0.114868,0.793622,0.158724,-0.435693
-0.846436,0.367432,-0.086792,0.086286,0.303600,-0.242880
-0.740723,0.298340,-0.074219,-0.316384,0.406931,-0.050067
-0.753540,0.192261,-0.059082,-0.520915,0.474043,0.078830
-0.802002,0.111450,-0.023193,-0.529437,0.499609,0.151268
-0.810913,0.036133,0.019409,-0.344081,0.498544,0.159790
-0.795288,-0.021606,0.056274,0.013848,0.500674,0.086286
-0.792969,-0.054321,0.082031,0.490022,0.499609,-0.055394
-0.781738,-0.047974,0.090454,1.007741,0.460194,-0.249272
-0.762939,-0.012939,0.079956,1.465804,0.373908,-0.450607
-0.767700,0.033691,0.105347,1.872736,0.241815,-0.703075
-0.853516,0.089355,0.202637,1.978197,0.232228,-0.788296
-0.940430,0.059082,0.229126,2.157161,0.154463,-0.743555
-0.996582,-0.002197,0.155273,2.530004,-0.066046,-0.681770
-0.982544,-0.026611,0.072388,3.038136,-0.319579,-0.553938
-0.918091,0.017944,0.084351,3.453589,-0.423975,-0.365386
-0.882568,0.084473,0.173828,3.714579,-0.327036,-0.145941
-0.892822,0.172974,0.274780,3.710318,-0.057524,0.039415
-0.935913,0.248413,0.342163,3.382216,0.223706,0.157659
-0.972046,0.278442,0.363281,2.189119,0.284426,0.216249
-0.951172,0.220703,0.275024,1.810950,0.124636,0.199205
-0.915649,0.166748,0.218262,1.433846,-0.013848,0.142745
-0.933105,0.120728,0.197021,1.232512,-0.132093,0.008522
-0.994751,0.113892,0.251709,1.104680,-0.215184,-0.175769
-1.043701,0.131104,0.265869,1.042894,-0.316384,-0.331297
-1.045898,0.172241,0.254517,1.003479,-0.343015,-0.413323
-1.023071,0.227905,0.221924,0.921454,-0.289752,-0.481500
-1.002930,0.286133,0.192017,0.755273,-0.186421,-0.479369
-1.003906,0.298096,0.148682,0.526241,-0.084156,-0.411192
-1.047729,0.266479,0.105347,0.186421,0.078830,-0.278034
-1.223389,0.213257,0.125488,0.038350,0.216249,-0.210922
-1.348633,0.220459,0.168335,-0.019175,0.353668,-0.149137
-1.407471,0.267212,0.180664,-0.093743,0.449542,-0.080960
-1.384277,0.326050,0.154785,-0.282295,0.449542,-0.009587
-1.308105,0.374268,0.112671,-0.612527,0.355798,0.077764
-1.190918,0.371460,0.085937,-0.999218,0.218379,0.258859
-1.029663,0.312500,0.078247,-1.323059,0.110788,0.497479
-0.916260,0.236084,0.077881,-1.507350,0.061785,0.708401
-0.880981,0.177002,0.093140,-1.539308,-0.010653,0.924650
-0.876587,0.133911,0.102173,-1.484979,-0.084156,0.994957
-0.901367,0.133545,0.084106,-1.473261,-0.180030,0.999218
-0.970093,0.139038,0.056274,-1.552091,-0.304666,0.958738
-1.051025,0.146851,0.045776,-1.706554,-0.443150,0.872452
-1.111084,0.161377,0.044800,-1.895106,-0.566721,0.781904
-1.163086,0.145020,0.047363,-2.020808,-0.658334,0.675378
-1.217773,0.113525,0.032349,-2.020808,-0.732902,0.575243
-1.273682,0.070557,-0.009888,-1.859952,-0.846886,0.516653
-1.322876,0.019287,-0.045288,-1.500958,-1.002414,0.499609
-1.321899,-0.019287,-0.054810,-0.629572,-1.214402,0.594418
-1.238770,-0.066406,-0.050171,0.082025,-1.265535,0.728641
-1.141602,-0.072754,-0.055420,0.798949,-1.217598,0.903345
-1.045288,-0.055054,-0.067505,1.400823,-1.110006,1.070591
-0.952881,-0.026245,-0.077271,1.857822,-0.973652,1.209076
-0.846924,0.032471,-0.081543,2.081527,-0.811732,1.300688
-0.782104,0.086182,-0.089844,2.066614,-0.647681,1.319863
-0.749512,0.128784,-0.078125,1.826929,-0.485761,1.272992
-0.715332,0.161011,-0.050537,1.409345,-0.314253,1.186705
-0.690552,0.175781,-0.023071,0.578439,-0.061785,0.960869
-0.671143,0.150269,0.005615,0.008522,0.090548,0.753142
-0.672974,0.104858,0.013184,-0.470847,0.223706,0.496413
-0.704956,0.046509,0.022339,-0.788296,0.333428,0.187487
-0.756714,0.008667,0.044312,-0.960869,0.438889,-0.154463
-0.831543,-0.015747,0.086548,-1.001349,0.551807,-0.515588
-0.926758,-0.029907,0.119263,-0.916128,0.637028,-0.841559
-1.019653,-0.041504,0.125977,-0.724380,0.660464,-1.121724
-1.112671,-0.048584,0.110474,-0.442085,0.607201,-1.369931
-1.215820,-0.045166,0.080811,-0.113983,0.500674,-1.859952
-1.353149,-0.005127,0.098511,0.234358,0.393083,-1.856757
-1.527222,0.115356,0.151855,0.363255,0.448477,-1.901498
-1.519775,0.193237,0.225586,0.317449,0.615723,-1.848235
-1.410889,0.212646,0.304443,0.223706,0.835168,-1.666074
-1.291870,0.172119,0.357788,0.246076,0.991762,-1.408280
-1.146851,0.156616,0.369385,0.422910,0.953412,-1.088701
-0.972290,0.138428,0.335571,0.567786,0.691357,-0.857538
-0.832275,0.124512,0.223022,0.645550,0.356864,-0.794688
-0.788818,0.111206,0.110596,0.688161,0.095874,-0.732902
-0.824097,0.096191,0.043701,0.752077,-0.220510,-0.595483
-0.938965,0.108887,0.039063,0.775513,-0.482565,-0.516653
-1.030884,0.126221,0.066895,0.841559,-0.798949,-0.472978
-1.102173,0.122925,0.087402,1.000284,-1.073787,-0.378169
-1.074097,0.116211,0.073730,1.358213,-1.059939,-0.357929
-1.015381,0.117188,0.049805,1.833321,-0.883105,-0.377104
-0.979858,0.117432,0.010498,2.305233,-0.645550,-0.377104
-0.927856,0.120117,-0.022217,2.694055,-0.399474,-0.322775
-0.855469,0.132935,-0.037598,2.967828,-0.181095,-0.200270
-0.787598,0.160645,-0.039307,3.121226,0.003196,0.211988
-0.738525,0.200562,-0.009521,3.062637,0.225836,0.127832
-0.720703,0.255981,0.020508,2.799516,0.330232,0.188552
-0.733521,0.300537,0.037598,2.320147,0.390952,0.174703
-0.747070,0.337646,0.078979,1.647965,0.441020,0.139550
-0.774658,0.349976,0.149536,0.860734,0.530502,0.057524
-0.824463,0.314941,0.220947,0.134223,0.653007,-0.038350
-0.870239,0.261475,0.271118,-0.456999,0.797883,-0.141680
-0.904907,0.194458,0.308960,-0.849016,0.926780,-0.236489
-0.932983,0.127319,0.331299,-1.003479,1.005610,-0.329167
-0.952759,0.091797,0.341797,-0.915063,0.947020,-0.430367
-0.988770,0.024292,0.353394,-0.694553,0.851147,-0.461260
-1.020386,0.072998,0.339966,-0.542220,0.797883,-0.531567
-1.075928,0.129028,0.314209,-0.533698,0.697748,-0.573112
-1.108765,0.152100,0.290894,-0.563525,0.514523,-0.575243
-1.101929,0.175415,0.248657,-0.556068,0.317449,-0.546481
-1.111084,0.197266,0.193726,-0.548611,0.154463,-0.477239
-1.200195,0.211670,0.177368,-0.569917,0.025566,-0.441020
-1.341064,0.247070,0.192627,-0.611462,-0.089482,-0.294013
-1.480103,0.230957,0.221191,-0.671117,-0.140615,-0.171508
-1.551636,0.203369,0.221313,-0.437824,-0.206661,0.186421
-1.367798,0.145874,0.113403,-0.107592,-0.330232,0.444215
-1.265015,0.136841,0.046509,0.095874,-0.418649,0.607201
-1.182739,0.122681,0.076660,0.268447,-0.483630,0.803210
-1.023926,0.118164,0.127930,0.397344,-0.471912,1.005610
-0.868042,0.124268,0.139893,0.463390,-0.407996,1.151551
-0.782959,0.138916,0.125854,0.442085,-0.352603,1.197358
-0.769287,0.167358,0.102661,0.309992,-0.349407,1.184575
-0.796265,0.186890,0.070679,0.063916,-0.406931,1.127050
-0.872437,0.195190,0.042236,-0.506001,-0.584830,0.904410
-1.038086,0.197754,-0.002075,-0.936368,-0.741424,0.704140
-1.147461,0.186768,-0.028198,-1.346495,-0.893757,0.468717
-1.215454,0.174683,-0.053345,-1.673531,-0.992827,0.252468
-1.239868,0.156494,-0.069092,-1.859952,-1.015197,0.083091
-1.244629,0.141846,-0.082031,-1.861018,-0.976848,-0.012783
-1.244507,0.107544,-0.074463,-1.639443,-0.878844,-0.035154
-1.208252,0.049072,-0.057617,-1.188836,-0.798949,0.059655
-1.121948,-0.025879,-0.051025,-0.506001,-0.749946,0.262055
-1.018433,-0.083008,-0.064331,0.319579,-0.724380,0.774448
-0.930908,-0.095093,-0.100708,1.497762,-0.671117,0.839429
-0.848389,-0.020752,-0.114746,2.084723,-0.619984,1.015197
-0.811768,0.039795,-0.117798,2.406433,-0.527306,1.141964
-0.778809,0.086060,-0.109863,2.485263,-0.393083,1.203749
-0.752686,0.083862,-0.083984,2.516156,-0.201335,1.211206
-0.744873,0.091919,-0.068481,2.514025,0.060720,1.014132
-0.715698,0.166626,-0.050415,2.341452,0.379234,0.691357
-0.726685,0.229980,-0.015381,1.819472,0.673247,0.381365
-0.790283,0.264282,0.002197,1.031176,0.864995,0.075634
-0.865479,0.299683,0.008911,-0.260990,0.901214,-0.324906
-0.973755,0.279419,0.025513,-0.929976,0.805340,-0.575243
-1.031616,0.208862,0.035278,-1.342234,0.646616,-0.797883
-1.062134,0.136597,0.044189,-1.540373,0.466586,-0.985370
-1.081421,0.074829,0.053589,-1.548895,0.291883,-1.116398
-1.125122,0.034790,0.049438,-1.451956,0.119310,-1.229316
-1.205933,0.001587,0.055542,-1.255947,-0.054329,-1.316667
-1.283325,-0.015747,0.070435,-0.968326,-0.214118,-1.385910
-1.361694,-0.031982,0.094238,-0.615723,-0.229032,-1.421063
-1.496948,-0.045044,0.155396,-0.194943,-0.108657,-1.493501
-1.521851,-0.023315,0.241211,0.543285,0.165116,-1.473261
-1.269409,0.028931,0.320068,1.026915,0.349407,-1.439173
-1.148682,0.055176,0.403809,1.458348,0.438889,-1.268731
-1.052002,0.045898,0.405518,1.941978,0.364321,-1.075917
-0.971680,0.045288,0.313721,2.282863,0.066046,-0.864995
-0.923828,0.025513,0.180786,2.411760,-0.298274,-0.810667
-0.910645,0.044189,0.079468,2.473545,-0.599744,-0.754208
-0.953003,0.094849,0.038818,2.490589,-0.868191,-0.667921
-0.989624,0.149902,0.019775,2.441587,-1.118528,-0.550742
-0.993042,0.183960,0.006348,2.333995,-1.317733,-0.397344
-0.936523,0.185059,-0.014526,2.324408,-1.249556,-0.363255
-0.897461,0.175537,-0.025757,2.338256,-1.062069,-0.356864
-0.853516,0.168335,-0.031494,2.351040,-0.807471,-0.343015
-0.803833,0.161255,-0.030762,2.344648,-0.523045,-0.329167
-0.759766,0.163574,-0.027100,2.307364,-0.249272,-0.335558
-0.723267,0.186768,-0.003418,2.184858,-0.007457,-0.340885
-0.699951,0.207031,0.023071,1.978197,0.165116,-0.368582
-0.683960,0.230835,0.038696,1.674596,0.274838,-0.409062
-0.674561,0.249634,0.063354,1.304950,0.348342,-0.497479
-0.687744,0.251221,0.146240,0.755273,0.491087,-0.544350
-0.737427,0.245728,0.191162,0.438889,0.590157,-0.565656
-0.762695,0.229248,0.200928,0.203466,0.647681,-0.573112
-0.773682,0.215820,0.213989,0.029827,0.696683,-0.553938
-0.802002,0.204956,0.247559,-0.100135,0.775513,-0.514523
-0.885132,0.197754,0.289185,-0.216249,0.875648,-0.476173
-0.989624,0.214966,0.321411,-0.403735,0.965130,-0.441020
-1.093506,0.216919,0.341553,-0.650877,0.990696,-0.362190
-1.171997,0.167725,0.342163,-0.779774,0.895888,-0.238619
-1.208374,0.094116,0.306396,-0.575243,0.586961,-0.055394
-1.386841,0.015259,0.252075,-0.305731,0.384561,-0.007457
-1.549805,0.044800,0.307373,0.019175,0.125701,0.067112
-1.513184,0.097778,0.345825,0.366451,-0.100135,0.292948
-1.338379,0.091431,0.324219,0.702010,-0.217314,0.492152
-1.205566,0.130615,0.308350,0.906540,-0.191748,0.731837
-1.128540,0.091675,0.344482,1.024785,-0.118244,0.987501
-1.063599,0.047729,0.381470,1.165400,-0.068177,1.113202
-1.019409,0.046143,0.373657,1.259143,-0.093743,1.153682
-0.988037,0.073364,0.313477,1.272992,-0.200270,1.122789
-0.979980,0.167725,0.196899,1.000284,-0.458064,1.114267
-1.017822,0.217773,0.135498,0.600809,-0.695618,1.087635
-1.053345,0.226929,0.075806,0.076699,-0.974717,1.026915
-1.111572,0.198608,0.037354,-0.456999,-1.259143,0.910801
-1.166870,0.167236,0.008911,-0.895888,-1.470066,0.784035
-1.188599,0.135010,0.002075,-1.189901,-1.510546,0.657268
-1.190918,0.098267,0.007935,-1.293232,-1.406150,0.508131
-1.174683,0.077637,0.027344,-1.251686,-1.151551,0.407996
-1.150757,0.032471,0.044189,-1.065265,-0.859669,0.374973
-1.131958,-0.019531,0.061035,-0.499609,-0.527306,0.484696
-1.080444,-0.085937,0.053101,0.059655,-0.467651,0.607201
-1.027954,-0.114868,0.045044,0.673247,-0.512392,0.720119
-0.967651,-0.111206,0.037720,1.227185,-0.588026,0.812797
-0.919189,-0.076050,0.028687,1.642638,-0.672182,0.882039
-0.875610,-0.043579,0.029907,1.885519,-0.730772,0.908671
-0.825317,-0.015869,0.041626,1.975001,-0.720119,0.882039
-0.781250,0.001221,0.054077,2.011220,-0.584830,0.819189
-0.748047,0.040283,0.041870,1.907889,-0.362190,0.645550
-0.717529,0.064819,0.015137,1.623464,-0.131028,0.219445
-0.689453,-0.015381,-0.004761,1.139833,0.045806,-0.068177
-0.687866,-0.026367,-0.018921,0.890561,0.117179,-0.427171
-0.734375,-0.052979,-0.022461,0.756338,0.126767,-0.812797
-0.814575,-0.082764,-0.022339,0.738229,0.099070,-1.204815
-0.917969,-0.088135,-0.016113,0.808536,0.038350,-1.606419
-1.046143,-0.062134,0.000000,0.987501,-0.049002,-1.946239
-1.177979,-0.018433,0.015381,1.226120,-0.227967,-2.190185
-1.298584,0.057983,0.005615,1.410411,-0.438889,-2.338256
-1.418335,0.155273,-0.024048,1.453021,-0.674313,-2.550244
-1.535156,0.238525,-0.056885,1.358213,-0.803210,-2.749449
-1.722168,0.262817,-0.001343,1.541438,-0.714793,-2.764362
-1.703735,0.247314,0.041260,1.879127,-0.460194,-2.715360
-1.582031,0.251709,0.073853,2.245578,-0.098004,-2.579006
-1.442261,0.269043,0.118774,2.569419,0.306796,-2.345713
-1.304199,0.306885,0.160156,2.821887,0.616788,-2.037852
-1.159058,0.349243,0.161743,2.946523,0.696683,-1.678857
-1.005005,0.372437,0.105713,2.929478,0.511327,-1.263404
-0.863892,0.351929,0.026001,2.724947,0.204531,-0.934237
-0.796509,0.324219,-0.040039,2.443718,-0.013848,-0.686031
-0.827515,0.353394,-0.033569,2.002698,-0.268447,-0.481500
-0.895630,0.359009,-0.017212,1.716142,-0.503870,-0.296144
-0.900757,0.341064,-0.025269,1.483914,-0.741424,-0.140615
-0.909912,0.302246,-0.035889,1.331581,-0.918258,-0.013848
-0.905518,0.246216,-0.036133,1.314537,-0.899084,0.062851
-0.882202,0.198853,0.001953,1.443434,-0.699879,0.117179
-0.838989,0.175049,0.038208,1.659683,-0.393083,0.186421
-0.794434,0.159180,0.057251,1.886584,-0.057524,0.268447
-0.748413,0.149780,0.080322,2.046374,0.245011,0.365386
-0.721313,0.126953,0.136719,2.109225,0.586961,0.502805
-0.736572,0.092163,0.211914,2.098572,0.648746,0.582700
-0.733398,0.088501,0.171875,2.020808,0.582700,0.556068
-0.726318,0.128662,0.176392,1.812016,0.574178,0.544350
-0.753906,0.147339,0.248901,1.469000,0.618919,0.465521
-0.807495,0.171997,0.332397,1.039698,0.673247,0.303600
-0.840088,0.184326,0.427612,0.557134,0.781904,0.156594
-0.860352,0.134766,0.498779,0.145941,0.901214,0.042611
-0.867187,0.055542,0.505127,-0.058590,0.935303,-0.061785
-0.875122,-0.018433,0.481812,-0.028762,0.904410,-0.220510
-0.896851,-0.135254,0.458252,0.511327,0.736098,-0.334493
-0.944458,-0.103760,0.422241,1.095092,0.570982,-0.496413
-0.978882,0.086426,0.348999,1.336907,0.377104,-0.621049
-0.989868,0.218140,0.241089,1.194162,0.255664,-0.657268
-1.044189,0.262329,0.185791,1.051416,0.162986,-0.724380
-1.222778,0.283203,0.180298,1.021589,0.089482,-0.812797
-1.443359,0.382446,0.201538,0.830907,0.066046,-0.820254
-1.592529,0.462891,0.244629,0.436759,0.144876,-0.704140
-1.615479,0.489258,0.259277,0.109722,0.198139,-0.461260
-1.493164,0.456543,0.199585,-0.162986,0.110788,0.057524
-1.211792,0.312256,0.152344,-0.247141,0.120375,0.414388
-1.050659,0.196533,0.206421,-0.154463,0.158724,0.715858
-0.982666,0.139893,0.239380,0.082025,0.125701,0.955543
-0.898926,0.137573,0.216919,0.301470,0.027697,1.108941
-0.863770,0.134033,0.193359,0.378169,-0.068177,1.125985
-0.922485,0.173950,0.113647,0.302535,-0.307862,1.053547
-0.902100,0.218384,0.067505,0.101200,-0.441020,1.105745
-1.024536,0.209351,0.051514,-0.211988,-0.709466,1.085505
-1.191284,0.158813,0.048462,-0.559264,-1.303884,0.786165
-1.312134,0.089722,0.033936,-0.748881,-1.244229,0.678574
-1.288452,0.050781,-0.006104,-0.634898,-1.228250,0.555003
-1.236084,0.033569,-0.047363,-0.335558,-1.163269,0.482565
-1.164063,0.031738,-0.078979,0.059655,-1.057808,0.452738
-1.096069,0.035400,-0.082153,0.452738,-0.925715,0.498544
-1.025635,0.039795,-0.067871,0.784035,-0.754208,0.610397
-0.952881,0.048950,-0.047241,1.016263,-0.551807,0.730772
-0.905518,0.062012,-0.045898,1.209076,-0.390952,0.828776
-0.887573,0.084595,-0.068848,1.306015,-0.324906,0.873517
-0.883911,0.124023,-0.093506,1.098288,-0.386691,0.795753
-0.861572,0.208130,-0.052612,0.708401,-0.430367,0.678574
-0.854248,0.194946,-0.026733,0.200270,-0.415453,0.581635
-0.813843,0.150757,-0.007813,-0.308927,-0.307862,0.492152
-0.766724,0.079346,0.012817,-0.633833,-0.124636,0.380300
-0.731812,0.016724,0.034424,-0.725445,0.106526,0.219445
-0.710937,-0.027832,0.056152,-0.612527,0.334493,0.009587
-0.707153,-0.053223,0.065552,-0.369647,0.515588,-0.185356
-0.728027,-0.047485,0.073608,-0.090548,0.617854,-0.409062
-0.774536,-0.024414,0.081787,0.151268,0.642355,-0.758469
-0.901733,0.009888,0.096069,0.461260,0.601875,-0.997088
-0.974976,0.034668,0.098999,0.627441,0.518784,-1.214402
-1.096680,0.068115,0.087158,0.778709,0.371777,-1.431716
-1.210327,0.112427,0.065918,0.840494,0.200270,-1.635182
-1.296021,0.135986,0.052246,0.855408,0.076699,-1.786449
-1.356323,0.147339,0.041260,0.884170,0.008522,-1.866344
-1.401855,0.152466,0.041992,0.994957,0.015979,-1.845039
-1.316162,0.137085,0.032349,1.222924,0.083091,-1.777927
-1.281738,0.124268,0.028931,1.584049,0.182160,-1.667140
-1.231445,0.023682,0.036743,2.234926,0.360060,-1.732121
-1.230469,0.119629,0.028320,2.612030,0.418649,-1.581918
-1.219482,0.121704,-0.011230,2.858106,0.308927,-1.352886
-1.273438,0.089600,-0.070801,3.286342,0.026632,-1.159008
-1.391113,0.226562,-0.108643,4.426176,-0.136354,-0.938498
-1.467407,0.505371,-0.187866,5.642708,-0.229032,-0.687096
-1.390869,0.884155,-0.246826,5.902633,-0.298274,-0.577374
-1.177856,1.144897,-0.232422,5.200623,-0.373908,-0.419714
-0.872314,1.208618,-0.177368,4.000070,-0.403735,-0.136354
-0.618408,1.120728,-0.122192,2.721752,-0.291883,0.532632
-0.453491,0.619995,-0.039551,1.375257,-0.083091,0.780839
-0.479980,0.475830,0.004517,0.922519,0.175769,0.810667
-0.571533,0.445190,0.026001,0.573112,0.364321,0.751012
-0.687866,0.413330,0.027710,0.325971,0.430367,0.660464
-0.783569,0.418335,0.021606,0.142745,0.433563,0.533698
-0.900391,0.366577,0.004883,0.022371,0.405866,0.427171
-1.010498,0.300415,-0.016846,0.031958,0.360060,0.361125
-1.082275,0.308960,-0.017212,-0.003196,0.318514,0.325971
-1.104614,0.353027,-0.011963,-0.142745,0.314253,0.319579
-1.070557,0.359985,-0.004272,-0.672182,0.431432,0.441020
-1.013794,0.308960,0.006714,-1.107875,0.544350,0.579504
-1.032471,0.272949,0.007568,-1.551026,0.630637,0.681770
-1.085693,0.224854,0.020874,-1.988850,0.649812,0.747816
-1.124146,0.167603,0.040161,-2.332930,0.589091,0.770186
-1.100952,0.124146,0.038086,-2.620552,0.459129,0.762730
-1.063110,0.114136,0.010010,-2.943327,0.294013,0.721184
-1.054810,0.097168,-0.026489,-3.240536,0.104396,0.674313
-1.040771,0.092896,-0.059937,-3.479155,-0.079895,0.638094
-1.000122,0.041016,-0.067871,-3.632553,-0.233293,0.621049
-0.963745,0.039917,0.004761,-3.619770,-0.197074,0.577374
-0.983643,-0.002686,0.062622,-3.437610,-0.111853,0.573112
-0.949463,-0.139893,0.056152,-2.899651,-0.089482,0.651942
-0.867676,-0.253418,0.021240,-2.034656,-0.158724,0.674313
-0.808105,-0.253906,0.034790,-1.110006,-0.210922,0.584830
-0.822266,-0.206787,0.062378,-0.258859,-0.213053,0.503870
-0.856323,-0.155884,0.076172,0.415453,-0.155529,0.462325
-0.873657,-0.104492,0.073364,0.852212,-0.056459,0.410127
-0.924194,-0.043213,0.063599,1.062069,0.066046,0.297209
-1.000977,0.032715,0.063477,1.009871,0.230097,0.038350
-1.081299,0.118164,0.061401,0.807471,0.297209,-0.137419
-1.140747,0.138672,0.034180,0.519849,0.311057,-0.290817
-1.201172,0.133667,0.000732,0.253533,0.276969,-0.371777
-1.261475,0.120117,0.012329,0.029827,0.296144,-0.481500
-1.382080,0.089111,0.061401,-0.075634,0.364321,-0.811732
-1.364258,0.236572,0.101196,-0.182160,0.499609,-0.595483
-1.291504,0.212891,0.146362,-0.421845,0.601875,-0.573112
-1.105713,0.241821,0.191284,-0.638094,0.705205,-0.590157
-0.950439,0.230225,0.213623,-1.085505,0.739294,-0.515588
-0.920044,0.185791,0.203003,-0.962999,0.695618,-0.469782
-1.005493,0.146118,0.221558,-0.985370,0.588026,-0.443150
-1.095703,0.103027,0.202759,-0.900149,0.377104,-0.390952
-1.129272,0.070679,0.150146,-0.698814,0.085221,-0.318514
-1.119141,0.049683,0.075806,-0.449542,-0.259925,-0.186421
-1.104980,0.035645,0.029175,-0.178964,-0.600809,-0.119310
-1.107422,0.038330,0.011108,0.113983,-0.863930,-0.041545
-1.087891,0.059814,0.009521,0.406931,-0.993892,0.072438
-1.035156,0.073730,0.016968,0.675378,-0.953412,0.185356
-0.986450,0.095337,0.058105,0.980044,-0.674313,0.299339
-0.955322,0.135010,0.037842,1.090831,-0.461260,0.362190
-0.920532,0.151611,0.019897,1.104680,-0.311057,0.420780
-0.898315,0.158447,0.005005,0.975783,-0.278034,0.480434
-0.859375,0.169922,0.010986,0.749946,-0.297209,0.519849
-0.813354,0.196533,0.010254,0.506001,-0.278034,0.534763
-0.794067,0.168335,-0.005615,0.314253,-0.278034,0.482565
-0.799805,0.122314,-0.010254,0.225836,-0.279099,0.379234
-0.813599,0.097046,0.001343,0.209857,-0.252468,0.251403
-0.834351,0.084106,0.014282,0.231162,-0.182160,0.023436
-0.900146,0.073120,0.021729,0.318514,-0.166181,-0.142745
-0.923584,0.059082,0.016357,0.447411,-0.183226,-0.306796
-0.974243,0.068848,0.015625,0.590157,-0.208792,-0.450607
-0.977783,0.082031,0.015015,0.720119,-0.236489,-0.553938
-1.057617,0.066406,0.017090,0.857538,-0.242880,-0.721184
-1.122192,0.136719,0.007813,1.014132,-0.231162,-0.635963
-1.121826,0.106934,0.008545,1.128116,-0.227967,-0.651942
-1.097168,0.117310,0.003174,1.261274,-0.206661,-0.743555
-1.176392,0.125244,-0.015381,1.299623,-0.256729,-0.688161
-1.235352,0.113525,-0.025269,1.250621,-0.490022,-0.469782
-1.355103,0.173096,-0.016113,1.470066,-0.613593,-0.332363
-1.379395,0.280884,0.026001,1.692706,-0.572047,-0.348342
-1.400757,0.410156,0.128418,1.601093,-0.346211,-0.393083
-1.285522,0.374878,0.169678,1.350756,-0.131028,-0.402670
-1.107300,0.301636,0.134399,1.099353,-0.023436,-0.346211
-0.929565,0.213501,0.113647,1.033307,0.040480,-0.249272
-0.767334,0.153564,0.121948,1.204815,0.126767,-0.182160
-0.680542,0.128296,0.127441,1.497762,0.227967,-0.193878
-0.676880,0.099487,0.109985,2.071940,0.321710,-0.301470
-0.736816,0.056274,0.072021,2.080462,0.333428,-0.387756
-0.777832,0.065308,0.058228,2.079397,0.264186,-0.494283
-0.817627,0.031372,0.075195,2.196576,0.030893,-0.575243
-0.851929,0.082153,0.047363,2.253035,-0.211988,-0.684965
-0.904785,0.166138,0.053711,2.022938,-0.348342,-0.727576
-0.934937,0.138794,0.071045,1.835451,-0.365386,-0.719054
-0.961060,0.134033,0.071777,1.752361,-0.233293,-0.786165
-0.969971,0.243896,0.024414,1.241034,0.059655,-0.798949
-0.957275,0.211060,0.073975,0.748881,0.318514,-0.797883
-0.943604,0.184570,0.173706,0.394148,0.660464,-0.805340
-0.890381,0.184570,0.222534,0.213053,0.846886,-0.768056
-0.889038,0.192749,0.238892,0.083091,0.919324,-0.628506
-0.872437,0.108643,0.235596,0.027697,0.845820,-0.480434
-0.848511,0.023926,0.214478,0.164051,0.693487,-0.503870
-0.858643,0.002808,0.196045,0.433563,0.528371,-0.507066
-0.864502,0.016968,0.183105,0.727576,0.361125,-0.512392
-0.881226,0.049805,0.177979,0.988566,0.222640,-0.442085
-0.927979,0.070557,0.190186,1.195227,0.134223,-0.344081
-0.995972,0.098755,0.206543,1.623464,0.069242,-0.173638
-1.045288,0.151733,0.199097,1.397627,0.077764,-0.069242
-1.076294,0.168823,0.189331,1.318798,0.098004,0.030893
-1.106079,0.168335,0.182129,1.211206,0.111853,0.128897
-1.139648,0.172729,0.154907,1.108941,0.094809,0.216249
-1.224976,0.175781,0.136597,1.030111,0.077764,0.263120
-1.331055,0.206421,0.166382,0.921454,0.053263,0.252468
-1.377197,0.238525,0.205688,0.842625,0.021305,0.281230
-1.351318,0.271729,0.172241,0.746751,-0.050067,0.339819
-1.319702,0.286377,0.122070,0.591222,-0.164051,0.461260
-1.273071,0.265747,0.152588,0.349407,-0.285491,0.792557
-1.106201,0.215332,0.180908,0.215184,-0.281230,0.991762
-1.025146,0.165894,0.198486,0.107592,-0.249272,1.156878
-1.039795,0.104126,0.206543,0.066046,-0.264186,1.241034
-1.088257,0.070557,0.185913,0.086286,-0.392017,1.265535
-1.125610,0.071533,0.138550,0.099070,-0.604005,1.286840
-1.160278,0.052979,0.083740,0.088417,-0.860734,1.306015
-1.193237,0.008545,0.049805,0.085221,-1.099353,1.271926
-1.200928,-0.014771,0.027832,0.151268,-1.276187,1.246360
-1.176147,-0.031128,0.010376,0.309992,-1.367800,1.212271
-1.143921,-0.032349,0.014648,0.416519,-1.325189,1.149421
-1.104492,-0.017944,0.020142,0.516653,-1.227185,1.083374
-1.057251,-0.002686,0.008057,0.590157,-1.113202,1.001349
-1.021240,0.003906,-0.007080,0.625310,-1.012002,0.916128
-0.993530,0.003296,-0.019287,0.634898,-0.936368,0.819189
-0.965332,0.005371,-0.032227,0.618919,-0.882039,0.715858
-0.942017,0.007690,-0.042236,0.573112,-0.837298,0.604005
-0.917847,0.010376,-0.047607,0.510262,-0.788296,0.481500
-0.880859,0.015503,-0.046753,0.442085,-0.720119,0.365386
-0.850220,0.003906,-0.046875,0.388822,-0.583765,0.186421
-0.779663,-0.009155,-0.031250,0.412258,-0.468717,0.039415
-0.736694,-0.011841,-0.027588,0.481500,-0.348342,-0.122505
-0.716064,-0.014160,-0.032837,0.580569,-0.249272,-0.296144
-0.730225,-0.013916,-0.040161,0.681770,-0.182160,-0.495348
-0.779175,-0.008667,-0.041016,0.771252,-0.131028,-0.724380
-0.850464,-0.000854,-0.038452,0.835168,-0.071373,-0.973652
-0.945312,0.010864,-0.025757,0.854342,0.015979,-1.257013
-1.059082,0.036377,-0.003540,0.833037,0.118244,-1.553156
-1.187744,0.062622,0.017212,0.710532,0.245011,-1.922803
-1.414063,0.090698,0.035400,0.569917,0.223706,-1.977132
-1.474121,0.054443,0.005493,0.549677,0.055394,-1.895106
-1.606567,0.040161,-0.010010,0.918258,-0.139550,-1.866344
-1.624390,0.078735,-0.013794,1.695902,-0.280165,-1.747034
-1.539429,0.164429,-0.014404,2.494850,-0.305731,-1.654356
-1.473633,0.275024,0.004517,2.948653,-0.247141,-1.557417
-1.338989,0.350952,0.043579,3.048788,-0.139550,-1.375257
-1.163330,0.425293,0.061768,2.855975,-0.040480,-1.225055
-0.968994,0.453613,0.053955,2.435195,-0.023436,-1.016263
-0.827026,0.413940,0.029175,1.815211,-0.139550,-0.813862
-0.829468,0.294678,0.021973,1.594702,-0.250337,-0.760599
-0.874512,0.228149,0.017822,1.538242,-0.368582,-0.748881
-0.863403,0.177979,0.012329,1.593636,-0.445281,-0.777643
-0.852173,0.150879,-0.000122,1.726794,-0.464455,-0.822384
-0.837769,0.144897,-0.015869,1.898302,-0.445281,-0.859669
-0.831055,0.166626,-0.031128,2.057026,-0.404801,-0.883105
-0.888916,0.182495,-0.030151,2.186989,-0.354733,-0.871387
-0.903687,0.202026,-0.022095,2.304168,-0.291883,-0.807471
-0.881226,0.200073,-0.012451,2.384063,-0.189617,-0.673247
-0.838135,0.205078,0.008789,2.414955,-0.089482,-0.543285
-0.817505,0.212036,0.044189,2.384063,0.052198,-0.350472
-0.785889,0.216064,0.090210,2.308429,0.216249,-0.187487
-0.768311,0.229004,0.173218,2.141182,0.418649,-0.066046
-0.781372,0.218018,0.228027,1.999502,0.583765,0.038350
-0.802368,0.212646,0.262939,1.757687,0.676443,0.069242
-0.841797,0.206543,0.324463,1.449826,0.714793,0.052198
-0.895630,0.207031,0.438721,1.095092,0.730772,-0.020240
-0.920410,0.185669,0.506226,0.786165,0.674313,-0.067112
-0.901245,0.124146,0.517090,0.530502,0.527306,-0.108657
-0.892212,0.043823,0.494385,0.511327,0.446346,-0.166181
-0.943481,0.030884,0.490234,0.517719,0.383495,-0.272708
-1.034058,0.045410,0.469849,0.542220,0.278034,-0.351537
-1.126709,0.072998,0.439819,0.523045,0.147007,-0.395213
-1.150879,0.108398,0.387939,0.518784,-0.017044,-0.358994
-1.151245,0.115356,0.338501,0.520915,-0.139550,-0.305731
-1.137329,0.116943,0.279297,0.608266,-0.251403,-0.231162
-1.125854,0.118042,0.231689,0.709466,-0.305731,-0.143811
-1.149170,0.094116,0.202881,0.932107,-0.296144,-0.019175
-1.179932,0.085449,0.189819,1.135572,-0.205596,0.050067
-1.170288,0.122803,0.184937,1.308145,-0.062851,0.084156
-1.150024,0.190063,0.181763,1.349691,0.090548,0.084156
-1.109497,0.268555,0.170898,1.200554,0.213053,0.084156
-1.031250,0.333618,0.150146,0.846886,0.260990,0.152333
-0.900757,0.342896,0.122803,0.381365,0.251403,0.207727
-0.838135,0.403198,0.104492,-0.100135,0.234358,0.371777
-0.765503,0.292969,0.091797,-0.586961,0.191748,0.390952
-0.736816,0.323853,0.084351,-0.924650,0.204531,0.315318
-0.809692,0.345703,0.067261,-1.507350,0.152333,0.481500
-0.896484,0.298706,0.036377,-1.840778,0.092678,0.535828
-1.012817,0.232300,0.021606,-2.053831,0.024501,0.580569
-1.113525,0.170532,0.005981,-2.102833,-0.083091,0.615723
-1.182617,0.114868,-0.012451,-1.986719,-0.199205,0.651942
-1.265015,0.079712,-0.025024,-1.767274,-0.308927,0.655138
-1.367798,0.070190,-0.014893,-1.516937,-0.397344,0.658334
-1.413208,0.060669,-0.004883,-1.204815,-0.480434,0.694553
-1.350220,0.045532,-0.014282,-0.842625,-0.545416,0.789361
-1.254395,0.012817,-0.023071,-0.138484,-0.568851,0.961934
-1.096924,0.001587,-0.038574,0.331297,-0.550742,1.097223
-1.006836,0.015381,-0.044312,0.712662,-0.500674,1.218663
-0.950928,0.030518,-0.032349,0.974717,-0.411192,1.324124
-0.924072,0.047363,-0.007324,1.118528,-0.287622,1.392301
-0.904785,0.068726,0.012939,1.115332,-0.172573,1.395497
-0.882202,0.078979,0.048950,0.993892,-0.062851,1.375257
-0.858398,0.072876,0.054321,0.824515,-0.014914,1.295362
-0.816162,0.077515,0.043579,0.615723,-0.007457,1.174987
-0.778809,0.072388,0.044067,0.357929,-0.004261,1.021589
-0.755005,0.038696,0.073486,0.028762,-0.024501,0.723315
-0.772705,-0.013184,0.081543,-0.042611,0.001065,0.470847
-0.847656,-0.025879,0.090942,-0.062851,0.070307,0.150202
-0.956177,-0.024414,0.097412,-0.034088,0.129962,-0.198139
-1.072021,-0.032959,0.096802,0.056459,0.150202,-0.559264
-1.154785,-0.001465,0.079346,0.173638,0.165116,-0.883105
-1.216431,0.038696,0.065308,0.199205,0.176834,-1.163269
-1.261597,0.066528,0.081299,0.201335,0.217314,-1.389105
-1.349487,0.075439,0.116699,0.205596,0.311057,-1.580853
-1.459961,0.086914,0.156738,0.273773,0.483630,-1.788580
-1.480347,0.126831,0.224365,0.329167,0.557134,-1.837582
-1.388062,0.146362,0.281494,0.498544,0.531567,-1.799232
-1.246704,0.242432,0.314575,0.720119,0.367516,-1.735317
-1.043701,0.330322,0.298706,0.716923,0.125701,-1.559548
-0.828125,0.244995,0.216431,0.626376,-0.115049,-1.350756
-0.701782,0.193970,0.110474,0.540089,-0.226901,-1.113202
-0.738403,0.170776,0.073120,0.428236,-0.247141,-1.054612
-0.874512,0.224365,0.093628,0.358994,-0.288687,-0.957673
-0.993530,0.281006,0.134399,0.284426,-0.402670,-0.550742
-1.045166,0.282715,0.137451,0.264186,-0.562460,-0.624245
-1.055908,0.260742,0.113037,0.395213,-0.607201,-0.510262
-1.019653,0.258789,0.080322,0.600809,-0.626376,-0.388822
-0.977051,0.253662,0.040161,0.829841,-0.641289,-0.225836
-0.945190,0.218628,-0.003540,1.089766,-0.660464,-0.034088
-0.930908,0.179199,-0.038940,1.383779,-0.671117,0.164051
-0.923218,0.158569,-0.053711,1.686314,-0.661529,0.353668
-0.896851,0.149536,-0.038818,1.968609,-0.598679,0.551807
-0.848267,0.116821,0.011841,2.233860,-0.468717,0.735033
-0.816406,0.104736,0.040649,2.536396,-0.249272,0.877778
-0.801147,0.040039,0.309814,2.624813,-0.051133,0.961934
-0.805542,-0.017822,0.421753,2.820822,-0.082025,0.846886
-0.847534,0.009766,0.285156,2.981676,-0.411192,0.709466
-0.775879,0.043579,0.189575,2.719621,-0.618919,0.678574
-0.650513,0.066650,0.269287,2.043178,-0.653007,0.481500
-0.635132,0.100464,0.432007,1.318798,-0.569917,0.138484
-0.707886,0.152100,0.530273,0.687096,-0.372843,-0.242880
-0.812134,0.142212,0.495117,0.256729,-0.091613,-0.525176
-0.918457,0.092896,0.357056,0.004261,0.100135,-0.904410
-0.992432,0.093140,0.231201,-0.292948,0.224771,-1.099353
-1.053101,0.131836,0.252197,-0.327036,0.314253,-1.155812
-1.054199,0.189453,0.201294,-0.216249,0.352603,-1.114267
-1.035889,0.258179,0.107788,-0.136354,0.330232,-1.012002
-1.057373,0.300781,0.053589,-0.139550,0.307862,-0.885235
-1.134155,0.323608,0.029297,-0.166181,0.299339,-0.727576
-1.233887,0.349854,0.022949,-0.229032,0.315318,-0.549677
-1.320557,0.345703,0.065796,-0.270577,0.398409,-0.299339
-1.358521,0.275757,0.099243,-0.131028,0.484696,-0.038350
-1.293945,0.231323,0.083740,0.298274,0.541155,0.247141
-1.162964,0.215576,0.104858,0.593353,0.576308,0.380300
-1.070557,0.252686,0.141357,0.765925,0.599744,0.451672
-0.957520,0.312500,0.187378,0.703075,0.629572,0.528371
-0.844238,0.339111,0.214600,0.449542,0.643420,0.608266
-0.790405,0.350586,0.203003,0.055394,0.618919,0.609331
-0.837402,0.361328,0.188843,-0.441020,0.574178,0.568851
-0.955078,0.347168,0.178345,-0.967261,0.463390,0.527306
-1.094604,0.310913,0.157715,-1.459413,0.265251,0.492152
-1.221924,0.246460,0.134155,-1.823733,-0.013848,0.585896
-1.310425,0.119141,0.046753,-1.999502,-0.543285,0.710532
-1.340332,-0.009766,0.003052,-1.801363,-0.872452,0.836233
-1.302490,-0.084473,-0.015747,-1.353952,-1.124920,0.957673
-1.238403,-0.127319,-0.017700,-0.751012,-1.227185,1.075917
-1.177490,-0.158203,-0.007080,-0.107592,-1.190966,1.150486
-1.092651,-0.155396,0.000122,0.555003,-1.063134,1.213337
-0.984375,-0.132202,-0.003052,1.186705,-0.867126,1.245295
-0.885498,-0.087891,-0.010986,1.670335,-0.647681,1.201619
-0.809692,-0.032959,-0.014771,1.930260,-0.442085,1.099353
-0.762329,0.016846,-0.023437,1.894041,-0.249272,0.858603
-0.725586,0.083252,-0.029175,1.621333,-0.187487,0.661529
-0.729126,0.113037,-0.021606,1.227185,-0.145941,0.428236
-0.787109,0.131470,0.002075,0.754208,-0.110788,0.162986
-0.828003,0.136719,0.020996,0.284426,-0.096939,-0.099070
-0.821167,0.119995,0.018188,-0.096939,-0.104396,-0.353668
-0.815674,0.084473,0.003784,-0.362190,-0.116114,-0.605070
-0.849854,0.050293,-0.003174,-0.469782,-0.131028,-0.822384
-0.889404,0.017334,-0.005615,-0.423975,-0.125701,-1.007741
-0.963989,-0.012939,0.003906,-0.259925,-0.104396,-1.360343
-1.064575,0.008789,0.011841,0.108657,-0.026632,-1.473261
-1.193481,0.035278,0.022583,0.336624,0.029827,-1.592571
-1.269531,0.068359,0.032349,0.540089,0.051133,-1.690575
-1.295166,0.097046,0.044312,0.749946,0.045806,-1.732121
-1.279419,0.114014,0.026855,0.990696,0.003196,-1.692706
-1.353882,0.106201,-0.000610,1.252751,-0.069242,-1.686314
-1.485352,0.138062,-0.026611,1.461543,-0.193878,-1.567005
-1.490112,0.140625,-0.046997,1.595767,-0.306796,-1.422129
-1.386353,0.149414,-0.001709,1.921738,-0.331297,-1.230381
-1.254517,0.190918,0.035034,2.357431,-0.159790,-0.953412
-1.106323,0.268066,0.055298,2.318016,0.014914,-0.789361
-1.046021,0.278687,0.072021,2.093246,0.113983,-0.662595
-0.963135,0.289307,0.073730,1.754491,0.103331,-0.586961
-0.859741,0.286987,0.068481,1.408280,0.020240,-0.557134
-0.778320,0.270630,0.062988,1.143029,-0.077764,-0.552872
-0.761841,0.239380,0.061401,0.949151,-0.153398,-0.583765
-0.781738,0.207886,0.067627,0.805340,-0.199205,-0.614658
-0.788818,0.175537,0.070190,0.744620,-0.211988,-0.629572
-0.809814,0.164673,0.056885,0.739294,-0.197074,-0.655138
-0.873779,0.160278,0.047974,0.877778,-0.162986,-0.635963
-0.964844,0.181519,0.048828,1.015197,-0.141680,-0.553938
-0.975464,0.201172,0.055664,1.103614,-0.095874,-0.427171
-0.950195,0.194458,0.093628,1.157943,-0.007457,-0.260990
-0.898560,0.181152,0.144409,1.225055,0.122505,-0.082025
-0.857422,0.164917,0.187256,1.330516,0.239685,0.111853
-0.827515,0.152710,0.214722,1.433846,0.313188,0.275904
-0.811523,0.145630,0.239990,1.482849,0.348342,0.444215
-0.816406,0.129150,0.246582,1.490306,0.337689,0.584830
-0.847168,0.118408,0.247314,1.347560,0.298274,0.679639
-0.897583,0.107666,0.320068,1.164335,0.286556,0.725445
-0.924683,0.077637,0.368652,0.982174,0.273773,0.739294
-0.949341,0.037842,0.389282,0.842625,0.251403,0.714793
-0.976318,0.005981,0.380127,0.762730,0.206661,0.666856
-1.014282,-0.013672,0.360107,0.690292,0.156594,0.590157
-1.050903,-0.021484,0.357422,0.612527,0.109722,0.484696
-1.058716,-0.025391,0.375122,0.560329,0.067112,0.385626
-1.033936,-0.038574,0.365845,0.574178,0.042611,0.306796
-1.051880,-0.050049,0.321045,0.628506,-0.265251,0.170442
-1.085693,-0.040283,0.230591,0.817058,-0.128897,0.089482
-1.099854,-0.017090,0.185425,1.004545,-0.245011,0.029827
-1.078003,0.016235,0.147583,1.186705,-0.320645,-0.017044
-1.076538,0.060303,0.127686,1.301754,-0.330232,-0.083091
-1.093018,0.110962,0.125488,1.319863,-0.288687,-0.155529
-1.070801,0.141846,0.130371,1.269796,-0.208792,-0.181095
-1.005981,0.160278,0.132568,1.192031,-0.073503,-0.154463
-0.956177,0.178345,0.134888,1.088701,0.042611,-0.111853
-0.931885,0.189941,0.132690,0.980044,0.092678,-0.058590
-0.915039,0.189453,0.123901,0.852212,0.034088,0.019175
-0.940186,0.191162,0.120483,0.772317,-0.062851,0.041545
-0.970581,0.199585,0.111694,0.691357,-0.194943,0.063916
-0.995239,0.199951,0.096924,0.608266,-0.341950,0.116114
-1.025146,0.181274,0.081421,0.564590,-0.477239,0.184291
-1.070313,0.153687,0.067139,0.597614,-0.590157,0.259925
-1.116089,0.129028,0.060059,0.690292,-0.664725,0.335558
-1.155396,0.109009,0.048828,0.818123,-0.713727,0.423975
-1.184448,0.094971,0.033691,0.957673,-0.748881,0.503870
-1.174927,0.096924,0.036621,1.070591,-0.758469,0.618919
-1.143066,0.089600,0.040161,1.187770,-0.713727,0.659399
-1.068970,0.090454,0.044556,1.226120,-0.663660,0.688161
-1.003662,0.075195,0.049316,1.236773,-0.606136,0.664725
-0.927979,0.071289,0.053833,1.249556,-0.544350,0.605070
-0.868774,0.070557,0.054321,1.250621,-0.483630,0.517719
-0.824463,0.071167,0.046143,1.244229,-0.429302,0.409062
-0.807617,0.070068,0.040405,1.228250,-0.377104,0.273773
-0.791260,0.080200,0.037598,1.203749,-0.329167,0.124636
-0.774048,0.095703,0.032349,1.172857,-0.264186,-0.040480
-0.789062,0.115479,0.033691,1.121724,-0.132093,-0.320645
-0.850464,0.143188,0.042358,1.082309,-0.043676,-0.488957
-0.889038,0.157349,0.057739,1.165400,0.022371,-0.641289
-0.953979,0.232178,0.077026,1.511611,0.067112,-0.812797
-1.057373,0.372925,0.041016,1.964348,0.040480,-0.882039
-1.130615,0.407349,-0.000854,2.198707,-0.029827,-0.762730
-1.154785,0.395752,-0.014404,2.229599,-0.101200,-0.543285
-1.163818,0.366089,-0.013916,2.186989,-0.136354,-0.301470
-1.159302,0.367310,0.008545,2.169945,-0.149137,-0.140615
-1.132324,0.374268,0.021362,2.234926,-0.176834,0.021305
-1.105591,0.375366,-0.016846,2.300972,-0.290817,0.051133
-1.086304,0.383911,-0.044556,2.167814,-0.377104,0.019175
-1.141357,0.407349,-0.044189,1.845039,-0.469782,-0.062851
-1.231201,0.413452,-0.020020,1.368865,-0.573112,-0.156594
-1.245728,0.376831,-0.015991,0.944890,-0.680704,-0.233293
-1.159302,0.300903,-0.051514,0.637028,-0.776578,-0.335558
-1.025635,0.236206,-0.040039,0.509197,-0.766991,-0.434628
-0.867187,0.181885,0.026245,0.623180,-0.585896,-0.499609
-0.721191,0.138916,0.106079,0.968326,-0.248207,-0.472978
-0.656006,0.079224,0.125122,1.859952,0.182160,-0.296144
-0.753784,-0.052124,0.083008,2.650379,0.283360,-0.227967
-0.875244,-0.028442,0.014648,3.343866,0.251403,-0.203466
-0.958008,0.166504,-0.061279,3.416305,0.092678,-0.272708
-1.019409,0.339355,-0.111328,2.861301,-0.136354,-0.331297
-1.038330,0.443848,-0.130127,2.067679,-0.405866,-0.330232
-0.994507,0.460693,-0.122314,1.398693,-0.664725,-0.280165
-0.937988,0.408447,-0.096069,0.916128,-0.819189,-0.256729
-0.891846,0.418457,-0.081421,0.340885,-0.875648,-0.274838
-0.864990,0.432617,-0.087891,-0.370712,-0.565656,-0.214118
-0.840210,0.408325,-0.096924,-1.518003,-0.758469,-0.156594
-0.769287,0.315674,-0.063965,-1.937717,-0.634898,-0.070307
-0.722290,0.151611,-0.013672,-1.776862,-0.410127,-0.003196
-0.718506,0.047607,0.040527,-1.250621,-0.128897,-0.014914
-0.773437,0.033325,0.078613,-0.622115,0.134223,-0.026632
-0.870117,0.027466,0.090820,0.020240,0.295078,-0.030893
-0.934937,0.067993,0.120483,0.525176,0.461260,-0.007457
-0.978882,0.244873,0.172119,0.398409,0.591222,-0.040480
-1.001465,0.317871,0.190308,-0.021305,0.622115,0.010653
-0.962280,0.390137,0.207886,-1.062069,0.570982,-0.036219
-0.881104,0.330200,0.268433,-1.617072,0.542220,-0.026632
-0.857422,0.196899,0.291138,-1.825864,0.533698,-0.030893
-0.869751,0.065430,0.308228,-1.752361,0.513458,-0.086286
-0.906738,-0.039917,0.336548,-1.470066,0.493218,-0.169377
-0.969238,-0.101196,0.363647,-1.007741,0.492152,-0.231162
-1.038330,-0.120483,0.372192,-0.447411,0.446346,-0.280165
-1.076050,-0.101074,0.362183,0.115049,0.351537,-0.314253
-1.093994,-0.057129,0.347656,0.597614,0.242880,-0.379234
-1.102539,0.024902,0.318481,0.949151,0.061785,-0.487891
-1.167480,0.142212,0.190308,1.217598,-0.099070,-0.533698
-1.312866,0.187988,-0.021118,1.415737,-0.427171,-0.552872
-1.531738,0.308228,-0.165771,1.330516,-0.764860,-0.590157
-1.646851,0.701782,-0.185303,-0.157659,-0.835168,-0.683900
-1.514526,0.787842,-0.193359,-2.142248,-0.891627,-0.459129
-1.368164,0.480957,-0.180664,-3.315104,-0.823450,-0.037284
-1.291992,0.282471,-0.163452,-3.684751,-0.632767,0.278034
-1.114502,0.017944,-0.143555,-3.426957,-0.102265,0.563525
-0.895996,-0.402954,0.007813,-1.954761,0.325971,0.704140
-0.698242,-0.457397,0.134766,0.655138,0.744620,0.797883
-0.576660,-0.216919,0.161743,1.794971,0.884170,0.804275
-0.562012,-0.007202,0.123291,2.045309,0.864995,0.712662
-0.624756,0.171021,0.077271,1.395497,0.738229,0.548611
-0.738770,0.219971,0.012329,0.532632,0.519849,0.308927
-0.870605,0.233765,-0.049316,-0.178964,0.191748,0.084156
-0.980103,0.209106,-0.104248,-0.745685,-0.161920,-0.057524
-1.041870,0.166992,-0.127686,-1.089766,-0.461260,-0.173638
-1.069946,0.139038,-0.118530,-1.249556,-0.639159,-0.280165
-1.072998,0.121338,-0.073486,-1.217598,-0.482565,-0.436759
-1.017700,0.174316,-0.009155,-1.038633,-0.216249,-0.496413
-1.140503,0.183228,-0.024170,-0.905475,-0.001065,-0.528371
-1.225342,0.197876,-0.044067,-0.756338,0.057524,-0.469782
-1.223755,0.187134,-0.045654,-0.570982,0.011718,-0.314253
-1.173340,0.166748,-0.036255,-0.311057,-0.096939,-0.101200
-1.110596,0.156982,-0.029419,0.005326,-0.224771,0.127832
-1.043457,0.169067,-0.022827,0.309992,-0.347276,0.379234
-0.987305,0.182251,-0.017090,0.511327,-0.439954,0.649812
-0.943481,0.199951,-0.008667,0.558199,-0.483630,0.871387
-0.943481,0.194214,-0.005249,0.427171,-0.500674,1.086570
-0.935913,0.175293,0.014404,0.292948,-0.504936,1.182444
-0.919556,0.151001,0.016602,0.149137,-0.503870,1.288970
-0.890015,0.118042,0.006958,0.036219,-0.488957,1.319863
-0.878174,0.080811,-0.001587,-0.029827,-0.462325,1.265535
-0.888672,0.044678,-0.005371,-0.043676,-0.422910,1.153682
-0.890503,0.010010,-0.007202,-0.008522,-0.366451,0.960869
-0.901855,-0.012451,-0.008057,0.070307,-0.290817,0.695618
-0.922363,-0.019653,-0.001465,0.170442,-0.192813,0.389887
-0.961060,-0.014282,0.008789,0.276969,-0.047937,-0.071373
-1.000488,-0.002197,0.003052,0.462325,0.002131,-0.377104
-1.040039,0.011475,0.001587,0.573112,0.024501,-0.640224
-1.104614,0.022461,0.014160,0.681770,0.030893,-0.847951
-1.160034,0.017578,-0.001221,0.845820,-0.001065,-1.013067
-1.243286,0.024414,-0.028931,1.024785,-0.047937,-1.105745
-1.297852,0.061523,-0.027466,1.170726,-0.066046,-1.195227
-1.294067,0.148926,0.018311,1.130246,0.049002,-1.254882
-1.249023,0.252686,0.096313,0.856473,0.281230,-1.280448
-1.153442,0.359741,0.170288,0.322775,0.572047,-1.213337
-1.068481,0.395508,0.223755,-0.593353,0.860734,-0.976848
-0.892944,0.338989,0.226807,-1.013067,0.785100,-0.714793
-0.794556,0.227783,0.141357,-1.163269,0.523045,-0.415453
-0.773804,0.065674,0.039307,-1.043960,0.290817,-0.233293
-0.829346,-0.052612,0.001099,-0.709466,0.074569,-0.250337
-0.926514,-0.072510,0.026611,-0.255664,-0.173638,-0.320645
-1.033813,-0.028564,0.072144,0.184291,-0.492152,-0.357929
-1.092896,0.023926,0.095093,0.589091,-0.771252,-0.329167
-1.070068,0.062012,0.091675,1.000284,-0.845820,-0.260990
-1.007568,0.110596,0.078003,1.364604,-0.688161,-0.182160
-0.957031,0.120117,0.056030,1.826929,-0.540089,-0.093743
-0.917725,0.111206,0.027588,2.076201,-0.426106,0.034088
-0.875366,0.118042,0.009888,2.241317,-0.340885,0.180030
-0.848755,0.146484,0.005981,2.308429,-0.278034,0.303600
-0.827271,0.185669,0.034424,2.264753,-0.193878,0.417584
-0.815918,0.220581,0.060547,2.075136,-0.102265,0.488957
-0.798218,0.262817,0.080078,1.698032,-0.021305,0.530502
-0.792847,0.269653,0.116699,1.081244,0.027697,0.548611
-0.796875,0.193848,0.179443,0.492152,0.049002,0.551807
-0.799072,0.090942,0.241821,-0.028762,0.077764,0.504936
-0.823975,-0.011963,0.297485,-0.259925,0.056459,0.394148
-0.829102,-0.090332,0.290405,-0.385626,0.122505,0.234358
-0.852661,-0.112305,0.309937,-0.421845,0.296144,0.046872
-0.932007,-0.178101,0.355713,-0.153398,0.478304,-0.131028
-1.003296,-0.192383,0.369873,0.498544,0.612527,-0.279099
-1.070313,-0.112427,0.323120,1.153682,0.649812,-0.368582
-1.107300,0.022217,0.244751,1.603224,0.565656,-0.451672
-1.180298,0.179932,0.196289,1.690575,0.380300,-0.589091
-1.267700,0.316528,0.134766,0.945955,0.128897,-0.645550
-1.258667,0.250122,0.141968,0.640224,-0.049002,-0.547546
-1.317749,0.178955,0.141479,0.512392,-0.142745,-0.535828
-1.394165,0.187622,0.179687,0.492152,-0.084156,-0.506001
-1.408569,0.225464,0.216309,0.533698,0.037284,-0.429302
-1.333130,0.286865,0.208496,0.528371,0.070307,-0.318514
-1.172607,0.338379,0.173950,0.369647,0.004261,-0.119310
-1.007324,0.310059,0.139404,0.117179,-0.083091,0.093743
-0.937134,0.218506,0.124756,-0.064981,-0.161920,0.301470
-0.967896,0.029785,0.127075,-0.013848,-0.282295,0.459129
-0.951782,-0.077515,0.146851,0.410127,-0.563525,0.470847
-0.928955,-0.015869,0.111938,0.657268,-0.763795,0.410127
-1.001465,0.055786,0.061646,0.760599,-0.948086,0.355798
-1.088379,0.080811,0.003540,0.760599,-1.137703,0.358994
-1.121460,0.050171,-0.061890,0.769121,-1.330516,0.448477
-1.130371,0.002197,-0.109985,0.876713,-1.467935,0.569917
-1.135132,-0.038086,-0.119141,1.049286,-1.474327,0.689226
-1.139526,-0.039307,-0.079468,1.298558,-1.254882,0.764860
-1.101807,-0.060669,-0.030762,1.649030,-0.858603,0.853277
-1.124146,-0.056396,-0.038452,1.999502,-0.299339,0.925715
-1.084351,0.060181,-0.079834,1.874866,-0.082025,0.994957
-1.010986,0.088867,-0.072510,1.496697,0.004261,0.944890
-0.972778,0.118530,-0.038818,1.094027,-0.021305,0.873517
-0.939453,0.106323,-0.016357,0.751012,-0.136354,0.846886
-0.877441,0.068726,-0.003662,0.496413,-0.278034,0.787231
-0.822144,0.027588,-0.005371,0.330232,-0.426106,0.699879
-0.776367,-0.006104,-0.011353,0.238619,-0.583765,0.602940
-0.742065,-0.039185,-0.009155,0.249272,-0.731837,0.477239
-0.719116,-0.055542,-0.009644,0.354733,-0.798949,0.303600
-0.722778,-0.065308,0.031006,0.649812,-0.705205,-0.102265
-0.769165,-0.036011,0.021729,0.852212,-0.521980,-0.439954
-0.812988,0.007690,0.032959,0.948086,-0.291883,-0.794688
-0.881714,0.041870,0.026733,0.935303,-0.045806,-1.147290
-0.979736,0.052124,0.017578,0.875648,0.176834,-1.478588
-1.086304,0.057495,0.020020,0.837298,0.313188,-1.783253
-1.171753,0.078857,0.014526,0.811732,0.320645,-2.018677
-1.226318,0.077515,-0.007568,0.830907,0.231162,-2.178467
-1.328003,0.048950,-0.056396,0.953412,0.083091,-2.315886
-1.515747,0.027344,-0.087891,1.193097,-0.122505,-2.493785
-1.774414,0.129517,-0.057129,1.577657,-0.161920,-2.545983
-1.754639,0.286621,0.003052,1.679923,-0.102265,-2.501242
-1.532471,0.464844,0.083008,1.505219,0.060720,-2.316951
-1.277100,0.564331,0.149048,1.161139,0.307862,-1.965414
-1.070923,0.519043,0.163330,0.874582,0.464455,-1.462609
-0.925415,0.365845,0.115112,0.755273,0.456999,-0.928911
-0.853882,0.210327,0.060303,0.784035,0.366451,-0.530502
-0.835693,0.095093,0.019165,1.010936,0.257794,-0.309992
-0.861084,0.070068,-0.001831,1.373126,0.093743,-0.148072
-0.926514,0.076416,0.008057,1.952631,-0.281230,0.137419
-0.929443,0.059448,-0.004517,2.324408,-0.516653,0.284426
-0.905151,0.079346,-0.013306,2.656771,-0.725445,0.374973
-0.885620,0.097534,-0.026855,2.918826,-0.826646,0.425041
-0.848022,0.098267,-0.038940,3.108443,-0.788296,0.415453
-0.843750,0.132324,-0.017944,3.204317,-0.640224,0.422910
-0.814209,0.109253,0.037476,3.201121,-0.410127,0.362190
-0.781006,0.113525,0.029907,3.211774,-0.214118,0.333428
-0.739990,0.132568,0.008301,3.065832,-0.095874,0.340885
-0.690430,0.171143,0.032227,2.509764,0.116114,0.255664
-0.701294,0.255981,0.143799,1.935586,0.349407,0.171508
-0.771851,0.315063,0.246460,1.098288,0.648746,0.085221
-0.850220,0.291504,0.369385,0.113983,0.916128,-0.006392
-0.927002,0.068604,0.533081,-0.398409,0.956608,0.003196
-0.967041,-0.177734,0.614136,-0.074569,0.817058,-0.005326
-0.964111,-0.250366,0.607544,0.624245,0.536893,-0.066046
-0.925293,-0.173462,0.514160,1.206945,0.300405,-0.188552
-0.878906,0.056152,0.381226,1.352886,0.152333,-0.324906
-0.872070,0.157471,0.299805,1.196293,0.006392,-0.385626
-0.869873,0.182495,0.205688,0.867126,-0.076699,-0.514523
-0.901978,0.232178,0.148437,0.500674,0.025566,-0.547546
-0.977539,0.141846,0.138794,0.268447,0.060720,-0.565656
-1.013794,0.044922,0.138550,0.449542,0.051133,-0.556068
-1.044434,0.043457,0.121826,0.814928,0.106526,-0.517719
-1.130371,0.079956,0.117188,1.070591,0.219445,-0.474043
-1.239746,0.136963,0.119751,1.196293,0.335558,-0.456999
-1.344971,0.227539,0.139160,1.185640,0.458064,-0.426106
-1.424805,0.333374,0.167603,0.955543,0.561395,-0.385626
-1.446655,0.444092,0.194946,0.231162,0.619984,-0.205596
-1.325317,0.485718,0.225586,-0.389887,0.592287,0.021305
-1.215210,0.374512,0.260864,-0.860734,0.478304,0.378169
-1.055542,0.193237,0.269531,-0.942759,0.364321,0.593353
-0.960937,0.101440,0.243408,-0.689226,0.232228,0.839429
-0.935059,0.085693,0.187500,-0.431432,0.037284,0.964065
-0.943604,0.106934,0.149658,-0.291883,-0.208792,0.958738
-0.963623,0.138306,0.116821,-0.272708,-0.483630,0.882039
-1.012207,0.178101,0.075928,-0.403735,-0.770186,0.828776
-1.093262,0.185669,0.042603,-0.627441,-1.068461,0.806406
-1.168701,0.182007,0.012451,-0.967261,-1.358213,0.759534
-1.212891,0.131592,0.014648,-1.035437,-1.339038,0.723315
-1.202271,0.080933,0.027710,-0.902279,-1.181379,0.660464
-1.181274,0.038818,0.023560,-0.595483,-0.945955,0.632767
-1.171753,0.012939,0.010010,-0.213053,-0.745685,0.649812
-1.135254,-0.001953,-0.004028,0.215184,-0.644485,0.730772
-1.081543,-0.008057,-0.019165,0.641289,-0.634898,0.836233
-1.028076,-0.003540,-0.035645,1.007741,-0.686031,0.945955
-0.977173,0.015259,-0.050415,1.281514,-0.762730,1.050351
-0.936035,0.031250,-0.062988,1.514807,-0.853277,1.157943
-0.885010,0.051514,-0.076050,1.535047,-0.863930,1.184575
-0.860840,0.050171,-0.080566,1.477522,-0.825580,1.177118
-0.843750,0.050049,-0.078979,1.359278,-0.736098,1.123854
-0.827515,0.046997,-0.070312,1.182444,-0.607201,1.016263
-0.815552,0.039917,-0.054687,0.965130,-0.451672,0.847951
-0.810303,0.021362,-0.039429,0.740359,-0.286556,0.610397
-0.806152,0.000122,-0.023926,0.543285,-0.122505,0.303600
-0.805786,-0.015625,-0.005981,0.400540,0.027697,-0.055394
-0.815796,-0.033203,0.005737,0.349407,0.143811,-0.724380
-0.847290,-0.039307,0.011719,0.401605,0.251403,-1.041829
-0.925903,-0.018311,0.016479,0.455933,0.295078,-1.386975
-0.991943,-0.010620,0.024902,0.524110,0.312123,-1.705489
-1.062744,0.008545,0.029175,0.570982,0.329167,-1.997372
-1.145996,0.024414,0.039551,0.596548,0.353668,-2.259427
-1.248291,0.038208,0.043335,0.624245,0.394148,-2.493785
-1.426880,0.061646,0.054443,0.627441,0.461260,-2.719621
-1.655273,0.119019,0.098511,0.560329,0.572047,-2.913499
-1.811401,0.179321,0.152222,0.466586,0.710532,-3.024287
-1.842529,0.224365,0.205566,0.463390,0.812797,-2.862367
-1.664185,0.305298,0.269165,0.565656,0.740359,-2.403238
-1.479126,0.336060,0.310425,0.836233,0.643420,-2.049570
-1.268799,0.318726,0.319336,1.203749,0.340885,-1.319863
-0.997437,0.172729,0.243896,1.707620,0.020240,-0.847951
-0.790771,0.113892,0.131348,2.199772,-0.186421,-0.553938
-0.736694,0.106934,0.062866,2.558766,-0.344081,-0.394148
-0.769897,0.156616,0.019531,2.864497,-0.479369,-0.271643
-0.807739,0.250122,-0.013306,2.995525,-0.686031,-0.092678
-0.840210,0.309082,-0.035034,2.935870,-0.889496,0.135289
-0.877686,0.329956,-0.043823,2.724947,-1.211206,0.470847
-0.891846,0.320801,-0.045166,2.584333,-1.388040,0.651942
-0.858154,0.294434,-0.065063,2.421347,-1.407215,0.732902
-0.806030,0.258545,-0.078857,2.293515,-1.250621,0.727576
-0.769165,0.231934,-0.088623,2.202968,-0.977913,0.699879
-0.737915,0.212158,-0.077393,2.110290,-0.611462,0.673247
-0.711548,0.194214,-0.042480,2.026134,-0.188552,0.681770
-0.688354,0.178833,0.001953,1.932390,0.222640,0.700944
-0.684448,0.166748,0.060181,1.838647,0.565656,0.725445
-0.704346,0.172241,0.144531,1.647965,0.893757,0.676443
-0.749878,0.224731,0.229614,1.339038,0.950216,0.543285
-0.785522,0.320923,0.300049,0.506001,0.957673,0.355798
-0.841431,0.325317,0.446289,-0.656203,1.057808,0.234358
-0.866943,0.222168,0.589233,-1.597897,1.229316,0.125701
-0.888428,0.072266,0.687744,-2.101768,1.381649,0.015979
-0.936768,-0.110474,0.716309,-2.095376,1.352886,-0.064981
-0.986328,-0.314453,0.708496,-1.470066,1.054612,-0.071373
-0.969971,-0.427612,0.600220,-0.432498,0.672182,-0.200270
-0.984741,-0.236328,0.437012,0.325971,0.466586,-0.447411
-1.077881,-0.040527,0.317749,0.851147,0.043676,-0.600809
-1.155151,0.199585,0.226074,0.675378,-0.168312,-0.651942
-1.184326,0.244507,0.203125,0.560329,-0.394148,-0.649812
-1.200317,0.300903,0.126709,0.484696,-0.531567,-0.619984
-1.242310,0.368286,0.082764,0.208792,-0.485761,-0.539024
-1.307495,0.369263,0.098267,-0.090548,-0.303600,-0.379234
-1.358887,0.334961,0.134766,-0.252468,-0.058590,-0.181095
-1.265381,0.281372,0.130371,-0.221575,0.131028,0.093743
-1.187866,0.322144,0.081421,-0.112918,0.280165,0.376038
-1.116577,0.155884,0.056274,-0.067112,0.394148,0.305731
-1.059937,0.241089,0.107666,-0.002131,0.418649,0.594418
-1.008301,0.210571,0.151611,-0.015979,0.404801,0.727576
-0.920166,0.224243,0.160522,-0.096939,0.349407,0.731837
-0.864746,0.244629,0.138428,-0.272708,0.252468,0.628506
-0.847900,0.266968,0.101685,-0.555003,0.143811,0.535828
-0.871704,0.263916,0.067505,-0.909736,0.030893,0.455933
-0.948608,0.257202,0.045288,-1.307080,-0.096939,0.388822
-1.035400,0.249634,0.034790,-1.729990,-0.223706,0.328102
-1.135010,0.223633,0.026367,-2.088984,-0.311057,0.223706
-1.239624,0.176270,0.005737,-2.335061,-0.374973,0.187487
-1.251587,0.119385,-0.003906,-2.281797,-0.396279,0.197074
-1.210205,0.084473,-0.010498,-2.039982,-0.406931,0.232228
-1.161255,0.053345,-0.012207,-1.640508,-0.431432,0.322775
-1.105469,0.014526,-0.007690,-1.117463,-0.469782,0.455933
-1.047607,-0.022339,-0.003296,-0.507066,-0.520915,0.611462
-0.994385,-0.047363,-0.008789,0.138484,-0.568851,0.776578
-0.946411,-0.039185,-0.015991,0.725445,-0.600809,0.910801
-0.908081,-0.017578,-0.031372,1.234642,-0.618919,1.009871
-0.880981,0.017822,-0.055298,1.682053,-0.600809,1.074852
-0.848755,0.068481,-0.084106,1.745969,-0.557134,1.051416
-0.838745,0.106445,-0.086060,1.627725,-0.486826,0.973652
-0.829468,0.136230,-0.076050,1.346495,-0.382430,0.846886
-0.830811,0.154175,-0.059448,0.952347,-0.256729,0.681770
-0.841064,0.147339,-0.046265,0.510262,-0.123571,0.486826
-0.860596,0.125366,-0.036987,0.098004,0.002131,0.273773
-0.885498,0.078247,-0.023926,-0.198139,0.122505,0.051133
-0.909790,0.035156,-0.002197,-0.367516,0.243946,-0.199205
-0.935669,0.010376,0.022705,-0.422910,0.350472,-0.564590
-0.969360,-0.031128,0.057007,-0.338754,0.458064,-0.780839
-1.016113,-0.003296,0.070557,-0.215184,0.492152,-0.970456
-1.048218,-0.002075,0.088257,-0.058590,0.513458,-1.133442
-1.097412,0.011230,0.098999,0.083091,0.519849,-1.284709
-1.194946,0.039917,0.115601,0.129962,0.525176,-1.458348
-1.301392,0.072754,0.147461,0.087352,0.567786,-1.592571
-1.368530,0.089966,0.164185,0.009587,0.679639,-1.700163
-1.442993,0.105103,0.180420,-0.111853,0.808536,-1.796037
-1.486450,0.127075,0.209717,-0.260990,0.882039,-1.858887
-1.458740,0.144531,0.257080,-0.412258,0.900149,-1.823733
-1.263184,0.166260,0.329834,-0.373908,0.858603,-1.652226
-1.094849,0.143066,0.361206,-0.177899,0.719054,-1.400823
-0.935181,0.072876,0.325562,0.224771,0.455933,-1.145160
-0.805786,0.003052,0.232178,0.769121,0.172573,-0.926780
-0.760742,-0.022705,0.130005,1.259143,-0.029827,-0.807471
-0.801147,0.010864,0.077026,1.639443,-0.201335,-0.736098
-0.897339,0.078003,0.080444,1.947304,-0.406931,-0.641289
-0.979858,0.153687,0.068237,2.173140,-0.693487,-0.511327
-1.012207,0.207275,0.039185,2.335061,-0.970456,-0.252468
-1.016846,0.247070,-0.016113,2.476741,-1.238903,-0.084156
-0.967529,0.240967,-0.017944,2.571549,-1.199488,0.049002
-0.900391,0.244263,0.008423,2.618421,-0.978978,0.175769
-0.855469,0.208740,0.052612,2.667423,-0.646616,0.357929
-0.835449,0.168457,0.015503,2.765428,-0.386691,0.507066
-0.800171,0.183594,-0.031738,2.765428,-0.211988,0.627441
-0.764893,0.218262,0.001831,2.591789,-0.036219,0.723315
-0.749878,0.260376,0.102661,2.231730,0.192813,0.788296
-0.752686,0.283081,0.189575,1.716142,0.436759,0.826646
-0.753662,0.295898,0.252563,0.657268,0.752077,0.804275
-0.780029,0.233765,0.403320,-0.060720,0.929976,0.756338
-0.820435,0.132080,0.463867,-0.556068,0.983239,0.688161
-0.862793,0.002441,0.501831,-0.756338,0.900149,0.675378
-0.887573,-0.139771,0.484741,-0.614658,0.722250,0.662595
-0.918823,-0.234619,0.434204,-0.256729,0.519849,0.597614
-1.002319,-0.252808,0.390381,0.115049,0.374973,0.443150
-1.120605,-0.236084,0.370483,0.486826,0.185356,0.246076
-1.202515,-0.163452,0.358032,0.780839,-0.057524,0.049002
-1.238892,-0.111816,0.341309,0.982174,-0.312123,-0.116114
-1.219360,-0.066528,0.213257,1.424259,-0.673247,-0.175769
-1.259277,-0.048950,0.141968,1.701228,-0.818123,-0.304666
-1.266235,0.030029,0.134399,1.910020,-0.838363,-0.436759
-1.279419,0.173096,0.149414,1.949435,-0.768056,-0.470847
-1.194336,0.241333,0.129395,1.832256,-0.570982,-0.594418
-1.167725,0.342651,0.101318,1.477522,-0.365386,-0.570982
-1.132202,0.381348,0.088135,0.938498,-0.187487,-0.450607
-1.054565,0.374146,0.127441,0.358994,0.008522,-0.219445
-0.957520,0.296631,0.192749,-0.068177,0.198139,0.029827
-0.877563,0.204224,0.223267,-0.087352,0.269512,0.320645
-0.887695,0.091309,0.214966,0.194943,0.147007,0.442085
-0.938721,0.059937,0.175659,0.551807,-0.095874,0.486826
-0.973267,0.100098,0.085571,0.789361,-0.400540,0.555003
-1.032837,0.116333,-0.014648,0.870321,-0.697748,0.670052
-1.182129,0.103882,-0.024780,0.968326,-1.001349,0.781904
-1.356567,0.115356,0.004761,1.003479,-1.341169,0.927846
-1.387329,0.092285,0.018311,1.056743,-1.476457,1.124920
-1.295288,0.059326,0.033813,1.181379,-1.399758,1.204815
-1.183472,0.040649,0.045532,1.345430,-0.888431,1.180313
-1.073975,0.028931,0.049438,1.548895,-0.728641,1.092962
-0.882568,0.039673,0.061523,1.603224,-0.462325,0.985370
-0.800781,0.050293,0.069824,1.549960,-0.278034,0.856473
-0.760742,0.060303,0.071411,1.390171,-0.198139,0.688161
-0.737183,0.070190,0.077637,1.155812,-0.187487,0.487891
-0.730835,0.079712,0.084229,0.911867,-0.220510,0.259925
-0.741943,0.084229,0.087402,0.673247,-0.274838,0.017044
-0.766235,0.076904,0.085327,0.492152,-0.345146,-0.237554
-0.789429,0.052856,0.080811,0.404801,-0.399474,-0.503870
-0.827515,0.027100,0.066040,0.448477,-0.439954,-0.851147
-0.921021,0.008301,0.051758,0.600809,-0.438889,-1.048221
-0.997925,0.011841,0.029785,0.834102,-0.437824,-1.220794
-1.081909,0.037476,0.006348,1.051416,-0.443150,-1.377388
-1.187134,0.071899,0.006104,1.166465,-0.501740,-1.450891
-1.261230,0.097046,0.041260,1.463674,-0.580569,-1.320928
-1.291504,0.245850,0.062744,2.109225,-0.528371,-1.102549
-1.292114,0.417969,0.048828,2.695120,-0.433563,-0.805340
-1.233521,0.545410,0.026001,3.038136,-0.384561,-0.547546
-1.215698,0.607422,-0.003174,3.060506,-0.425041,-0.340885
-1.232300,0.619019,-0.043579,2.706838,-0.601875,-0.282295
-1.277710,0.609863,0.002441,2.312690,-0.640224,-0.306796
-1.231323,0.613159,0.010376,1.905759,-0.664725,-0.418649
-1.133179,0.583130,-0.006958,1.513741,-0.694553,-0.516653
-0.988770,0.461182,-0.022827,1.310276,-0.699879,-0.540089
-0.853271,0.414917,0.030762,1.243164,-0.607201,-0.560329
-0.782593,0.430176,0.133423,1.159008,-0.454868,-0.564590
-0.738281,0.392944,0.191528,1.045025,-0.371777,-0.549677
-0.711670,0.319946,0.174072,0.983239,-0.428236,-0.519849
-0.687744,0.229492,0.148071,1.140899,-0.628506,-0.477239
-0.702759,0.160278,0.100952,1.320928,-0.773382,-0.478304
-0.751831,0.127686,0.073853,1.463674,-0.920389,-0.481500
-0.783203,0.127686,0.056641,1.548895,-1.035437,-0.511327
-0.825562,0.153198,0.045166,1.559548,-1.055678,-0.555003
-0.891357,0.186035,0.045044,1.506285,-0.972587,-0.614658
-0.923218,0.225586,0.079712,1.400823,-0.762730,-0.667921
-0.918091,0.246948,0.089722,1.277253,-0.507066,-0.697748
-0.867310,0.280029,0.093018,1.081244,-0.254598,-0.714793
-0.794556,0.317749,0.129272,0.786165,0.008522,-0.675378
-0.744629,0.339111,0.242920,0.147007,0.384561,-0.612527
-0.754517,0.275024,0.274292,-0.321710,0.443150,-0.502805
-0.781006,0.175903,0.300537,-0.686031,0.336624,-0.362190
-0.825806,0.034668,0.325439,-0.551807,0.084156,-0.199205
-0.846680,-0.053467,0.305176,0.147007,-0.204531,-0.118244
-0.834473,-0.084961,0.293335,1.099353,-0.406931,-0.122505
-0.831299,-0.072510,0.292480,2.028264,-0.495348,-0.173638
-0.848511,0.004639,0.293335,2.702577,-0.462325,-0.220510
-0.876343,0.092896,0.287354,3.098855,-0.360060,-0.214118
-0.911743,0.197998,0.254761,3.072224,-0.178964,-0.297209
-0.999023,0.328369,0.191162,2.744122,-0.099070,-0.328102
-0.992432,0.342407,0.176636,2.247709,-0.040480,-0.566721
-0.996094,0.386353,0.187988,1.708685,0.059655,-0.699879
-0.979736,0.366211,0.183838,1.232512,0.155529,-0.758469
-0.935059,0.323730,0.149536,0.913997,0.224771,-0.782970
-0.951782,0.273315,0.111450,0.722250,0.266316,-0.817058
-1.052612,0.240479,0.097656,0.616788,0.285491,-0.885235
-1.173828,0.258667,0.115356,0.606136,0.332363,-0.928911
-1.304321,0.328491,0.135376,0.590157,0.405866,-0.976848
-1.407227,0.553223,0.165527,0.125701,0.547546,-0.950216
-1.422241,0.671021,0.174561,-0.497479,0.606136,-0.828776
-1.307251,0.659668,0.181030,-1.183509,0.623180,-0.559264
-1.115356,0.502563,0.186890,-1.634116,0.648746,-0.149137
-0.962891,0.297607,0.197876,-1.671401,0.673247,0.226901
-0.905640,0.175293,0.200928,-1.379518,0.633833,0.460194
-0.910278,0.158569,0.207642,-1.076983,0.530502,0.564590
-0.953247,0.145630,0.283447,-0.905475,0.430367,0.670052
-1.045898,0.037964,0.343872,-0.632767,0.247141,0.813862
-1.100098,-0.043335,0.210327,0.143811,-0.401605,0.905475
-1.087402,-0.004883,0.003418,0.540089,-0.812797,0.920389
-1.091797,0.027222,-0.011353,0.810667,-1.220794,0.916128
-1.109009,0.055420,0.009521,1.025850,-1.516937,0.877778
-1.083496,0.112183,0.028320,1.220794,-1.533981,0.867126
-1.027100,0.164917,0.037842,1.248490,-1.307080,0.858603
-1.010498,0.163696,0.039185,1.165400,-0.943825,0.869256
-1.044312,0.134399,0.023682,1.042894,-0.599744,0.877778
-1.064331,0.106201,0.000244,0.942759,-0.373908,0.890561
-1.035767,0.098999,-0.014648,0.852212,-0.250337,0.894822
-0.996094,0.090332,-0.020264,0.717989,-0.263120,0.863930
-0.923950,0.094604,-0.014648,0.623180,-0.296144,0.810667
-0.861572,0.094971,0.011108,0.483630,-0.294013,0.747816
-0.808960,0.082886,0.037354,0.337689,-0.247141,0.660464
-0.770874,0.067505,0.058472,0.214118,-0.177899,0.541155
-0.746582,0.042236,0.078125,0.148072,-0.099070,0.400540
-0.752930,0.017334,0.076416,0.157659,-0.054329,0.205596
-0.785767,0.014648,0.060181,0.215184,-0.056459,-0.022371
-0.829468,0.034302,0.051758,0.269512,-0.083091,-0.273773
-0.871948,0.056152,0.081787,0.357929,-0.050067,-0.608266
-0.943359,0.051147,0.115601,0.507066,0.005326,-0.777643
-0.985962,0.064087,0.099121,0.680704,0.027697,-0.969391
-1.029541,0.089844,0.137695,0.876713,0.046872,-1.157943
-1.059326,0.177124,0.208862,1.118528,0.148072,-1.284709
-1.126831,0.313110,0.209717,1.089766,0.192813,-1.480718
-1.199097,0.413086,0.178833,0.909736,0.128897,-1.614942
-1.200073,0.438843,0.177734,0.729706,0.068177,-1.567005
-1.236816,0.503296,0.198242,0.565656,-0.073503,-1.341169
-1.124146,0.446045,0.171997,0.417584,-0.134223,-1.106810
-1.077759,0.404053,0.140869,0.383495,-0.206661,-1.045025
-1.036865,0.371704,0.152832,0.381365,-0.215184,-0.975783
-1.051392,0.332153,0.128662,0.487891,-0.251403,-0.844755
-1.110229,0.279785,0.029907,0.681770,-0.361125,-0.691357
-1.192017,0.239746,-0.016602,0.851147,-0.503870,-0.585896
-1.252808,0.238403,-0.017578,0.959804,-0.628506,-0.511327
-1.266968,0.273071,-0.035278,0.951282,-0.713727,-0.442085
-1.167114,0.276001,-0.012329,0.820254,-0.680704,-0.401605
-0.941895,0.273682,0.028809,0.630637,-0.476173,-0.337689
-0.713379,0.250854,0.049438,0.312123,0.009587,-0.203466
-0.630859,0.159668,0.054687,0.052198,0.331297,-0.134223
-0.793091,0.114868,0.104370,-0.245011,0.578439,-0.119310
-0.938477,0.092896,0.151367,-0.550742,0.706271,-0.061785
-1.048828,0.055298,0.170532,-0.778709,0.709466,0.009587
-1.168457,0.030640,0.180542,-0.890561,0.588026,0.053263
-1.210938,-0.022461,0.198853,-0.870321,0.371777,0.110788
-1.145630,-0.082153,0.214600,-0.688161,0.135289,0.215184
-1.021240,-0.142212,0.229004,-0.374973,-0.042611,0.331297
-0.912964,-0.146606,0.250244,0.003196,-0.162986,0.423975
-0.816528,-0.105835,0.284180,0.497479,-0.165116,0.453803
-0.798828,-0.046753,0.280518,0.642355,-0.139550,0.436759
-0.828247,0.031250,0.264160,0.598679,-0.138484,0.397344
-0.872314,0.079346,0.239746,0.397344,-0.187487,0.343015
-0.898193,0.086426,0.203369,0.137419,-0.272708,0.299339
-0.904541,0.078369,0.182983,-0.118244,-0.345146,0.234358
-0.906128,0.038574,0.177734,-0.271643,-0.367516,0.172573
-0.923218,0.024414,0.169800,-0.309992,-0.334493,0.102265
-0.931152,0.041626,0.169434,-0.320645,-0.262055,0.055394
-0.914795,0.048096,0.187500,-0.346211,-0.082025,0.025566
-0.868164,0.041138,0.211914,-0.336624,0.029827,0.052198
-0.844360,0.035034,0.197998,-0.287622,0.076699,0.087352
-0.824463,0.009888,0.197388,-0.207727,0.074569,0.120375
-0.816040,-0.016602,0.203247,-0.037284,0.039415,0.136354
-0.805054,-0.024536,0.203003,0.172573,-0.009587,0.154463
-0.774048,-0.024292,0.193237,0.394148,-0.045806,0.167247
-0.767456,-0.020874,0.172363,0.612527,-0.068177,0.181095
-0.779785,-0.005127,0.153564,0.798949,-0.066046,0.159790
-0.812988,0.017212,0.147217,0.911867,0.022371,0.089482
-0.947876,0.041748,0.167236,0.983239,0.125701,-0.008522
-1.057129,0.079956,0.197876,0.936368,0.227967,-0.135289
-1.131958,0.104492,0.209717,0.852212,0.306796,-0.229032
-1.176392,0.139526,0.203125,0.711597,0.334493,-0.270577
-1.196045,0.186035,0.164307,0.591222,0.288687,-0.266316
-1.269531,0.185913,0.111694,0.444215,0.211988,-0.125701
-1.380737,0.149170,0.103882,0.377104,0.117179,-0.172573
-1.457520,0.154907,0.115112,0.392017,0.036219,-0.059655
-1.402222,0.120361,0.133057,0.477239,0.006392,0.168312
-1.235352,0.099731,0.129883,0.691357,0.072438,0.486826
-1.058716,0.117920,0.113403,0.764860,0.159790,0.623180
-0.994629,0.109863,0.138794,0.785100,0.241815,0.704140
-0.895386,0.111450,0.180420,0.744620,0.331297,0.713727
-0.791870,0.114746,0.214111,0.647681,0.427171,0.670052
-0.726196,0.102173,0.222900,0.532632,0.493218,0.542220
-0.729736,0.119141,0.192993,0.383495,0.478304,0.338754
-0.803467,0.167114,0.144897,0.137419,0.366451,0.106526
-0.947510,0.201782,0.109863,-0.227967,0.165116,-0.155529
-1.110107,0.202637,0.072144,-0.606136,-0.241815,-0.453803
-1.337158,0.151978,0.017212,-1.018393,-0.492152,-0.605070
-1.337280,0.155640,-0.005981,-1.100419,-0.687096,-0.647681
-1.193359,0.196411,-0.010864,-1.073787,-0.752077,-0.613593
-1.055054,0.216309,-0.016235,-0.992827,-0.665791,-0.430367
-1.008545,0.145264,-0.008057,-0.766991,-0.518784,-0.162986
-0.989990,0.039917,0.001953,-0.338754,-0.379234,0.173638
-0.959473,-0.061157,0.024780,0.270577,-0.251403,0.479369
-0.939209,-0.083496,0.041626,0.984305,-0.160855,0.697748
-0.938232,-0.027954,0.039673,1.562744,-0.124636,0.814928
-0.953613,0.024902,0.023926,1.948370,-0.207727,0.880974
-0.951660,0.128052,-0.016724,1.859952,-0.335558,0.880974
-0.948608,0.174805,-0.032959,1.541438,-0.479369,0.819189
-0.944092,0.198486,-0.038452,1.083374,-0.605070,0.720119
-0.937744,0.191772,-0.036011,0.576308,-0.687096,0.605070
-0.914551,0.148926,-0.038940,0.154463,-0.700944,0.492152
-0.886353,0.064575,-0.061890,-0.018110,-0.661529,0.372843
-0.858154,-0.015381,-0.093384,0.062851,-0.594418,0.241815
-0.827637,-0.079712,-0.104736,0.337689,-0.472978,0.074569
-0.840088,-0.116333,-0.099731,1.004545,-0.229032,-0.292948
-0.911865,-0.079346,-0.087891,1.274057,-0.053263,-0.601875
-0.991699,-0.021606,-0.073242,1.471131,0.110788,-0.929976
-1.075073,0.043457,-0.052979,1.490306,0.241815,-1.250621
-1.142578,0.113281,-0.025269,1.344364,0.333428,-1.543569
-1.202515,0.160522,0.000488,1.092962,0.395213,-1.753426
-1.272095,0.189331,0.026001,0.792557,0.450607,-1.898302
-1.420898,0.213135,0.032349,0.526241,0.463390,-1.985654
-1.535400,0.282349,0.023193,0.050067,0.492152,-2.003763
-1.620117,0.469116,-0.021973,-1.002414,0.452738,-2.050635
-1.642700,0.497559,0.004272,-2.505503,0.200270,-1.702293
-1.242432,0.284058,0.050903,-2.525743,0.251403,-1.259143
-0.895630,0.147461,0.081787,-2.018677,0.438889,-0.898018
-0.699097,0.003662,0.082153,-1.168596,0.516653,-0.598679
-0.700928,-0.072876,0.068970,-0.174703,0.480434,-0.379234
-0.793701,-0.072754,0.075317,0.808536,0.419714,-0.136354
-0.858154,-0.111816,0.099365,1.894041,0.366451,0.058590
-0.866089,-0.115845,0.096924,2.925217,0.362190,0.126767
-0.870728,-0.063477,0.071045,3.697534,0.377104,0.101200
-0.898804,0.011597,0.051392,4.139619,0.301470,-0.010653
-0.956543,0.160889,0.035034,4.131097,0.153398,-0.066046
-0.968872,0.226807,0.023682,3.801930,-0.058590,-0.061785
-0.938599,0.237305,0.017334,3.406717,-0.283360,-0.008522
-0.883911,0.194580,0.016479,3.121226,-0.467651,0.084156
-0.838989,0.146484,0.041138,3.036005,-0.545416,0.196009
-0.803955,0.120117,0.065308,3.032809,-0.484696,0.287622
-0.796997,0.273193,0.056763,2.588594,-0.320645,0.374973
-0.852417,0.540405,0.076538,1.025850,-0.161920,0.385626
-0.939697,0.589233,0.073975,-0.991762,-0.236489,0.471912
-0.913208,0.304565,0.010742,-2.886868,-0.361125,0.794688
-0.817627,-0.215698,0.135864,-3.011504,0.022371,0.791492
-0.825562,-0.411499,0.229126,-2.358496,0.518784,0.619984
-0.861084,-0.445068,0.261841,-1.456217,0.918258,0.427171
-0.894531,-0.396851,0.244141,-0.617854,1.151551,0.251403
-0.918701,-0.326538,0.226318,0.296144,1.172857,0.124636
-0.951538,-0.264526,0.184814,1.195227,1.005610,0.038350
-0.962280,-0.242676,0.140259,1.953696,0.746751,0.050067
-0.967773,-0.204468,0.117188,2.579006,0.493218,0.096939
-0.992310,-0.136353,0.095215,3.008308,0.159790,0.202400
-1.003540,-0.029297,0.102295,3.314039,0.031958,0.268447
-1.002197,0.059204,0.112183,3.289538,-0.020240,0.285491
-0.995850,0.129150,0.098999,3.071159,-0.031958,0.271643
-1.074951,0.206787,0.054077,2.553440,-0.034088,0.202400
-1.270142,0.262329,0.047974,1.760883,-0.088417,0.070307
-1.368408,0.317627,0.083252,0.868191,-0.155529,-0.035154
-1.330933,0.331787,0.105713,0.066046,-0.182160,-0.116114
-1.252197,0.320435,0.118774,-0.568851,-0.102265,-0.165116
-1.177979,0.273560,0.136108,-0.986435,0.039415,-0.165116
-1.127930,0.203491,0.161499,-1.150486,0.273773,-0.027697
-1.096924,0.076416,0.197144,-1.095092,0.338754,0.143811
-1.126343,0.001831,0.212280,-0.884170,0.270577,0.334493
-1.189575,-0.045898,0.211426,-0.527306,0.075634,0.474043
-1.285645,-0.061401,0.166748,-0.078830,-0.238619,0.533698
-1.339111,-0.049927,0.092773,0.337689,-0.661529,0.632767
-1.321777,-0.038086,0.026611,0.668986,-1.089766,0.778709
-1.301270,-0.030762,0.010498,0.913997,-1.471131,0.941694
-1.293091,-0.033081,0.004395,1.133442,-1.791776,1.094027
-1.248047,-0.034180,-0.004395,1.486045,-1.980327,1.326255
-1.133057,-0.034668,-0.021729,1.725729,-1.914281,1.428520
-1.069702,-0.026733,-0.036743,1.936652,-1.754491,1.462609
-1.005981,-0.006470,-0.048828,2.062353,-1.555287,1.444499
-0.958618,0.022217,-0.061646,2.066614,-1.348625,1.384844
-0.957886,0.059326,-0.073242,1.917477,-1.162204,1.282579
-0.952393,0.097046,-0.074341,1.609615,-1.013067,1.171791
-0.932007,0.119629,-0.073730,1.193097,-0.894822,1.055678
-0.903320,0.118896,-0.071899,0.743555,-0.795753,0.937433
-0.859863,0.097534,-0.066040,0.343015,-0.703075,0.827711
-0.809692,0.059448,-0.060303,-0.001065,-0.552872,0.661529
-0.761353,-0.012939,-0.061523,-0.020240,-0.452738,0.523045
-0.756714,-0.048706,-0.062134,0.119310,-0.356864,0.347276
-0.777344,-0.069092,-0.063599,0.352603,-0.267381,0.121440
-0.818604,-0.074341,-0.062988,0.615723,-0.174703,-0.137419
-0.861328,-0.051880,-0.051025,0.819189,-0.070307,-0.427171
-0.908813,-0.008423,-0.033936,0.913997,0.042611,-0.744620
-0.964722,0.044067,-0.019897,0.906540,0.136354,-1.074852
-1.015747,0.079224,-0.012207,0.853277,0.188552,-1.380583
-1.065796,0.097168,-0.006226,0.823450,0.204531,-1.751295
-1.163940,0.087891,0.004761,0.920389,0.201335,-1.930260
-1.304077,0.066284,-0.004883,1.131311,0.191748,-2.093246
-1.523438,0.076904,-0.004517,1.335842,0.165116,-2.262623
-1.686401,0.142090,0.021240,1.424259,0.143811,-2.346779
-1.757813,0.219604,0.062012,1.328385,0.159790,-2.335061
-1.697754,0.303711,0.121948,1.054612,0.210922,-2.260492
-1.560791,0.347046,0.192993,0.730772,0.294013,-2.082593
-1.366943,0.340332,0.251343,0.545416,0.321710,-1.790710
-1.122070,0.283447,0.268921,0.586961,0.213053,-1.388040
-0.879883,0.162598,0.176025,1.104680,-0.161920,-0.907606
-0.725342,-0.031860,0.083008,1.670335,-0.400540,-0.814928
-0.751709,-0.044556,0.008667,2.273275,-0.649812,-0.741424
-0.814575,0.031128,-0.061890,2.769689,-0.913997,-0.614658
-0.883789,0.031128,-0.097046,3.114835,-1.223989,-0.450607
-0.947021,0.102295,-0.121582,3.419500,-1.494567,-0.436759
-1.017822,0.213013,-0.124634,3.620835,-1.752361,-0.003196
-0.928345,0.137207,-0.150879,3.765711,-1.767274,-0.033023
-0.909424,0.188477,-0.186646,3.915914,-1.637312,-0.047937
-0.933228,0.176758,-0.205688,3.937219,-1.282579,-0.062851
-0.905884,0.194336,-0.201782,3.850933,-0.943825,-0.145941
-0.837280,0.235474,-0.116211,3.702861,-0.589091,-0.296144
-0.737549,0.314819,-0.080444,3.282081,-0.290817,-0.485761
-0.618286,0.317871,-0.156860,2.609899,0.226901,-0.497479
-0.520508,0.277100,-0.177368,1.933456,0.785100,-0.360060
-0.504883,0.307251,-0.120850,1.178183,1.094027,-0.327036
-0.560547,0.353027,-0.012207,0.288687,1.251686,-0.404801
-0.659302,0.351807,0.122070,-0.576308,1.352886,-0.497479
-0.754883,0.266602,0.222900,-1.206945,1.422129,-0.519849
-0.833496,0.155640,0.244873,-1.510546,1.398693,-0.507066
-0.919434,0.003784,0.247803,-1.366735,1.369931,-0.477239
-0.984985,-0.092773,0.295410,-0.973652,1.361408,-0.480434
-1.095703,-0.123535,0.407593,-0.344081,1.379518,-0.564590
-1.219604,-0.045898,0.549316,0.251403,1.395497,-0.708401
-1.288574,0.091919,0.508667,0.456999,1.409345,-0.811732
-1.352417,0.176392,0.393677,0.288687,1.358213,-0.833037
-1.407959,0.213867,0.323242,-0.007457,1.284709,-0.792557
-1.462158,0.222778,0.324341,-0.286556,1.157943,-0.717989
-1.526123,0.234863,0.347168,-0.674313,0.861799,-0.644485
-1.523560,0.263550,0.391357,-0.863930,0.525176,-0.510262
-1.394043,0.210937,0.345581,-0.858603,0.160855,-0.239685
-1.257080,0.102905,0.300415,-0.568851,-0.088417,0.058590
-1.128296,0.046753,0.307129,-0.141680,-0.258859,0.296144
-0.996094,0.054443,0.309204,0.247141,-0.405866,0.500674
-0.884277,0.066284,0.276855,0.548611,-0.529437,0.691357
-0.843506,0.074585,0.220947,0.754208,-0.615723,0.835168
-0.865845,0.113647,0.184937,0.841559,-0.710532,0.896953
-0.910156,0.160278,0.159790,0.741424,-0.864995,0.841559
-1.037354,0.279907,0.151245,0.205596,-1.167530,0.938498
-1.145386,0.192871,0.124512,-0.136354,-1.243164,0.766991
-1.202759,0.098267,0.035278,-0.243946,-1.282579,0.769121
-1.250854,0.072754,-0.033691,-0.354733,-1.293232,0.780839
-1.288574,0.068604,-0.082275,-0.411192,-1.365670,0.712662
-1.301270,0.094360,-0.116699,-0.507066,-1.392301,0.623180
-1.233154,0.096924,-0.117798,-0.572047,-1.358213,0.576308
-1.153931,0.099487,-0.115479,-0.560329,-1.257013,0.550742
-1.093506,0.078247,-0.105103,-0.460194,-1.145160,0.627441
-1.024780,0.037720,-0.091797,-0.087352,-0.990696,0.811732
-0.953003,-0.028564,-0.083740,0.339819,-0.910801,0.898018
-0.913696,-0.023926,-0.097046,0.742490,-0.812797,0.965130
-0.862793,0.002075,-0.112183,1.053547,-0.715858,0.998153
-0.832642,0.031128,-0.126587,1.243164,-0.639159,0.987501
-0.815186,0.063354,-0.136841,1.272992,-0.572047,0.948086
-0.788086,0.097046,-0.137329,1.148355,-0.498544,0.884170
-0.755859,0.118652,-0.125488,0.917193,-0.417584,0.786165
-0.740112,0.127075,-0.113647,0.606136,-0.305731,0.655138
-0.750732,0.112061,-0.083618,0.253533,-0.133158,0.486826
-0.799194,0.085327,-0.027100,-0.168312,0.174703,0.186421
-0.884521,0.016846,-0.025146,-0.336624,0.335558,-0.047937
-0.937134,-0.168823,0.001465,-0.367516,0.452738,-0.270577
-0.939819,-0.201050,0.049072,-0.235424,0.641289,-0.590157
-1.050049,-0.081421,0.129639,-0.220510,0.894822,-0.990696
-1.183472,0.035522,0.179199,-0.400540,1.078048,-1.333712
-1.272949,0.102173,0.195923,-0.758469,1.176052,-1.563809
-1.361328,0.112183,0.159912,-1.147290,1.147290,-1.683118
-1.469116,0.067749,0.140259,-1.483914,1.057808,-1.748100
-1.513062,0.067505,0.170288,-1.657552,0.981109,-1.701228
-1.449707,0.063599,0.251099,-1.555287,0.985370,-1.545699
-1.363037,0.047241,0.289551,-1.320928,1.022654,-1.269796
-1.250366,0.008789,0.308105,-0.953412,0.991762,-1.037568
-1.099243,0.006348,0.317871,-0.541155,0.861799,-0.853277
-0.936401,0.012451,0.301025,-0.149137,0.664725,-0.735033
-0.832520,0.012817,0.255493,0.216249,0.465521,-0.621049
-0.824341,-0.005249,0.220581,0.568851,0.278034,-0.524110
-0.866821,-0.015381,0.202026,0.951282,0.071373,-0.400540
-0.909302,-0.020264,0.182129,1.344364,-0.147007,-0.010653
-0.932373,-0.004517,0.140137,1.900433,-0.412258,-0.143811
-0.910522,0.054810,0.099731,2.225338,-0.523045,-0.069242
-0.889893,0.080688,0.073853,2.487394,-0.546481,-0.029827
-0.880493,0.110962,0.065063,2.675945,-0.495348,-0.005326
-0.892944,0.154541,0.068237,2.737731,-0.389887,0.025566
-0.900635,0.202759,0.078857,2.655705,-0.285491,0.070307
-0.876953,0.249512,0.064819,2.441587,-0.202400,0.129962
-0.816284,0.282593,0.056396,2.104963,-0.134223,0.196009
-0.770264,0.295898,0.069214,1.689510,-0.036219,0.252468
-0.746582,0.307983,0.109863,0.919324,0.235424,0.337689
-0.794189,0.297485,0.224976,0.344081,0.464455,0.361125
-0.880005,0.254395,0.291870,-0.203466,0.673247,0.381365
-0.951172,0.185303,0.325073,-0.640224,0.802144,0.383495
-0.991699,0.108154,0.347900,-0.878844,0.784035,0.370712
-1.016846,0.001465,0.361572,-0.875648,0.582700,0.360060
-0.968750,-0.051025,0.310669,-0.831972,0.347276,0.331297
-0.922485,-0.046021,0.236328,-0.932107,0.193878,0.265251
-0.948242,-0.104980,0.221069,-1.022654,0.092678,0.149137
-0.968262,-0.147217,0.247192,-0.851147,0.034088,-0.014914
-0.968262,-0.147339,0.264038,-0.180030,0.041545,-0.051133
-0.958496,-0.060547,0.241577,0.297209,0.110788,-0.001065
-0.943726,-0.000366,0.201294,0.678574,0.165116,0.006392
-0.946777,0.105591,0.155884,0.818123,0.172573,-0.005326
-0.968506,0.163330,0.123535,0.740359,0.141680,0.035154
-0.984741,0.201294,0.106079,0.563525,0.075634,0.063916
-1.003296,0.215088,0.086914,0.350472,-0.002131,0.100135
-1.026733,0.196411,0.074463,0.215184,-0.072438,0.154463
-1.073120,0.161865,0.061157,0.201335,-0.109722,0.190682
-1.203247,0.134033,0.078735,0.331297,-0.063916,0.211988
-1.360229,0.122803,0.124146,0.545416,-0.029827,0.300405
-1.404419,0.130493,0.061646,0.777643,-0.074569,0.396279
-1.353638,0.156616,0.020874,0.855408,-0.148072,0.507066
-1.246216,0.146851,0.040527,0.822384,-0.149137,0.653007
-1.105713,0.155640,0.106567,0.672182,-0.030893,0.773382
-1.003906,0.154785,0.178833,0.450607,0.158724,0.847951
-1.013306,0.123047,0.227173,0.222640,0.311057,0.855408
-1.084961,0.097900,0.211426,0.061785,0.292948,0.808536
-1.163818,0.094238,0.142578,-0.080960,0.051133,0.687096
-1.186768,0.120239,0.015625,-0.232228,-0.493218,0.648746
-1.204468,0.084351,-0.007202,-0.398409,-0.850081,0.623180
-1.198120,0.006836,-0.008301,-0.396279,-1.143029,0.639159
-1.143921,-0.022583,-0.018188,-0.269512,-1.287905,0.676443
-1.070801,-0.057739,-0.025024,-0.086286,-1.302819,0.715858
-1.007080,-0.085205,-0.016479,0.213053,-1.202684,0.715858
-0.953369,-0.091919,0.002808,0.589091,-1.016263,0.662595
-0.917603,-0.071045,0.018311,0.941694,-0.800014,0.558199
-0.892822,-0.034912,0.030273,1.205880,-0.604005,0.410127
-0.888062,0.005005,0.030273,1.343299,-0.441020,0.167247
-0.890015,0.058716,0.014404,1.291101,-0.445281,0.013848
-0.906128,0.080200,-0.004028,1.174987,-0.518784,-0.125701
-0.913452,0.088745,-0.015015,1.047155,-0.611462,-0.264186
-0.907593,0.092773,-0.015381,0.951282,-0.674313,-0.368582
-0.902222,0.090088,-0.018433,0.940629,-0.682835,-0.471912
-0.902466,0.101318,-0.024902,0.961934,-0.638094,-0.536893
-0.905518,0.109863,-0.028931,0.976848,-0.558199,-0.575243
-0.917480,0.123413,-0.028809,0.977913,-0.466586,-0.588026
-0.943970,0.130859,-0.032227,0.962999,-0.378169,-0.609331
-0.976929,0.135620,-0.027100,0.927846,-0.271643,-0.633833
-1.014282,0.135986,-0.015137,0.905475,-0.210922,-0.659399
-1.030762,0.129272,0.001343,0.903345,-0.153398,-0.694553
-1.043335,0.117310,0.019043,0.932107,-0.101200,-0.736098
-1.062378,0.093384,0.041260,1.023720,-0.063916,-0.796818
-1.080444,0.075928,0.055786,1.197358,-0.066046,-0.884170
-1.087524,0.080566,0.057251,1.413607,-0.120375,-0.973652
-1.092285,0.092529,0.038940,1.625594,-0.222640,-1.051416
-1.112549,0.113892,0.011841,1.798167,-0.351537,-1.129181
-1.166016,0.134644,-0.013062,2.019742,-0.512392,-1.221859
-1.309204,0.149780,-0.041016,2.192315,-0.566721,-1.267665
-1.368286,0.181763,-0.049194,2.322278,-0.547546,-1.314537
-1.363892,0.223022,-0.030273,2.362757,-0.455933,-1.336907
-1.313477,0.266113,0.001953,2.297776,-0.303600,-1.328385
-1.213135,0.317627,0.047485,2.119877,-0.126767,-1.287905
-1.084473,0.364014,0.067505,1.881258,0.005326,-1.157943
-0.940674,0.384521,0.048096,1.602158,0.026632,-0.966195
-0.822266,0.371460,0.015991,1.307080,-0.035154,-0.835168
-0.780029,0.335205,0.010620,1.056743,-0.104396,-0.666856
-0.792725,0.301025,0.058716,0.824515,-0.142745,-0.509197
-0.860474,0.233154,0.101196,0.765925,-0.133158,-0.366451
-0.911133,0.152344,0.115601,0.844755,-0.137419,-0.260990
-0.940918,0.072754,0.098022,1.104680,-0.188552,-0.176834
-0.954956,0.014526,0.093384,1.492436,-0.263120,-0.111853
-0.948486,-0.042603,0.078247,2.037852,-0.352603,-0.019175
-0.920654,-0.040405,0.044556,2.587528,-0.432498,0.061785
-0.874023,-0.002930,0.042358,2.993394,-0.450607,0.173638
-0.843140,0.023315,0.051514,3.302321,-0.405866,0.300405
-0.814941,0.074097,0.048828,3.389673,-0.249272,0.380300
-0.815186,0.191406,0.076416,3.088203,-0.134223,0.376038
-0.817139,0.242310,0.116211,2.551309,-0.026632,0.334493
-0.813965,0.255615,0.165527,1.947304,0.078830,0.266316
-0.819214,0.211792,0.222168,1.469000,0.178964,0.187487
-0.811157,0.141235,0.245117,1.216532,0.239685,0.098004
-0.781860,0.069824,0.254517,1.220794,0.268447,-0.011718
-0.765991,0.040283,0.259888,1.399758,0.283360,-0.107592
-0.779297,0.031738,0.267334,1.659683,0.271643,-0.218379
-0.826660,0.008667,0.301392,2.159292,0.200270,-0.306796
-0.861328,-0.089355,0.300903,3.684751,0.190682,-0.247141
-0.926270,0.013428,0.227661,4.534832,0.205596,-0.292948
-0.995972,0.267212,0.132568,4.582769,0.183226,-0.383495
-1.040161,0.452271,0.072632,4.083160,0.087352,-0.383495
-1.058350,0.588135,0.027710,3.275690,-0.053263,-0.393083
-1.078369,0.649658,0.020386,2.404303,-0.194943,-0.383495
-1.110107,0.587280,0.038818,1.755557,-0.318514,-0.331297
-1.188843,0.480103,0.039551,1.434912,-0.400540,-0.296144
-1.325439,0.423950,0.039063,1.222924,-0.450607,-0.320645
-1.431152,0.427734,0.035156,0.913997,-0.433563,-0.245011
-1.440308,0.430054,0.014282,0.795753,-0.397344,-0.068177
-1.273926,0.433105,-0.035156,0.631702,-0.329167,0.132093
-1.107788,0.406372,-0.060913,0.411192,-0.200270,0.315318
-1.015747,0.376953,-0.025391,0.137419,-0.007457,0.465521
-0.936646,0.359619,0.039429,-0.156594,0.220510,0.637028
-0.849976,0.353149,0.072998,-0.499609,0.415453,0.776578
-0.795044,0.352417,0.075562,-0.950216,0.524110,0.852212
-0.787964,0.330322,0.068115,-1.426390,0.517719,0.878844
-0.795410,0.293823,0.040527,-1.808820,0.389887,0.841559
-0.819824,0.231689,-0.012085,-2.198707,0.076699,0.744620
-0.993164,0.173218,-0.008911,-2.356366,-0.166181,0.609331
-1.085693,0.093994,-0.008179,-2.341452,-0.438889,0.542220
-1.077271,0.027954,-0.014282,-2.150770,-0.630637,0.526241
-1.072998,-0.035400,-0.014404,-1.760883,-0.737163,0.515588
-1.104370,-0.088257,-0.011108,-1.140899,-0.797883,0.513458
-1.105469,-0.106934,-0.030029,-0.349407,-0.834102,0.521980
-1.089355,-0.092896,-0.050659,0.455933,-0.831972,0.524110
-1.072998,-0.057495,-0.045776,1.107875,-0.744620,0.515588
-1.069092,-0.017578,-0.025635,1.722533,-0.516653,0.461260
-1.054321,0.079834,-0.024902,1.831190,-0.369647,0.379234
-1.054443,0.122803,-0.022339,1.736382,-0.262055,0.271643
-1.040283,0.167969,-0.032349,1.516937,-0.229032,0.137419
-0.996216,0.208008,-0.022217,1.168596,-0.215184,0.025566
-0.936401,0.201782,-0.002563,0.807471,-0.192813,-0.054329
-0.877075,0.168091,0.013184,0.524110,-0.131028,-0.099070
-0.841309,0.134888,0.027954,0.350472,-0.051133,-0.141680
-0.827393,0.102661,0.042236,0.289752,0.014914,-0.192813
-0.828979,0.080322,0.047241,0.314253,0.046872,-0.300405
-0.840820,0.063965,0.044434,0.419714,0.028762,-0.385626
-0.861694,0.066772,0.041260,0.493218,-0.002131,-0.497479
-0.876221,0.088745,0.037109,0.542220,-0.025566,-0.617854
-0.886475,0.106201,0.031250,0.561395,-0.038350,-0.735033
-0.903076,0.115479,0.017578,0.567786,-0.043676,-0.841559
-0.928101,0.109863,0.002441,0.594418,-0.066046,-0.958738
-0.958374,0.110474,0.000244,0.698814,-0.086286,-1.107875
