filename,start_time,end_time,is_fall,gyro_x_list_mean,gyro_x_list_std,gyro_x_list_min,gyro_x_list_max,gyro_x_list_median,gyro_x_list_iqr,gyro_x_list_energy,gyro_x_list_rms,gyro_x_list_sma,gyro_x_list_skew,gyro_x_list_kurtosis,gyro_x_list_absum,gyro_x_list_DDM,gyro_x_list_GMM,gyro_x_list_MD,gyro_y_list_mean,gyro_y_list_std,gyro_y_list_min,gyro_y_list_max,gyro_y_list_median,gyro_y_list_iqr,gyro_y_list_energy,gyro_y_list_rms,gyro_y_list_sma,gyro_y_list_skew,gyro_y_list_kurtosis,gyro_y_list_absum,gyro_y_list_DDM,gyro_y_list_GMM,gyro_y_list_MD,gyro_z_list_mean,gyro_z_list_std,gyro_z_list_min,gyro_z_list_max,gyro_z_list_median,gyro_z_list_iqr,gyro_z_list_energy,gyro_z_list_rms,gyro_z_list_sma,gyro_z_list_skew,gyro_z_list_kurtosis,gyro_z_list_absum,gyro_z_list_DDM,gyro_z_list_GMM,gyro_z_list_MD,accel_x_list_mean,accel_x_list_std,accel_x_list_min,accel_x_list_max,accel_x_list_median,accel_x_list_iqr,accel_x_list_energy,accel_x_list_rms,accel_x_list_sma,accel_x_list_skew,accel_x_list_kurtosis,accel_x_list_absum,accel_x_list_DDM,accel_x_list_GMM,accel_x_list_MD,accel_y_list_mean,accel_y_list_std,accel_y_list_min,accel_y_list_max,accel_y_list_median,accel_y_list_iqr,accel_y_list_energy,accel_y_list_rms,accel_y_list_sma,accel_y_list_skew,accel_y_list_kurtosis,accel_y_list_absum,accel_y_list_DDM,accel_y_list_GMM,accel_y_list_MD,accel_z_list_mean,accel_z_list_std,accel_z_list_min,accel_z_list_max,accel_z_list_median,accel_z_list_iqr,accel_z_list_energy,accel_z_list_rms,accel_z_list_sma,accel_z_list_skew,accel_z_list_kurtosis,accel_z_list_absum,accel_z_list_DDM,accel_z_list_GMM,accel_z_list_MD,accel_magnitude_mean,accel_magnitude_std,accel_magnitude_min,accel_magnitude_max,accel_magnitude_median,accel_magnitude_iqr,accel_magnitude_energy,accel_magnitude_rms,accel_magnitude_sma,gyro_magnitude_mean,gyro_magnitude_std,gyro_magnitude_min,gyro_magnitude_max,gyro_magnitude_median,gyro_magnitude_iqr,gyro_magnitude_energy,gyro_magnitude_rms,gyro_magnitude_sma
10_1_1.csv,1970-01-01 00:00:00.220,1970-01-01 00:00:02.200,0,-0.05178235140363524,0.08186136514537566,-0.2528394113516789,0.28917768591001936,-0.04856860884908411,0.09570741187508065,0.9315682189319446,0.09651778172606043,0.07205137996847316,0.3457004390469126,3.1845435203666024,7.205137996847316,0.5420170972616982,12.012234701908051,0.1144685379402067,-0.022622773487701555,0.13003739109356224,-0.2584144621159997,0.21925412053232607,-0.007718151339610082,0.22746148617309306,1.7252415731871709,0.13134845157774686,0.11351887170912858,-0.16912543016711548,-1.225614945623186,11.351887170912859,0.4776685826483258,14.008146461072188,0.07302235488923323,-0.08781408154075358,0.09963936004015071,-0.21196003359644042,0.19149695295150126,-0.10021669269014313,0.10882507399748098,1.7540034965364795,0.13243879705495967,0.12098098068137482,1.1690983858324424,0.9448601377633046,12.098098068137482,0.4034569865479417,14.005812277051065,0.017930538520603945,1.1034527585062968,0.19699089631906772,0.7961293600325696,1.4820337954276819,1.1020112595128175,0.3843855730953296,125.60253493554197,1.1207253674988442,1.1034527585062968,0.029846620674509584,-1.3840311851518394,110.34527585062968,0.6859044353951123,88.00267305539357,0.011501446325222986,0.8444347918890972,0.20406077398947312,0.3106876684176261,1.1608692244897776,0.8464567835055619,0.3711587543409023,75.4294509239154,0.868501300654843,0.8444347918890972,-0.18054414876483785,-0.9531589251576915,84.44347918890972,0.8501815560721515,88.00410677166313,0.07381421262021781,0.15444277717933785,0.4435123299936213,-0.4696177422612545,0.8810754087637607,0.12226708519816157,0.8060944632273146,21.85887264106737,0.4675347328388274,0.3979164231213464,0.15650489912429738,-1.3596806720386514,39.79164231213464,1.3506931510250153,87.01048426476102,0.017335364800587505,1.4911109969618723,0.07451242012000765,1.3948827927045975,1.6299943690759313,1.4881711509878146,0.13054982075696442,222.89085850052476,1.4929529748137573,1.4911109969618723,0.19281077252707532,0.08367891304837755,0.09581613303623751,0.35756387435410797,0.16249243383754197,0.1509128790298227,4.410813288655594,0.21001936312291763,0.19281077252707532
10_1_1.csv,1970-01-01 00:00:01.320,1970-01-01 00:00:03.300,0,0.00862770600263498,0.04009843379631882,-0.07910723093215476,0.07562971664061187,0.0052101386384485835,0.06507345351191843,0.16662428598564893,0.040819638164203385,0.03469861692411762,-0.0912527908008318,-1.0175657120143757,3.469861692411762,0.15473694757276663,5.002393779276491,0.014023824250145249,0.02532221947351045,0.08616844736261799,-0.15684319839437072,0.20005192905303762,0.025443286555167546,0.1272026103662299,0.7991966106740055,0.08939779699041837,0.07393961406359877,-0.19717474590077128,-0.6770940077230279,7.393961406359876,0.35689512744740837,24.002653481063206,0.1262774831220031,-0.048027520235375806,0.07237544484124299,-0.13562013001026993,0.15030678633668307,-0.0703833058418708,0.05809139925289985,0.749246566576756,0.08655902994932163,0.08184594269984931,1.0862267888226786,-0.027497346922989774,8.184594269984931,0.285926916346953,7.005837152081947,0.044422326336321837,1.0204713386118849,0.13026356652905374,0.7961293600325696,1.2676886593667092,1.0151637910140188,0.22306696287215555,105.81606637255533,1.0286693656008004,1.0204713386118849,0.11962726073473677,-0.9995781827476153,102.0471338611885,0.47155929933413954,41.00271171730949,0.07404650154833603,0.8563920447131491,0.2049361832343491,0.4919279226190536,1.1608692244897776,0.9079217433284185,0.3777543635283285,77.49861850546445,0.8803329966862792,0.8563920447131491,-0.24590135718753933,-1.3518914645755764,85.63920447131491,0.668941301870724,46.004863682716724,0.07167228234329193,0.806558144068568,0.258274076156023,0.21761159160139232,1.1303393507900803,0.872369842249171,0.385453950409939,71.65744831934376,0.8465072257183854,0.806558144068568,-0.7211361176456582,-0.5594356671470897,80.65581440685679,0.912727759188688,74.00562865054518,0.1569335904667578,1.5923359282314926,0.11971187479298184,1.400688599025221,1.8065278432409628,1.617180657499249,0.18469072935669129,254.97213319736358,1.5967846855395487,1.5923359282314926,0.12587846643089728,0.036310756418538453,0.05707437982677571,0.22070899978414496,0.11614098783043161,0.04183507825227653,1.7150674632364105,0.1309605842700929,0.12587846643089728
10_1_1.csv,1970-01-01 00:00:02.420,1970-01-01 00:00:04.400,0,0.01071147904347128,0.03617068159342402,-0.07910723093215476,0.07562971664061187,0.007933229579130315,0.045604140859162805,0.14099708081622592,0.03754957800245243,0.02939479499824944,-0.07231117142300414,-0.3728238256812477,2.939479499824944,0.15473694757276663,5.002393779276491,0.014023824250145249,-0.011269016338413415,0.0929226147493582,-0.15684319839437072,0.20005192905303762,-0.02886857822771944,0.12707828363304138,0.8675256937774493,0.09314105935501535,0.07740497584372276,0.6280828342345123,-0.5403739280401907,7.740497584372275,0.35689512744740837,24.002653481063206,0.1262774831220031,-0.01117170818956156,0.07024795908987387,-0.13562013001026993,0.15030678633668307,0.009356804711028531,0.11313511121492253,0.5010235062602384,0.07078301394121604,0.05896912231924106,-0.1209441969092542,-0.9125995361199122,5.896912231924106,0.285926916346953,7.005837152081947,0.044422326336321837,1.1063253741040904,0.06100460429128882,0.984493267480091,1.2676886593667092,1.0929648969412498,0.06515505974388502,122.76401795138447,1.1079892506309998,1.1063253741040904,0.8664600469226554,0.6814305535309249,110.63253741040903,0.28319539188661813,9.004454432667524,0.07404650154833603,0.6178992760945109,0.07657143114953156,0.4919279226190536,0.8682325213645457,0.5940815204416766,0.04540885489364854,38.760406762572515,0.6225785634164777,0.6178992760945109,1.625513172293877,2.501706394973001,61.78992760945109,0.37630459874549205,24.00294992602028,0.07167228234329193,0.9658580574944935,0.09105543957509611,0.7341777260752161,1.1303393507900803,0.9586214678067895,0.1086095275486404,94.10899693724883,0.9700979174147775,0.9658580574944935,-0.3990450804566154,0.41616575474884243,96.58580574944935,0.39616162471486416,12.006537553886913,0.1569335904667578,1.5957406667422354,0.10023175678288436,1.4012797437346278,1.8065278432409628,1.5588761393685706,0.12749293885401625,255.63342165120582,1.5988540322718825,1.5957406667422354,0.11111932185383325,0.05268506697447012,0.013738553439033265,0.22070899978414496,0.10920739569010296,0.0724141791377832,1.5095462808539137,0.12286359431719038,0.11111932185383325
10_1_1.csv,1970-01-01 00:00:03.520,1970-01-01 00:00:05.500,0,0.008057737394430546,0.016528698943269252,-0.024807577036618834,0.05843012689889934,0.008327726927965969,0.020217061626223498,0.033539304178726206,0.01831373915363168,0.014361071803803034,0.4885963104931464,0.32584886822316017,1.4361071803803034,0.08323770393551817,58.00005972854991,0.012970182428176663,-0.02083112715819562,0.06292294542396425,-0.15547000533430436,0.17396126091177697,-0.020503136619094517,0.07487091286927333,0.43536399488998273,0.06598211840263866,0.05166662412948183,0.3144374904425151,0.2848118939567281,5.166662412948183,0.3294312662460813,54.00100485138383,0.058109328181168374,0.0030065381172103335,0.025226176541027635,-0.06414833584070842,0.06550233331591898,0.0034066172319181776,0.03386730474578645,0.06390356545005407,0.02527915454481302,0.020427738922043494,-0.2141156586758002,0.05536666248651789,2.0427738922043495,0.1296506691566274,55.00015281156965,0.01696221525977639,1.0965632971042127,0.018129264612316516,1.0377547861376661,1.1325862705767629,1.0988106733792764,0.02054140887250977,120.27764480890917,1.0967116522081324,1.0965632971042127,-0.715476702069443,1.039719316999014,109.65632971042128,0.09483148443909672,66.00006812883181,0.0149392064527345,0.5877793025114907,0.009768145135468618,0.5677193016487416,0.6039673524890272,0.5907862430925597,0.012522053926644183,34.5578970953688,0.5878596524287817,0.5877793025114907,-0.6523181397275486,-0.5501404469133138,58.77793025114907,0.036248050840285595,8.00008211965288,0.010435044938870153,0.9208808531238083,0.03657759935552307,0.8375242368703981,1.030820488542868,0.9222109609942275,0.04353950223315528,84.93460872169,0.9215997434987164,0.9208808531238083,0.12725455291549548,0.18695731316971065,92.08808531238083,0.1932962516724699,80.00023352116487,0.02296589128781834,1.5483739570629669,0.015556847491939592,1.5114593551343036,1.621628553472829,1.5479970971976091,0.014247921874694924,239.770150625968,1.5484513251179968,1.5483739570629669,0.06160158120956954,0.03935481998727406,0.005048707129442101,0.17652708429783134,0.0536507027415932,0.061705499562021385,0.5328068645187631,0.07299362057870284,0.06160158120956954
10_1_1.csv,1970-01-01 00:00:04.620,1970-01-01 00:00:06.600,0,0.0015558027512163786,0.010298395787331625,-0.024807577036618834,0.040340135617495054,-0.0012861363630948016,0.007543679711277424,0.010741690843529694,0.010364212870994928,0.006950037575329462,1.0847445863063565,2.835196425602773,0.6950037575329462,0.06514771265411388,12.000176841382967,0.012970182428176663,0.0009470394336074702,0.04079290598488293,-0.15547000533430436,0.08200234861061241,0.01302190870391877,0.03753394364181356,0.16483174505933904,0.04059947598914782,0.028977421229820437,-1.667059986523865,3.602058563225951,2.8977421229820437,0.23747235394491678,12.002349483284018,0.028371819454157753,0.004014534813963698,0.014883888669067617,-0.020534049434762502,0.06550233331591898,0.0024950885809510858,0.013433663842499595,0.023543133026659394,0.015343771709283019,0.010286482206044787,1.6954616035248717,4.5306164133585725,1.0286482206044787,0.08603638275068148,9.000411227224944,0.009696479164510986,1.1143344574758134,0.010455891107995977,1.081922874780533,1.1325862705767629,1.1182965948393648,0.00909343001470786,124.1849515520189,1.1143830201148028,1.1143344574758134,-1.4026693337569913,1.197459499762679,111.43344574758133,0.050663395796229915,23.000055799490436,0.006495307153362884,0.5886772655891248,0.005083230303893469,0.5809004110452091,0.6023197138144687,0.5874909657434428,0.00823819337279208,34.656650385950826,0.5886989925755847,0.5886772655891248,0.3726974153851131,-0.7451065107523158,58.86772655891248,0.02141930276925963,56.00000409630816,0.004393703132155813,0.8846234522531651,0.02037328474352871,0.8375242368703981,0.9389569233915951,0.8783524880487417,0.007655297095939373,78.29695723002368,0.8848556787975296,0.8846234522531651,1.0504266264609474,0.5654417290983011,88.46234522531651,0.10143268652119697,9.000571570177913,0.013396769917893958,1.5399166934784554,0.006526467195612531,1.5220650744949538,1.5632561611740559,1.5380718175038064,0.0057929779045575724,237.13855916799344,1.5399303853356276,1.5399166934784554,0.03357599621831884,0.02953884905129981,0.0036827295100011134,0.16192558873283674,0.02371675270320415,0.023295329728131628,0.19911656892952814,0.044622479640818724,0.03357599621831884
10_1_1.csv,1970-01-01 00:00:05.720,1970-01-01 00:00:07.700,0,-0.00016816302988348762,0.0032764765545913637,-0.009433310451274421,0.005955796159731525,-0.0011352627688692532,0.004224460638315358,0.0010656224431278623,0.003264387297990026,0.002681765931823524,-0.2608915563278472,0.17145327419645673,0.26817659318235243,0.015389106611005947,73.0000016220863,0.003922713449864262,0.01697479125117042,0.009169882072760977,-0.0037997062818940133,0.03943336374855557,0.016111593089068055,0.012930901315624794,0.03713894078768716,0.019271466157946355,0.017065454322077428,0.30497800861654056,-0.2966458737107014,1.7065454322077427,0.043233070030449586,95.00000983735919,0.006408234280309632,0.0023860031903503373,0.006477064498000576,-0.014473749956943137,0.015827747432153687,0.0024950885809510858,0.00802989680811066,0.004722585209050885,0.00687210681599965,0.0054315538262887965,-0.04483587953572116,-0.13939857912164122,0.5431553826288796,0.030301497389096824,73.00000628890893,0.00363617968669162,1.1179068764101632,0.0019275197228591256,1.1143994105473471,1.1221937791313825,1.1180800846009193,0.0033017811362927585,124.97194625040868,1.1179085215276279,1.1179068764101632,0.21800024075426516,-0.8173469109238369,111.79068764101632,0.007794368584035372,88.00000034518285,0.001299061430672488,0.581419417227695,0.003561530209879029,0.5759574950215338,0.5924338817671181,0.5809004110452091,0.005835386972394496,33.8061096381854,0.5814302162614651,0.581419417227695,0.6383562941417651,-0.28113686319628783,58.141941722769495,0.01647638674558427,69.00000196718345,0.0008238193372792635,0.8824225543380824,0.004916112014417678,0.8738868980761103,0.891111316541974,0.8844129315830269,0.007416069061691344,77.86934908803114,0.8824361115006069,0.8824225543380824,-0.3558057889703217,-1.1388672377899114,88.24225543380824,0.017224418465863645,61.00000243180808,0.0019138242739848987,1.5383343973188346,0.0011598467117230969,1.5353919842271293,1.54136334374776,1.538077721812218,0.0014116512900073097,236.6474049766252,1.5383348301869304,1.5383343973188346,0.019030470301204784,0.00823350413966008,0.0036827295100011134,0.043525798227856405,0.0175224504230821,0.010071518367222847,0.0429271484398659,0.020718867835831642,0.019030470301204784
10_1_1.csv,1970-01-01 00:00:06.820,1970-01-01 00:00:08.800,0,-0.0012383218004133544,0.006815597631439183,-0.03114426799409187,0.005955796159731525,0.0005243467676117799,0.0063366909574730365,0.004752128824432157,0.006893568614608951,0.004441886736496664,-2.2552817312704887,5.979055771976951,0.4441886736496664,0.037100064153823394,70.00000983153332,0.004978828609443101,0.0035894230629613727,0.0160755857672775,-0.05939151385294074,0.0284703306296652,0.007872434728669959,0.014075228865680082,0.026872417110840298,0.016392808518017984,0.01211457389200282,-1.9329160936957297,4.6305426625146815,1.211457389200282,0.08786184448260594,76.00005078750748,0.01646706103997598,0.007607914877457865,0.011267196943294666,-0.014473749956943137,0.035200835926822154,0.005525238319860768,0.015756778642330348,0.018356059847204353,0.013548453729929608,0.010446431810829044,0.34084991773878476,-0.6412041582814045,1.0446431810829044,0.04967458588376529,59.00002091155971,0.005454269530037429,1.1206998584861092,0.006090223360078041,1.1143994105473471,1.1377825162994533,1.1182965948393648,0.007144837868699128,125.60048927231547,1.1207162409473481,1.1206998584861092,1.2924729395024814,0.5366912367930485,112.06998584861091,0.023383105752106115,54.000005062681566,0.003031143338235953,0.5727528377995177,0.008190280380344294,0.5512429149031572,0.5809004110452091,0.5761634498558537,0.007894935315592488,32.81122230931821,0.5728108091623115,0.5727528377995177,-1.251630537937091,0.46100888486929614,57.275283779951764,0.02965749614205182,67.0000065639331,0.001647638674558416,0.8806618360060167,0.00860482188663069,0.8566624796102467,0.891111316541974,0.8834560194460346,0.006857870315112313,77.5638571927592,0.8807034528872882,0.8806618360060167,-1.3562830307988045,0.801643120387213,88.06618360060166,0.03444883693172729,86.00000689954837,0.005103531397293026,1.536142713403743,0.004633191682343356,1.519332124745661,1.542554149809019,1.5375733092893067,0.0038992967962476754,235.97556877439288,1.536149630649283,1.536142713403743,0.01934303349509909,0.011265981377412485,0.0033935350843932346,0.06342517407515179,0.016811101684307186,0.008845528947948862,0.0499806057824768,0.022356342675508623,0.01934303349509909
10_1_1.csv,1970-01-01 00:00:07.920,1970-01-01 00:00:09.900,0,-0.0016693800258037977,0.011304112515726248,-0.035670475820858326,0.012292487117204562,0.0014295883329650707,0.012937410704840783,0.01292919598410695,0.011370662242854173,0.008607140635212986,-1.152340463564305,0.7331736403909854,0.8607140635212985,0.04796296293806289,13.000088478384052,0.006638438145924134,0.0008560935325801245,0.018522299188192454,-0.05939151385294074,0.04355294292875461,0.002608527998415618,0.017496768240345406,0.0340377707681271,0.018449328109209587,0.013615843343616678,-0.8321662480840433,1.4027562291122915,1.3615843343616678,0.10294445678169535,53.00009997689799,0.01646706103997598,0.007181985108256109,0.013330530002008173,-0.020534049434762502,0.035200835926822154,0.009767447954334324,0.018236533969647913,0.022750690992830818,0.015083332189151977,0.01297386676347802,-0.204473200573846,-0.8316272634271704,1.297386676347802,0.055734885361584656,48.000032358087495,0.008484419268947113,1.1317158994182122,0.007344981009035728,1.1169975334086921,1.141679700591471,1.1338853320074356,0.012990614306725767,128.0834286254536,1.1317394957562168,1.1317158994182122,-0.678283910568466,-1.001523457742608,113.17158994182122,0.024682167182778825,88.00000346141685,0.003031143338235953,0.5557821594515658,0.011301395975106788,0.534766528157573,0.5743098563469754,0.5530965084120355,0.017780767362943095,30.902025310012203,0.5558959013161745,0.5557821594515658,0.26532673390110223,-0.9624005089309509,55.57821594515658,0.03954332818940243,64.00001221620823,0.0028833676804773667,0.8692171668475872,0.007923472812118564,0.8566624796102467,0.8853698437200194,0.8662316009801709,0.012280372424736119,75.56006367497368,0.8692529187467458,0.8692171668475872,0.5644990992156446,-0.891035303211257,86.92171668475872,0.028707364109772704,20.00002060280824,0.005103531397293026,1.5314796090674994,0.005063547170997497,1.519332124745661,1.542554149809019,1.531953684777199,0.00727101612895642,234.5455176104395,1.5314878961664682,1.5314796090674994,0.023516561944830344,0.012066645393653019,0.0033935350843932346,0.06342517407515179,0.021149765008992134,0.013419475149414335,0.06971765774506487,0.026404101527047814,0.023516561944830344
10_1_2.csv,1970-01-01 00:00:00.500,1970-01-01 00:00:02.480,0,0.07413664045876875,0.07206925955326478,-0.029333784863385292,0.22765093951731863,0.060175361027887786,0.11121397897905558,1.0638279849343035,0.10314203725612092,0.07895618168895134,0.5463530033188443,-0.7893035007362745,7.895618168895134,0.2569847243807039,63.000524133919434,0.0031884855135628914,-0.015998002132170997,0.05213231602511992,-0.14527879032880023,0.03668697762842287,0.006494417805394942,0.06818651242026769,0.2946536662622493,0.054282010488029026,0.03843191909091109,-1.1199290112176308,-0.05514768831855976,3.8431919090911095,0.1819657679572231,99.00016722986233,-0.0006099507034955085,0.1377500445169849,0.06711766385979984,-0.05012023278713314,0.20846579148939548,0.15910249967716847,0.05612648668030168,2.3434807758408436,0.15308431584721027,0.1417500401572907,-1.3754303355038506,0.8824458683398189,14.17500401572907,0.2585860242765286,36.00092869263168,0.0011347883175224782,1.1117530368328625,0.16158512569036917,0.8389983872447642,1.4222769696167439,1.108996964597566,0.26587457281098403,126.1843470223021,1.123318062804574,1.1117530368328625,0.09704848658306081,-1.0772033720937713,111.17530368328626,0.5832785823719797,63.002700052495,0.012928754238598517,0.8040307016625173,0.19160979148956298,0.32292727000006016,1.0982589548565571,0.8198930160893932,0.2730111130748488,68.28125382886472,0.8263247172199601,0.8040307016625173,-0.5513829064627065,-0.29232096352046,80.40307016625174,0.775331684856497,36.00834818790696,0.007479756522598802,0.4660919558100955,0.3496733094608123,-0.26483854494487563,0.8604901281582163,0.6193482696361252,0.5815405676348371,33.82904203866643,0.5816273896462101,0.5080325635234552,-0.6669141788978553,-0.9794031534149519,50.80325635234552,1.125328673103092,63.01004971131596,0.017862359890525314,1.5102347275551404,0.04646598174337532,1.4517433128652153,1.6280461560962196,1.4969232364165497,0.06404457767905569,228.2946428898332,1.510942232151293,1.5102347275551404,0.18771711541348945,0.04242532180806408,0.10966022508909128,0.2682029011607349,0.19589541660347518,0.054746232415544105,3.7019624270373956,0.19240484471648303,0.18771711541348945
10_1_2.csv,1970-01-01 00:00:01.600,1970-01-01 00:00:03.580,0,0.01525031623191396,0.03520232500397632,-0.029333784863385292,0.10458260670625565,0.006861037725084816,0.04217323292640051,0.14593837940020993,0.03820188207408241,0.027148426358070438,0.9507975097265979,0.03192019152759107,2.714842635807044,0.13391639156964094,42.000213494694655,0.007845426899728522,-0.02707455683190526,0.07142775732917386,-0.16920193593496785,0.1053241192700999,-0.022004028057990233,0.11564555461390741,0.5783936899548664,0.07605219851883746,0.06203617315297115,-0.2258901141159714,-0.9540866923167863,6.203617315297115,0.27452605520506773,16.002354969034602,0.04209624626760777,0.03050325936355211,0.09136637534435103,-0.09321790349988787,0.20846579148939548,0.0037071484765149607,0.12684819460301833,0.9194785229929318,0.09588944274490971,0.07218960785333682,0.6854931588813952,-0.7062255875350849,7.218960785333683,0.3016836949892834,42.00108347473696,0.04523036626669776,1.1963581241095012,0.1797519726999884,0.8389983872447642,1.5417906212386197,1.2783285910845987,0.2618382033656803,146.32604250954458,1.2096530184707703,1.1963581241095012,-0.6694736359052076,-0.7406733848870903,119.63581241095011,0.7027922339938555,45.00548763122295,0.05326151865757511,0.49288472993506516,0.3074469073618516,0.09649464072502974,1.0982589548565571,0.3082162104057884,0.46307473390848536,33.65137218410654,0.5800980277858782,0.49288472993506516,0.8483087810484584,-0.821849433933052,49.28847299350652,1.0017643141315273,45.011148971572226,0.03427088443081544,0.6501704095686514,0.12766892823872059,0.4375349636075644,0.8604901281582163,0.6673989290865306,0.22301748697500834,43.8857923163915,0.6624635259121177,0.6501704095686514,-0.03039956244893272,-1.3706224362673654,65.01704095686513,0.42295516455065196,50.00178887871133,0.04593178257563646,1.4944367892717492,0.07310400071663613,1.3435093257778843,1.718695576389199,1.4883335358302832,0.09715883907367617,223.86320701004263,1.4962058916139938,1.4944367892717492,0.11571560317503511,0.05548687264276688,0.011332650223953975,0.21967338091478156,0.11180027096194237,0.09094575234470967,1.643810592348008,0.1282111770614406,0.11571560317503511
10_1_2.csv,1970-01-01 00:00:02.700,1970-01-01 00:00:04.680,0,0.0004979908820369034,0.01399783375648417,-0.056476191798322486,0.03309820309466872,0.004824244203039911,0.007807708501172134,0.019422795129401794,0.01393656884939826,0.009830393734837507,-1.5535411433337325,3.3495541385667624,0.9830393734837507,0.08957439489299121,36.000111438330585,0.02895289006564378,0.01962374819812333,0.038542839725781305,-0.10056479429329081,0.1053241192700999,0.021489932574327925,0.03550885906757636,0.18557864825293416,0.04307884031086888,0.035309697152040374,-0.9038031486015199,1.4049412846575895,3.5309697152040376,0.2058889135633907,36.00058874858477,0.07961143044138763,-0.010063183215992326,0.03164468911925134,-0.09321790349988787,0.07275482285494872,-0.004171240844650217,0.01757486848567616,0.10926401423981533,0.033055107659757416,0.0211853504207528,-0.6312545916291608,1.1705148066818807,2.1185350420752798,0.1659727263548366,7.001967362527024,0.02846850516998589,1.305370534286228,0.025526634960642336,1.241707430753258,1.421757345044475,1.3027633179948686,0.01039249144538057,170.4637324784203,1.3056176028164614,1.305370534286228,1.7299264783003572,6.718394109246937,130.5370534286228,0.18004991429121686,3.0053981386226143,0.029012371951687266,0.27899039559647093,0.019981453349643997,0.16503640958666058,0.3139829457667429,0.28020635293829504,0.00823819337279219,7.823090672825969,0.27969788474041,0.27899039559647093,-2.6491521107194984,12.504627753981785,27.899039559647093,0.14894653618008233,24.000462184521364,0.03427088443081544,0.5236379176941427,0.03327501795270457,0.4375349636075644,0.6327450395540192,0.5236570559368827,0.013556255274059348,27.529282339861314,0.5246835459575735,0.5236379176941427,0.24717552393682413,2.203691346054628,52.36379176941427,0.1952100759464548,11.001731998815051,0.04593178257563646,1.4342716154625095,0.03219241377539697,1.3435093257778843,1.5626146157552414,1.4324879878701702,0.00874121529841898,205.81610549110752,1.4346292395288323,1.4342716154625095,0.046129118205513915,0.03201576363314439,0.00791392214005593,0.14449304025119192,0.0346600414175975,0.046035678765270455,0.3142654576221513,0.05605938437248052,0.046129118205513915
10_1_2.csv,1970-01-01 00:00:03.800,1970-01-01 00:00:05.780,0,0.0046250910586621875,0.002554636259916672,-0.00038089479774151093,0.010482003986497979,0.004597933811701588,0.00392271344986426,0.0027852372057193143,0.005277534657128567,0.004654128122782806,-0.1335682859824148,-0.6012208153354219,0.4654128122782806,0.01086289878423949,58.00000101726353,0.0022631039133832274,0.011563847810467992,0.013954901097899285,-0.020964619532723387,0.04904571516902002,0.013132589565317557,0.01705048049582384,0.032651444818929454,0.018069710794290386,0.014778686737739077,0.07567818566607794,0.11710247348378466,1.4778686737739077,0.0700103347017434,79.00003102181014,0.007773923553162504,-0.0056491591238640015,0.008209644198831384,-0.030210658764919983,0.007343328163206578,-0.003767220879462258,0.008484419268947111,0.009863727409942763,0.009931629982003339,0.006808036949735714,-1.2044429859141166,1.1783025626535433,0.6808036949735714,0.03755398692812656,63.0000111928715,0.0060602994778193656,1.3023151418012866,0.0023251568078756384,1.2962680108415057,1.3118567480095764,1.3023302975179776,0.0017320819075634653,169.60300808555445,1.3023171967134368,1.3023151418012866,0.5097841360402979,3.4214124050321355,130.23151418012867,0.015588737168070743,91.00000133521277,0.004763225245799418,0.28327096087297376,0.005426597987065523,0.27443961757734053,0.3024494750448339,0.2826778109501327,0.005080219246555162,8.02715907599539,0.2833224148562092,0.28327096087297376,1.3234423553041161,1.8657517999159698,28.327096087297374,0.02800985746749335,87.00000450892009,0.004393703132155813,0.5246905210448344,0.004597025058783165,0.5102602860189887,0.5332261773068069,0.5255708802108675,0.004784560684962136,27.532106418729704,0.5247104574785002,0.5246905210448344,-1.0020126091125592,1.0889431554227103,52.46905210448344,0.02296589128781823,51.00000517090329,0.007655297095939484,1.4323444344734093,0.003504230609429195,1.4238713187511798,1.4480241601639066,1.4323799647589714,0.0025951724436210633,205.16227358027948,1.4323486781516555,1.4323444344734093,0.018649333451856084,0.010308692818375825,0.0028479069457738987,0.04936816530091257,0.016017717168256857,0.012423934517545126,0.045300409434591536,0.021283892838151467,0.018649333451856084
10_1_2.csv,1970-01-01 00:00:04.900,1970-01-01 00:00:06.880,0,0.004895758286702821,0.0027999669908854935,-0.00038089479774151093,0.011387245551851272,0.004145313029024943,0.004661994061569448,0.0031729866200367234,0.005632926965651803,0.004903376182657651,0.4578591931745863,-0.6433222127774663,0.49033761826576516,0.011768140349592783,26.00000266325231,0.0031683454787365195,0.005880066666683528,0.01724074773486155,-0.027808073471414698,0.04492613598882096,0.006327592536095315,0.022360160328080393,0.03288461326372051,0.018134115160029315,0.014649688006940397,0.24433335892335786,-0.525305862125724,1.4649688006940398,0.07273420946023566,34.000077797929016,0.016478316720796197,-0.00897081920257397,0.00978017986785157,-0.039907137929430965,0.003707148476514959,-0.006393350653183983,0.012938739385144345,0.017517099623032377,0.013235218027305925,0.009718952368730726,-0.8883580381887872,0.16962328499676538,0.9718952368730727,0.043614286405945925,27.000035226013665,0.007676379338571196,1.3031166627040116,0.0034881115983929154,1.294968949410833,1.3118567480095764,1.302113787279532,0.002598122861345198,169.81250818701378,1.3031212844053073,1.3031166627040116,0.914711305744188,1.017538698985359,130.31166627040116,0.016887798598743453,38.00000375260168,0.008443899299371838,0.2932918992916381,0.008773684714875,0.27938253360101584,0.30838097427324423,0.29311285588900277,0.01585852224262485,8.60963459581377,0.2934217884856844,0.2932918992916381,0.14922121308902866,-1.162207800973836,29.32918992916381,0.0289984406722284,99.0000042470179,0.006590554698233775,0.5210657378699072,0.006635476972937424,0.5045188131970342,0.5351400015807918,0.5217432316628978,0.009569121369924272,27.15530924410226,0.5211075632161009,0.5210657378699072,-0.4554963697438171,-0.3996579332436663,52.106573786990715,0.030621188383757603,39.00001202124402,0.007655297095939484,1.4337897335128624,0.004662372744593365,1.423981058124738,1.4480241601639066,1.4326915558715214,0.004000619148739837,205.57745202692982,1.4337972381997737,1.4337897335128624,0.01994615827464187,0.011802146917808095,0.0028479069457738987,0.05069195441422101,0.01641661029400008,0.018536034152969373,0.05357469950678961,0.023146209086325475,0.01994615827464187
10_1_2.csv,1970-01-01 00:00:06.000,1970-01-01 00:00:07.980,0,0.002321251274838063,0.0037597044218971153,-0.004001861059154675,0.010482003986497979,0.001429588332965071,0.005129702203668648,0.001938223104756972,0.004402525530598286,0.0032393546953372776,0.6145540757606351,-0.569447093412399,0.32393546953372776,0.014483865045652654,39.000002689517174,0.0022631039133832274,0.004563489681142865,0.01231305783411797,-0.027808073471414698,0.03852540549572481,0.006499241668603609,0.013846363355669026,0.017092071736396795,0.013073665031809862,0.010680037371466295,-0.3971642990300602,0.5656843884792475,1.0680037371466296,0.06633347896713951,33.00006666857556,0.016478316720796197,0.00047760494986784244,0.011727501538517161,-0.039907137929430965,0.019463927118845308,0.004414183415593885,0.013938688798984543,0.013638705590070141,0.011678486884040305,0.009455554861213253,-1.1277652805388483,1.0389212797904084,0.9455554861213253,0.05937106504827627,34.00005183706879,0.007676379338571196,1.3060109715715498,0.003982288127296272,1.294968949410833,1.3118567480095764,1.306660502286886,0.006300447938761611,170.56803578978054,1.3060169822394367,1.3060109715715498,-0.6403837880297087,-0.3177744543911687,130.60109715715498,0.016887798598743453,2.000071298164521,0.008443899299371838,0.29882466996080526,0.006263462083005274,0.28926836564836644,0.3090400297430676,0.2975065590211586,0.01119021266470932,8.93350220248768,0.2988896485743138,0.29882466996080526,0.10564684887051515,-1.3634101168289838,29.882466996080524,0.019771664094701158,51.000003832536144,0.006590554698233775,0.5122506632639329,0.009188760339440504,0.4968635161010947,0.5351400015807918,0.5108184847655677,0.016267506328871195,26.248433099774914,0.5123322466893424,0.5122506632639329,0.46777821026252436,-0.8538656681796919,51.22506632639328,0.03827648547969709,89.00000823083862,0.0038276485479697975,1.4343928501878072,0.004127054190778091,1.4250524960068773,1.4445289822986398,1.4336192958355805,0.004233851127934507,205.7499710920431,1.4343987280112984,1.4343928501878072,0.015944095730577628,0.008556161206542266,0.002931556437606008,0.04187566925337122,0.013785661863649861,0.009213283542198768,0.032669000431223914,0.018074567887289564,0.015944095730577628
10_1_2.csv,1970-01-01 00:00:07.100,1970-01-01 00:00:09.080,0,0.0004428750267299838,0.0020241839479958417,-0.004001861059154675,0.005955796159731525,0.00052434676761178,0.0021122303191576787,0.00042524857380718756,0.002062155604718489,0.00150618329668925,0.5156535779093323,0.5048049539700936,0.150618329668925,0.009957657218886199,97.00000051110793,0.0022631039133832274,0.008997440026650545,0.009288613954912352,-0.020964619532723387,0.035313784568356515,0.009245627788736308,0.012015439275580558,0.016636949274453187,0.012898429855782132,0.01038358964736223,0.11277138807787727,1.538239873985098,1.038358964736223,0.0562784041010799,26.00006090875112,0.012808964773405786,0.0062585345566769125,0.00547439222053862,-0.012049630165815391,0.019463927118845308,0.007343328163206578,0.004141204643176567,0.006883853527956989,0.008296899136398483,0.007500624962709272,-0.9437431516587533,1.827655902957416,0.7500624962709271,0.031513557284660695,97.00000511909415,0.00363617968669162,1.3094924562057522,0.0019980296606001736,1.304062379425541,1.3131558094402491,1.309605041529744,0.002598122861345198,171.47744450610733,1.3094939652633277,1.3094924562057522,-0.3026981777628643,-0.5278573681184642,130.94924562057523,0.009093430014708082,55.000000751731534,0.00129906143067271,0.2878266818081278,0.007421431031742821,0.27608725625189895,0.3040971137193923,0.287620726973808,0.009336619155831116,8.289872562285057,0.28792138792186067,0.2878266818081278,0.3985592632038745,-0.923913044529654,28.78266818081278,0.02800985746749335,95.00000412922158,0.0016476386745584715,0.4999064966967306,0.005771718642284465,0.4892082190051553,0.5121741102929736,0.5002127085805682,0.009569121369924327,24.99394850483231,0.49993948138582045,0.4999064966967306,0.056297235229868556,-0.5421015858207965,49.99064966967306,0.02296589128781823,55.00000479483763,0.004784560684962136,1.4309459716505453,0.002519008407812456,1.4253201146228716,1.4370075224020387,1.4305155085766188,0.0032945194617808315,204.76126557322476,1.4309481666825838,1.4309459716505453,0.01414360879213648,0.006310072443290095,0.005217349653496039,0.0374232526894413,0.013566780522202795,0.008244758932316429,0.023946051376217366,0.015474511745517972,0.01414360879213648
10_1_3.csv,1970-01-01 00:00:02.280,1970-01-01 00:00:04.260,0,-0.0008560724194236806,0.042007228697202886,-0.15692832550121472,0.1000563988794892,0.004444586879865786,0.020367935220449045,0.1747694050178212,0.04180543086942427,0.025283198859925644,-0.9207605981635018,3.7641457017680193,2.5283198859925644,0.2569847243807039,9.003668205157553,0.05021864683861535,-0.014351644418294023,0.04921685924719063,-0.19527009271458803,0.09296538172950276,-0.008605881992126238,0.05133012542049245,0.2604045939325346,0.05102985341273622,0.03529803633088083,-1.314264299453863,2.6096915047930387,3.5298036330880826,0.2882354744440908,5.008301078083067,0.07411865820112223,0.0027043179366935035,0.06306612456301473,-0.19741531484967395,0.18907283316037352,-0.0035652108968682794,0.024338891263515534,0.39448760422264356,0.06280824820217831,0.0356662664889698,0.7225685802187842,3.1635088030541847,3.56662664889698,0.3864881480100475,14.005333737135729,0.06542142960891889,1.038817851408433,0.03652126396978594,0.9468204859905867,1.1286890862847452,1.0429510318603563,0.0174561379746625,108.04629930995647,1.0394532183314287,1.038817851408433,-0.22247902014062612,1.593438514732275,103.8817851408433,0.18186860029415852,2.0082520229724548,0.0545605800882476,0.6148911969013495,0.04632565811383289,0.424374736962158,0.7588453878975199,0.6187961005600531,0.013181109396467439,38.02157899604572,0.6166164042258827,0.6148911969013495,-0.5351193012937329,5.7148061499029925,61.489119690134956,0.3344706509353619,10.005591967311936,0.09226776577527229,1.0169516419707243,0.08773816094090656,0.8336965883224284,1.296842062626762,1.0046648901317417,0.041306707246839824,104.1811647143392,1.0206917493265986,1.0169516419707243,1.0476395471184319,2.0368479480766033,101.69516419707243,0.4631454743043336,6.017848762669978,0.11355357358976781,1.580561074742355,0.06603579693984324,1.4369184562531812,1.7708281413700282,1.57527730106086,0.019985868467696122,250.24904302034136,1.5819261772293338,1.580561074742355,0.0629451544192255,0.06616877385294265,0.006394850693337893,0.2507764871548801,0.034061699867429435,0.04393486279048936,0.8296616031729995,0.09108576195943027,0.0629451544192255
10_1_3.csv,1970-01-01 00:00:03.380,1970-01-01 00:00:05.360,0,0.0030822795908162764,0.00687701029938571,-0.007622827320567838,0.01951957961436936,0.0006752203618373285,0.010183967610224522,0.005632078542724113,0.007504717544800811,0.005510589048392788,0.7532060096982619,-0.44119590816847243,0.5510589048392788,0.027142406934937198,38.00000969355474,0.006935238659154722,0.005471614089261918,0.019669382032481995,-0.04977916243247629,0.03668697762842287,0.010847686358813717,0.02814482989095006,0.04129543043861377,0.020321277134721077,0.017582934508232714,-0.6991265665479913,-0.12350690766029748,1.7582934508232713,0.08646614006089917,10.000373812682055,0.021273236750208206,-0.001956634264041368,0.009066061499748783,-0.02295816922589025,0.013403627641025945,0.0012830286853872128,0.011666076494802278,0.00851999540492756,0.009230382118269839,0.007070255180186728,-0.8052975548198912,-0.32336586592085403,0.7070255180186727,0.03636179686691619,18.000036727192292,0.006464319443007324,1.0450981948250537,0.003387894403618408,1.0364557247069934,1.0520444618750642,1.0447913688871426,0.003897184292017686,109.22415998767912,1.045103631166207,1.0450981948250537,0.10029842645421569,-0.213168423564027,104.50981948250538,0.015588737168070743,20.00000607521724,0.004330204768908663,0.6178487083221819,0.004641001572031121,0.6023197138144687,0.6253866552582868,0.6187961005600531,0.007414374035512927,38.175834988202446,0.6178659643337092,0.6178487083221819,-0.7469983264704845,0.43517658640702583,61.78487083221818,0.023066941443818156,48.000005542539135,0.009062012710071454,1.000001082645019,0.00742400059041955,0.9887163545152012,1.0327343128168527,0.9982854758851254,0.005900958178119975,100.00567299181292,1.0000283645567905,1.000001082645019,1.7871964052817515,4.165611744442195,100.0001082645019,0.04401795830165145,7.0001383972499465,0.008293238520601154,1.5729070585839742,0.004501933776988622,1.561009587580792,1.5916642532500016,1.572160966558125,0.005340617908839551,247.40566796769443,1.572913436803483,1.5729070585839742,0.021300644599352735,0.010088376325432899,0.0052947318808915615,0.056549074910512975,0.019964698973922848,0.0129184258127343,0.05544750438626545,0.023547293769404894,0.021300644599352735
10_1_3.csv,1970-01-01 00:00:04.480,1970-01-01 00:00:06.460,0,-0.0014581322605119274,0.003677464932648324,-0.009433310451274421,0.005050554594378234,-0.0012214762512838522,0.005544604587788908,0.0015514660536695183,0.0039388653869731555,0.0032178867050290916,-0.08722541862935168,-0.8090238961303666,0.32178867050290916,0.014483865045652654,21.000004994817182,0.004526207826766455,0.0169526175599546,0.0144510689208479,-0.025061687351282003,0.050418908229086366,0.01611159308906806,0.014329888644237468,0.049413630115962615,0.022229176798964603,0.019206543611702088,-0.2334321652483295,0.8839715093253906,1.920654361170209,0.07548059558036838,16.000178040269088,0.015555350893538487,0.004748526494982215,0.007088963295535098,-0.0072013905835598985,0.02914053644900279,0.003858655963460443,0.006666329425601302,0.0072299370472937476,0.008502903649515116,0.0060803139912410965,1.3826891951844467,2.7361811830654177,0.6080313991241096,0.03634192703256269,32.00002063648804,0.0066563945084245485,1.0450814926066594,0.0028591864653695546,1.0403529089990111,1.0559416461670819,1.0446831137679198,0.003897184292017686,109.2203419386734,1.0450853646409628,1.0450814926066594,0.7976052718413554,1.185084202428809,104.50814926066593,0.015588737168070743,10.000012150428944,0.003897184292017686,0.613251796420164,0.0058419883148457166,0.5990244364653519,0.6253866552582868,0.6138531845363778,0.006178645029594199,37.61115533517544,0.6132793436532445,0.613251796420164,-0.4330199200502308,0.3382509328641552,61.3251796420164,0.026362218792934988,91.00000381849762,0.0013730322287986985,0.9999505030034923,0.003819385744458356,0.9925440030631709,1.0116822458030195,1.0001993001591103,0.004511157217250039,99.99154502873273,0.9999577242500441,0.9999505030034923,0.17986126551107354,0.25886113821036627,99.99505030034923,0.019138242739848543,72.00000254355784,0.0066983849589470346,1.5710576901624982,0.0028704708888533893,1.5649559418341061,1.5809970116721042,1.5709153936079756,0.0028819371396577864,246.8230423025816,1.5710602862480536,1.5710576901624982,0.021561654277050514,0.0108732549746451,0.004958530470463729,0.051658940210315564,0.019568269362306705,0.013286669891812557,0.05819503321692587,0.024123646742755512,0.021561654277050514
10_1_3.csv,1970-01-01 00:00:05.580,1970-01-01 00:00:07.560,0,-0.0004065433087598543,0.004227415301484268,-0.009433310451274421,0.010482003986497979,-7.914760929041381e-05,0.005506886189232519,0.00178576071918085,0.004225826214103994,0.003369081575300051,0.02969164540495968,-0.15327520623251845,0.3369081575300051,0.019915314437772398,51.000003888428765,0.005884070174796391,0.016414783611428608,0.014797801486462538,-0.025061687351282003,0.050418908229086366,0.014738400029001706,0.016478316720796197,0.048623030055445056,0.022050630389048986,0.01836567017529304,-0.012621143053807201,0.5057538877117405,1.836567017529304,0.07548059558036838,16.000178040269088,0.015555350893538487,0.005293953447985959,0.00674333793152555,-0.0072013905835598985,0.02914053644900279,0.00370714847651496,0.005378515786564686,0.00730438235036062,0.008546567937108217,0.005997059996784346,1.5749566705239677,3.1664427687465486,0.5997059996784346,0.03634192703256269,37.00001784777489,0.0066563945084245485,1.04503819055897,0.0028051998536793225,1.0403529089990111,1.0559416461670819,1.0455491547217015,0.003897184292017686,109.21126101815236,1.0450419179064174,1.04503819055897,0.4900896354452207,1.3107242906442127,104.503819055897,0.015588737168070743,10.000012150428944,0.003897184292017686,0.6026162887758892,0.006877568800063134,0.5940815204416766,0.6138531845363778,0.6012899396428697,0.01242594167062816,36.31932194410996,0.6026551413877589,0.6026162887758892,0.2839989722877091,-1.363542295238248,60.26162887758892,0.019771664094701213,61.00000320425156,0.001647638674558416,1.0039631545646137,0.0033894167905982393,0.9963716516111406,1.0116822458030195,1.00402694870708,0.0049440460411274145,100.79533889880491,1.003968818732957,1.0039631545646137,-0.06927859259739218,-0.6135589995142374,100.39631545646138,0.015310594191878857,8.000014650879992,0.0066983849589470346,1.5694738989053099,0.003318035447366486,1.5618891581524148,1.5809970116721042,1.569168745690589,0.0029626776649467335,246.32592186106723,1.5694773711687187,1.5694738989053099,0.020982047228565993,0.011758745954063869,0.00445452168322367,0.051658940210315564,0.016416403223214963,0.016735638393024214,0.057713173124986514,0.024023566164286792,0.020982047228565993
10_1_3.csv,1970-01-01 00:00:06.680,1970-01-01 00:00:08.660,0,0.003221966632364586,0.0036114466794377772,-0.006717585755214547,0.010482003986497979,0.004145313029024943,0.0035455294643003885,0.0023293190627308724,0.004826301961886422,0.004315478914454402,-0.9032166735129238,0.6916284582163441,0.43154789144544026,0.017199589741712526,8.00001848909659,0.005884070174796391,0.013048134440229875,0.008935072786421498,-0.004486302811927188,0.03668697762842287,0.01141985013384136,0.010585029838011444,0.024929098281197645,0.015788951289176126,0.013207457164140197,0.865887615662384,0.4954338605079456,1.3207457164140197,0.04117328044035006,5.000169521028484,0.006865965300331747,-0.00117442275286854,0.005556304973476677,-0.010837570270251517,0.012191567745462071,-0.0016461160622254802,0.007777384329868185,0.0031943068511154156,0.0056518199291161215,0.00475790928452613,0.44465347082948564,-0.42045925336225975,0.47579092845261306,0.023029138015713588,60.000004419509814,0.0030301497389096837,1.0460947605225837,0.0017146294232940674,1.0403529089990111,1.0494463390137192,1.0464151956754832,0.001299061430672488,109.43171585473209,1.0460961516740805,1.0460947605225837,-1.2643051639845633,3.5099281480239166,104.60947605225837,0.009093430014708082,48.00000086135905,0.003247653576681442,0.5971090565061775,0.002500137232121336,0.5940815204416766,0.6023197138144687,0.5973767977907934,0.004531006355035672,35.654541354101525,0.5971142382668624,0.5971090565061775,0.443210035339521,-0.6693018359408667,59.710905650617754,0.00823819337279208,88.00000038561267,0.001647638674558416,1.0052326579996904,0.0024613932730362703,1.0001993001591103,1.0116822458030195,1.0059407729810648,0.0038276485479697975,101.04986945813985,1.0052356413206798,1.0052326579996904,-0.3250277162191908,-0.5926542974216109,100.52326579996904,0.01148294564390917,10.00000659289986,0.004784560684962136,1.5688712047979758,0.0021104419286112138,1.5618891581524148,1.572986136352061,1.5688399652687326,0.002381678083942962,246.1361266669735,1.5688726100833474,1.5688712047979758,0.015555632395295059,0.007948670096050327,0.00445452168322367,0.038407300243969815,0.013289456906963761,0.008030631162835741,0.030452724195043936,0.017450708924007626,0.015555632395295059
10_1_3.csv,1970-01-01 00:00:07.780,1970-01-01 00:00:09.760,0,0.002144729169594171,0.004722877347472548,-0.013054276712687584,0.00957676242114469,0.0033909450578972016,0.005770914979127228,0.0026682377945784737,0.005165498809000418,0.00441436312938009,-1.1312286749913039,0.9846008755164601,0.441436312938009,0.022631039133832274,28.00000914578301,0.005431449392119745,0.012910590020606832,0.012578477051228892,-0.008605881992126238,0.0627776457696835,0.011076551868824773,0.012873684938122028,0.03233192387592017,0.017981080022045442,0.013821582513592934,1.5514661762664488,3.864904707873634,1.3821582513592934,0.07138352776180974,14.000181984818473,0.008231654573184623,-0.003080386938642731,0.004557914704144006,-0.012049630165815391,0.008555388058770453,-0.0035652108968682794,0.006110801973467861,0.0030055624277510354,0.005482301002089392,0.004717810495524653,0.44006776120012064,-0.40194379420535054,0.47178104955246525,0.020605018224585846,4.000053070494945,0.005151254556146461,1.0467313006236134,0.0016296613537115686,1.0429510318603563,1.0507454004443917,1.046848216152374,0.002598122861344976,109.56490449433682,1.0467325565507974,1.0467313006236134,-0.2168059187013708,0.08327269921685199,104.67313006236134,0.007794368584035372,36.00000084378029,0.0021651023844544426,0.5984807157027475,0.0021850241326890466,0.5924338817671181,0.6023197138144687,0.5990244364653519,0.0028833676804772557,35.81838936552288,0.5984846645113213,0.5984807157027475,-0.24801576400587277,-0.31259203590150575,59.84807157027475,0.009885832047350607,53.000000921978064,0.002746064457597397,1.0040747943139297,0.003226108552522641,0.9963716516111406,1.0135960700770044,1.00402694870708,0.0038276485479695754,100.8176496275189,1.004079925242602,1.0040747943139297,0.22424759326885307,-0.2579733102218005,100.40747943139296,0.017224418465863756,10.000014834018572,0.002870736410977459,1.569077854339705,0.002040472932932748,1.564681508223909,1.5762312975972685,1.5692492473667012,0.0026850709875791967,246.20094348737857,1.5690791678158835,1.569077854339705,0.016358683259207488,0.0106577009198225,0.0040165512742361105,0.0641690923724348,0.013462676816133692,0.007899127848048483,0.03800572409824968,0.01949505683455416,0.016358683259207488
10_2_1.csv,1970-01-01 00:00:00.000,1970-01-01 00:00:01.980,0,0.05136468468126191,0.0006252954383209969,0.05029779283638125,0.05243157652614258,0.051364684681261916,0.0010668918448806589,0.2638717916846796,0.05136845254479442,0.05136468468126191,0.0,-1.1999999999999997,5.136468468126191,0.0021337836897613316,99.00000002299511,2.1553370603652477e-05,-0.11590628725124516,0.00979632281396355,-0.13262097326926592,-0.09919160123322446,-0.11590628725124519,0.01671468601802073,1.3529275685636792,0.11631541465187145,0.11590628725124516,0.0,-1.1999999999999997,11.590628725124516,0.03342937203604146,99.00000564405497,-0.00033767042460647323,0.09932504920723356,0.04407582066255426,0.024121984000860092,0.17452811441360702,0.09932504920723356,0.07520306520637349,1.178871658742624,0.10857585637436272,0.09932504920723356,0.0,-1.1999999999999997,9.932504920723357,0.15040613041274692,99.00011425247986,-0.0015192538425529978,1.2948297642575466,0.054138694914733373,1.2024572175265085,1.387202310988585,1.2948297642575466,0.09237254673103834,167.9485806711454,1.2959497701344191,1.2948297642575466,0.0,-1.1999999999999997,129.48297642575466,0.18474509346207646,99.00017237737295,-0.0018661120551723975,0.40554458068149013,0.03338444559029545,0.34858335793247003,0.46250580343051023,0.40554458068149013,0.05696122274902016,16.556978291542332,0.40690267007654707,0.40554458068149013,0.0,-1.2000000000000002,40.55445806814901,0.1139224454980402,99.00006554706712,0.001150731772707525,-0.30318338129150063,0.026880132949567793,-0.349046813000209,-0.25731994958279225,-0.30318338129150063,0.04586343170870838,9.263547882326003,0.30436077083497476,0.30318338129150063,0.0,-1.2,30.318338129150064,0.09172686341741676,99.00004249401852,0.000926533973913346,1.391240746340591,0.046495944993301216,1.313784051753478,1.4723023761120368,1.3903134397676515,0.07937586162047516,193.76910684501374,1.3920097228288808,1.391240746340591,0.1660823670706025,0.01941980500415644,0.14451265011855205,0.20695145430798897,0.16105449791007612,0.03324417214334452,2.7956710189909826,0.16720260222230343,0.1660823670706025
10_2_1.csv,1970-01-01 00:00:01.100,1970-01-01 00:00:03.080,0,0.025083656435829854,0.06680339088692672,-0.2148341056325023,0.0991511573141359,0.05207594591118236,0.0010668918448806658,0.5047255923842359,0.0710440421417754,0.06272308166074168,-1.9867295672670948,3.2530186793761433,6.272308166074168,0.3139852629466382,12.004107078219008,0.06198307718179276,-0.08919160416531176,0.07600038050978049,-0.14173807473364086,0.19043957763257313,-0.12502338871562013,0.07371570482775852,1.3673439512836765,0.11693348328360344,0.1079999834052016,1.8775201304812998,2.9151269311683454,10.79999834052016,0.332177652366214,12.004596702627353,0.041178908280760165,0.03055111018249701,0.07706548715850761,-0.19741531484967395,0.21816227065390648,0.036652437714314395,0.06760679599360847,0.6813068751251392,0.08254131541992406,0.0618624800967612,-1.098431613172837,2.659068351199226,6.18624800967612,0.4155775855035804,12.007193874072867,0.08178423819903118,1.2729266606353855,0.11257921603613709,1.1520721920368513,1.6067436927722478,1.242578626712717,0.08728455612757058,163.2889622440832,1.2778456958650493,1.2729266606353855,1.5573749062032798,1.6368938016815044,127.29266606353856,0.4546715007353965,12.008610501368633,0.07716424898195018,0.4378253529703924,0.036347630958301624,0.34858335793247003,0.4935755612936121,0.4404169839934935,0.04745395530189539,19.299897847716682,0.43931649010385077,0.4378253529703924,-0.6941625024988609,0.07131078706703109,43.78253529703924,0.14499220336114205,12.000875915491982,0.017025599637103817,-0.28750642645288765,0.04597408635175914,-0.41220301404170906,-0.23230353228713316,-0.2772404300219282,0.04123076183914187,8.475242570142987,0.2911226987052536,0.28750642645288765,-1.2648633915134615,0.8089101241402381,28.750642645288764,0.1798994817545759,12.001348416887812,0.022200361578224304,1.3782972337293404,0.10511063009547317,1.2746968665074763,1.6950064827238702,1.3462923087260061,0.07178913273732057,191.06410266194288,1.3822593919447352,1.3782972337293404,0.1549731546039053,0.03914600409248271,0.06258655542554423,0.30657437488874806,0.14750751903966808,0.007427059036674261,2.5533764187930514,0.15979287902760408,0.1549731546039053
10_2_1.csv,1970-01-01 00:00:02.200,1970-01-01 00:00:04.180,0,-0.019683220775527782,0.10280380493953414,-0.2148341056325023,0.13534597990260602,-0.011693941027047393,0.15531570857356627,1.0850365267043491,0.10416508660315842,0.08881045163643332,-0.37046408099207173,-1.114423357504365,8.881045163643332,0.3501800855351083,52.00117908367372,0.06198307718179276,-0.0370808785204693,0.08387440503744381,-0.15958958451450342,0.19043957763257313,-0.026663745921359408,0.1547853087194051,0.8339558214031129,0.0913211816285309,0.07448584739981473,0.28913652411851226,-0.6435293003310325,7.448584739981474,0.3500291621470766,70.0008751403463,0.04300420452043853,0.033590075189187336,0.09412145603911828,-0.19741531484967395,0.21816227065390648,0.014615687536589815,0.1115332438051319,0.9898553153269697,0.099491472766613,0.07334176117133456,-0.30683320001618586,0.30453989390678915,7.334176117133457,0.4155775855035804,12.007193874072867,0.08178423819903118,1.36853304552789,0.11858396261664182,1.1520721920368513,1.6067436927722478,1.38174625297976,0.1400821242741912,188.6804231329808,1.373609926918777,1.36853304552789,-0.33469245872903414,-0.6286512885077324,136.85330455278898,0.4546715007353965,12.008610501368633,0.07716424898195018,0.413096911764754,0.0412441026418591,0.34858335793247003,0.4935755612936121,0.4108640998307788,0.05242237049553422,17.233312375228174,0.41513024914149743,0.413096911764754,0.5112076443809375,-0.7977840603714834,41.3096911764754,0.14499220336114205,12.000875915491982,0.017025599637103817,-0.33658477916025975,0.055482729976143556,-0.42751360823358786,-0.23230353228713316,-0.34373063446136215,0.08172029649915302,11.633686355471037,0.3410819015349691,0.33658477916025975,0.5079074759807716,-0.664004899063587,33.65847791602597,0.1952100759464547,29.000657009346376,0.022200361578224304,1.470678067532557,0.11272672021310468,1.2746968665074763,1.6950064827238702,1.4810329837236416,0.1517471326290023,217.54742186368003,1.474948886787878,1.470678067532557,0.15914501441077497,0.06163874079019268,0.035255564491839024,0.30657437488874806,0.14939140992774935,0.0807476795660975,2.9088476634344316,0.17055344216504198,0.15914501441077497
10_2_1.csv,1970-01-01 00:00:03.300,1970-01-01 00:00:05.280,0,0.022240275719025843,0.09016293883621995,-0.20940265624038254,0.2502671386254894,0.04244989259904247,0.09942075191941593,0.8542691848246392,0.09242668363760755,0.07620803297244476,-0.6715275925962917,0.33678680106898184,7.620803297244476,0.4596697948658719,60.001760776833144,0.06183344025637236,-0.0191745535740123,0.08690691968167812,-0.21449479555551695,0.1382807527116923,0.0022400920462338856,0.1437772528772339,0.7844948066434739,0.08857171143449097,0.07258295234884661,-0.4464325064566379,-0.9156446503324154,7.2582952348846606,0.35277554826720925,38.0016374724492,0.07046056193455204,0.027910202929111807,0.08142480563840225,-0.08715760402206851,0.21695021075834262,0.0035051384939209776,0.11100696916468557,0.7342678411063269,0.08568942998446932,0.06499676225111801,0.7180225763483259,-0.6421839330003678,6.499676225111802,0.30410781478041116,68.00068000809264,0.06259660149166212,1.3989562188133104,0.03538431256589849,1.310557686578904,1.475538488274319,1.3988938638646378,0.032801301124482096,195.83180312364382,1.3993991679418845,1.3989562188133104,-0.4667177495005339,1.0333054494000886,139.89562188133104,0.16498080169541507,13.001046829579842,0.028146330997905533,0.3896117577805411,0.025085721212749486,0.3172782231158598,0.4375558463586255,0.38318377009819715,0.02954765356374789,15.24203222755192,0.3904104535940594,0.3896117577805411,-0.17678081549530508,-0.04052491361891386,38.961175778054105,0.1202776232427657,72.00010046317055,0.02141930276925963,-0.3606528813390777,0.028427366723616457,-0.41220301404170906,-0.3203394488904362,-0.3521567774454344,0.049360717733192616,13.087053484522949,0.36176032790402746,0.3606528813390777,-0.3315122474847753,-1.1444481946388683,36.06528813390777,0.09186356515127286,36.00011720695645,0.025517656986464687,1.4967408452276092,0.03727769913847897,1.4007890386421278,1.576293388446464,1.4995351632686287,0.032793823321333626,224.16088883571865,1.4972003501058855,1.4967408452276092,0.13785817651947618,0.06908815545892445,0.021526885032798707,0.303062647379754,0.12571589200763755,0.10220206045027794,2.3730318325744406,0.15404648105602545,0.13785817651947618
10_2_1.csv,1970-01-01 00:00:04.400,1970-01-01 00:00:06.380,0,0.005834849950590063,0.08961136584283778,-0.19855459748180457,0.2502671386254894,0.021332536082686197,0.12741646032989107,0.7983940393282627,0.08935289806873993,0.07208693325789915,-0.4396738273547243,0.3002788346989482,7.208693325789915,0.4488217361072939,64.0015737380793,0.06183344025637236,-0.020672872285863383,0.08352452312639709,-0.21449479555551695,0.12592201517109514,-0.007404338064568181,0.11449372327663865,0.7333950152404739,0.08563848522950845,0.06800588362487683,-0.5789206087467221,-0.39449300378649355,6.800588362487684,0.3404168107266121,36.00160945853706,0.07686879621486167,-0.004650898645943855,0.0692001359676031,-0.10533850245552662,0.1805884138914264,-0.020635054426059493,0.10328836642811318,0.4762403087970253,0.06901016655515514,0.05696931199439431,0.899215916520278,0.4448553761163825,5.696931199439431,0.285926916346953,9.00454075461329,0.06259660149166212,1.4018817051551848,0.01077267036835685,1.383305126696567,1.4274732153394343,1.4005176906529786,0.016644224580492306,196.53872051714055,1.4019226815953174,1.4018817051551848,0.21006195220339083,-0.769382761599736,140.1881705155185,0.044168088642867254,91.00001071879088,0.01818686002941594,0.3826070965621018,0.03267254553273599,0.3172782231158598,0.4770991745480278,0.38104183982127116,0.049017250568113346,14.744501061895424,0.3839856906434851,0.3826070965621018,0.23691508816278792,-0.17764132861754156,38.26070965621018,0.159820951432168,60.000212855760076,0.02800985746749335,-0.40237552639479673,0.0412662571165719,-0.46579009371328484,-0.3203394488904362,-0.40933227763073177,0.0658674520963119,16.359193917813673,0.4044650036506703,0.40237552639479673,0.28773616584989703,-0.845959938489607,40.237552639479674,0.14545064482284864,60.00017629882498,0.025517656986464687,1.5087101380198407,0.014834930273209142,1.4727236669627894,1.5377982137137272,1.5096593967585399,0.01696503213421008,227.6424154968496,1.5087823418135884,1.5087101380198407,0.12774451744202373,0.06164112408896863,0.021526885032798707,0.303062647379754,0.11321132483147192,0.0722464559062568,2.008029363365762,0.14170495274921627,0.12774451744202373
10_2_1.csv,1970-01-01 00:00:05.500,1970-01-01 00:00:07.480,0,-0.005466571591947621,0.10138206675729997,-0.19855459748180457,0.18511942597137548,-0.002490651779288933,0.15667851759681672,1.0205423630351704,0.10102189678654674,0.08655534010464017,-0.21280222819839903,-0.9066523454721502,8.655534010464017,0.38367402345318,53.00138871535606,0.12713449984232203,0.0214662581256694,0.0738139975942602,-0.1938968996545217,0.12592201517109514,0.03815997105842847,0.08317010152737925,0.5854821416354863,0.07651680479708273,0.06331400209870454,-1.2203594765907624,1.3218690262529829,6.331400209870454,0.31981891482561686,14.00365252847557,0.07686879621486167,-0.027435041604078714,0.059438873636907495,-0.20347561432749334,0.07154276295938485,-0.029167492461360908,0.0833017967977802,0.4250331410049543,0.0651945658015263,0.053285472479247496,-0.21069999429890365,-0.2087657767953326,5.3285472479247495,0.27501837728687817,54.00070032053145,0.04192137651902722,1.3984911548211292,0.01078986331726718,1.3768098195432044,1.4274732153394343,1.3991103741030833,0.011691552876052835,195.58927670518372,1.3985323618178584,1.3984911548211292,0.19556402592250197,0.5439744605046952,139.84911548211292,0.050663395796229915,8.000160422121146,0.015588737168070743,0.4063660462492343,0.047253428873581436,0.3189258617904182,0.4770991745480278,0.41174284045721,0.07867474671016517,16.734392121914233,0.409076913573893,0.4063660462492343,-0.24202946472202413,-1.2282278302364695,40.63660462492343,0.1581733127576096,20.00062546014171,0.031305134816610236,-0.4270064448009818,0.033231862875040624,-0.47344539080922426,-0.3586159343701332,-0.4307033153568959,0.05709575750721463,18.342781704461803,0.4282847382812257,0.4270064448009818,0.32435865566494787,-1.162133744397042,42.700644480098184,0.11482945643909104,40.00016482221125,0.02966427624676521,1.5187388415073815,0.009890134479105318,1.4987573854539133,1.537861337948166,1.5180462444356777,0.014003139913556062,230.6664505315598,1.5187707217732365,1.5187388415073815,0.13328143644720744,0.05071842606738342,0.0463550268605968,0.2877452380353921,0.12258325963339017,0.0841415371900425,2.031057645675611,0.14251517974151423,0.13328143644720744
10_2_1.csv,1970-01-01 00:00:06.600,1970-01-01 00:00:08.580,0,0.04215291895217917,0.08493979617287918,-0.16417025802404106,0.18511942597137548,0.06405078661820358,0.12388824422886248,0.8919489860340343,0.09444305088433105,0.08185968357977501,-0.5702110143824702,-0.5083178977849014,8.1859683579775,0.34928968399541654,44.00138637910567,0.127134499842322,0.032693574630218436,0.06468276212382285,-0.1513504261541053,0.16297571643124617,0.03568597241414499,0.08202014613691386,0.5210890940909043,0.07218650109895232,0.05872348523298763,-0.3672408693157075,0.14974614114135631,5.872348523298763,0.31432614258535146,14.003528159857165,0.05902479022121261,-0.004299003879543262,0.05380320365633807,-0.20347561432749334,0.12000528894758626,-0.00174712105352247,0.0725157883828853,0.2884318310804864,0.05370584987508218,0.040753796565023453,-0.7838978094631097,2.008000953596396,4.075379656502346,0.3234809032750796,73.00071670808981,0.04192137651902722,1.3975883071268118,0.014165441042829494,1.3625201438058063,1.4326694610621244,1.4001929252953105,0.013207124545171034,195.3451729340327,1.397659375291536,1.3975883071268118,-0.03252494663930325,0.1764550339798956,139.75883071268117,0.07014931725631812,8.000307552007706,0.015588737168070743,0.43185501654465325,0.03051744396160835,0.3189258617904182,0.4754515358734694,0.435908207684067,0.03254086382252902,18.742075655687316,0.43292118977577565,0.43185501654465325,-1.2361549762709265,2.5260235246749025,43.18550165446533,0.15652567408305118,6.0020413432970585,0.031305134816610236,-0.4020788836323292,0.034016329400399885,-0.47344539080922426,-0.32416709743840594,-0.40119852446629617,0.04042953778792996,16.281296822223787,0.4035008899894,0.4020788836323292,0.0462241655777996,-0.16446909697173995,40.20788836323292,0.14927829337081833,80.00013927493421,0.02966427624676521,1.517744039175415,0.011827278302924269,1.4866996767679934,1.537861337948166,1.518349412721241,0.015418233027260086,230.36854541194373,1.517789660697238,1.517744039175415,0.1210902205901784,0.048740268020843115,0.03319216021356337,0.2877452380353921,0.115018311510387,0.062226448084114164,1.701469911205425,0.13044040444606975,0.1210902205901784
10_2_1.csv,1970-01-01 00:00:07.700,1970-01-01 00:00:09.680,0,0.011726636938730446,0.06719151892872759,-0.16417025802404106,0.17606701031784258,0.009124141638468045,0.04124908799502598,0.46070672276828595,0.06787538012919603,0.04756119371880915,-0.14543896391040761,0.6853089595025978,4.756119371880915,0.3402372683418836,23.00251641448754,0.029556384442545977,0.00800521424341244,0.05724621445847585,-0.1513504261541053,0.16297571643124617,0.0023796624884045593,0.06085759024810444,0.3308441234210486,0.05751905105450268,0.042223154548222314,0.3467325268200337,1.324673828400075,4.2223154548222315,0.31432614258535146,14.003528159857165,0.05902479022121261,0.003468246834804638,0.035791409011979525,-0.05808803636288906,0.12000528894758626,-0.0007370711405525747,0.044823034662450884,0.12802434455793135,0.03578048973364274,0.026960058207647755,0.9030690824078875,0.9163868050529858,2.6960058207647757,0.17809332531047534,35.00045310038886,0.03937207677147237,1.399684126234964,0.011643080825300904,1.3625201438058063,1.4326694610621244,1.401491986725983,0.01169155287605328,195.9249858951927,1.3997320668441968,1.399684126234964,-0.6165003098167963,1.9067215022200643,139.9684126234964,0.07014931725631812,8.000307552007706,0.014289675737398255,0.418638208310237,0.01783329782217267,0.38318377009819715,0.4721562585243525,0.4144889049148074,0.013730322287986985,17.557279570330756,0.41901407578183764,0.418638208310237,0.8685554803831115,1.4115934071105687,41.8638208310237,0.08897248842615535,19.00020831737633,0.013730322287986985,-0.39748570537476546,0.023863274938316022,-0.4370827296035121,-0.32416709743840594,-0.3996036709046421,0.024281645476182834,15.855864730914874,0.3981942331440132,0.39748570537476546,1.2792734737858158,1.8373664264871095,39.748570537476546,0.11291563216510614,8.000796831565419,0.019138242739848488,1.514362231485181,0.009445955556195469,1.4866996767679934,1.5344845960442675,1.5148947192173492,0.01319101289110547,229.33813019643839,1.5143913965565123,1.514362231485181,0.0775557754601592,0.05668318476049089,0.005913045895599811,0.24341623754037509,0.06311210382096319,0.0760253852010111,0.9195751907472658,0.09589448319623324,0.0775557754601592
10_2_2.csv,1970-01-01 00:00:00.400,1970-01-01 00:00:02.380,0,0.08968940428610579,0.03524775579183951,0.029548963623952963,0.14982984494825866,0.0896894042861058,0.06014044066215284,0.927416948667408,0.09630248951441536,0.08968940428610579,0.0,-1.199999999999999,8.96894042861058,0.1202808813243057,99.00007306810643,-0.0012149583972151934,-0.11241515025017484,0.07190017176421397,-0.23509269145651218,0.010262390956162491,-0.11241515025017484,0.12267754120633734,1.7755104358495621,0.13324828088382837,0.11294572251263418,0.0,-1.2000000000000002,11.294572251263418,0.24535508241267467,99.00030403547488,0.002478334165784607,0.05271775072896725,0.03938031682821739,-0.014473749956943137,0.11990925141487765,0.052717750728967255,0.0671915006859104,0.4314462501877402,0.06568456821718022,0.05440883125980785,0.0,-1.2000000000000004,5.440883125980784,0.1343830013718208,99.00009120597343,0.0013574040542608246,1.4341850327312422,0.09352135511974201,1.274616986996963,1.5937530784655223,1.4341850327312424,0.15956804573427963,206.55454895351136,1.4372005738709936,1.4341850327312422,0.0,-1.2000000000000006,143.41850327312423,0.31913609146855926,99.00051438171863,-0.0032235968835205853,0.3312831518496065,0.005311161798456085,0.3222211391395351,0.34034516455967784,0.33128315184960644,0.009062012710071343,10.977645305466229,0.33132529793944543,0.3312831518496065,0.0,-1.1999999999999997,33.12831518496065,0.018124025420142742,99.00000165899138,-0.00018307096383979315,-0.277039174691529,0.02621914607375874,-0.32177481709592487,-0.23230353228713316,-0.277039174691529,0.044735642404395815,7.7431273498392255,0.27826475432291503,0.277039174691529,0.0,-1.2,27.7039174691529,0.08947128480879171,99.00004042984429,-0.0009037503516039491,1.4984873245385502,0.08580547818368373,1.3535191018107988,1.646161789518443,1.4977938974203164,0.14647154219695824,225.27532160881685,1.500917458119589,1.4984873245385502,0.1690556362877505,0.05283792816642343,0.1136006697969948,0.2791541607271906,0.15317250923206047,0.09175942195092196,3.13437363470471,0.1770416232049602,0.1690556362877505
10_2_2.csv,1970-01-01 00:00:01.500,1970-01-01 00:00:03.480,0,-0.028472395573861803,0.11745196814790228,-0.28360278454802934,0.08300713310142216,0.030156442822560567,0.17349590797392236,1.4467692483312156,0.12028172131837886,0.09094731962533893,-1.0285948317547564,-0.5562890460594021,9.094731962533894,0.3666099176494515,91.00073847410096,0.054744854665381815,-0.035664201013500846,0.04002264386830584,-0.10743075959362255,0.03256739844822382,-0.03310845694506788,0.06679673360830488,0.28577291359185414,0.05345773223696027,0.042364377471378806,-0.1559442432605033,-1.2232068094637811,4.236437747137881,0.13999815804184637,5.001959564436233,0.029737508727010628,0.06673118322151157,0.0436967274801986,-0.05445185667619745,0.132125887903225,0.07242844242769761,0.0714215676438346,0.6343360766696904,0.07964521810314103,0.06981202881201591,-0.5088585401720914,-0.4723391203779155,6.9812028812015905,0.18657774457942244,10.001740411287045,0.017266886053196817,1.3734647363592223,0.0671689069983752,1.2456046150452758,1.4924262868730624,1.381500874709522,0.09456836435765292,189.08719274689912,1.3750897888752542,1.3734647363592223,-0.06276571255333048,-0.8360783132983243,137.34647363592222,0.2468216718277867,10.00304558310537,0.0694997865409821,0.34939070088300367,0.0322824404035479,0.3205735004649767,0.4342605690095086,0.3290863002835286,0.05080219246555162,12.310559626234108,0.35086407091969546,0.34939070088300367,0.8956702454218292,-0.6701664435284176,34.93907008830037,0.11368706854453192,7.000923135526789,0.033776592828447916,-0.31731082197685523,0.020539296223905764,-0.37009888001404234,-0.2820098016253508,-0.3153422410639203,0.021756460670230626,10.110380180610711,0.31796824024752396,0.31731082197685523,-0.5756705959684633,0.08369390079183647,31.731082197685524,0.08808907838869157,80.00004849802113,0.010207062794585886,1.4526457864609181,0.07036373473917279,1.3278320266335246,1.5828376815138623,1.4535854845419376,0.09865460389793146,211.50813255374396,1.4543319172518492,1.4526457864609181,0.1443162752090421,0.05357516286937838,0.05185264591699904,0.28557650900891823,0.12545189990213051,0.02669437832148225,2.3668782385927605,0.1538466196766364,0.1443162752090421
10_2_2.csv,1970-01-01 00:00:02.600,1970-01-01 00:00:04.580,0,-0.08559232214624309,0.1178044812205991,-0.28360278454802934,0.12087695488261488,-0.08238316659693737,0.22270811304512245,2.1065162448084194,0.1451384251260988,0.11933967768794324,-0.017364926814588868,-1.4050253401370867,11.933967768794323,0.4044797394306442,52.001573090240356,0.054744854665381815,-0.009726610131395147,0.06659994637957795,-0.10743075959362255,0.21513454135212703,-0.010665671582225762,0.07925298029834382,0.44858042738331916,0.06697614705126886,0.05047840469726043,1.1816611959687806,1.9131107691839033,5.047840469726043,0.3225653009457496,53.00098157933845,0.039349860147475074,6.292150691016726e-05,0.052023621969881376,-0.15622514823485578,0.12121734884315014,0.008922979994310314,0.0531220021440986,0.2679396629552505,0.05176288853563434,0.03842018458277445,-0.8719622985206409,1.6136317017638624,3.842018458277445,0.27744249707800595,59.00065232130222,0.03473247044992869,1.4119104593999774,0.035597878961913076,1.3508285909297533,1.4924262868730624,1.4079331663197343,0.04288151818748909,199.47456822597755,1.4123546588091023,1.4119104593999774,0.5806202533899497,-0.24038538575358226,141.19104593999774,0.14159769594330918,13.000771127417652,0.05001386508089367,0.37724403267641393,0.02569965708926609,0.32386877781409346,0.4342605690095086,0.3774170347372426,0.04260096534507335,14.296692784072409,0.37810967699957654,0.37724403267641393,-0.23036230920907738,-0.7910088749284832,37.72440326764139,0.11039179119541515,16.000380818829385,0.0230669414438181,-0.3274397369469201,0.016993997382658384,-0.37009888001404234,-0.297373557602618,-0.32041305751635873,0.025956241715919537,10.750268931943957,0.3278760273631477,0.3274397369469201,-0.7637971114447117,-0.513860100657753,32.74397369469201,0.07272532241142432,28.00009444577857,0.0172244184658637,1.497991479928963,0.0353457022400545,1.4356163199527125,1.5828376815138623,1.494272858268566,0.0382159080673794,224.52152994199392,1.498404251001691,1.497991479928963,0.15228271339981972,0.07135300317208107,0.03398565942228077,0.28557650900891823,0.13901960373618305,0.12179871386153943,2.823036335146989,0.1680189374786958,0.15228271339981972
10_2_2.csv,1970-01-01 00:00:03.700,1970-01-01 00:00:05.680,0,-0.055901116070562126,0.08617008447776231,-0.25012368665561907,0.12087695488261488,-0.05293931901565799,0.12782085102916774,1.0475965402250107,0.1023521636422509,0.08206660364885872,-0.168478456044429,-0.5512905761982037,8.206660364885872,0.371000641538234,21.003276922328613,0.04192801916904096,0.0028643321045230597,0.058098898763463774,-0.07998940975393598,0.21513454135212703,0.0023796624884045597,0.068113752483537,0.33499316155569414,0.05787859375932471,0.04283028597166476,1.3272656873148683,2.9336790392349914,4.283028597166476,0.29512395110606304,69.00063114310272,0.039349860147475074,-0.01590871627756276,0.04554049482532485,-0.15622514823485578,0.04126113540464152,-0.00044564690336782006,0.05421318721401197,0.2306284555846075,0.048023791560497124,0.03331889731762967,-1.3974799995514278,1.560774745408683,3.3318897317629674,0.1974862836394973,8.002437180773477,0.03473247044992869,1.402013776400637,0.01334354761383041,1.3586229595137886,1.4170807238940537,1.406038701733337,0.007794368584035372,196.5818898977467,1.4020766380542353,1.402013776400637,-1.925728374095906,3.0310073826330055,140.2013776400637,0.058457764380265065,18.000094925033487,0.003997112094377142,0.3814070663941315,0.019859029334973587,0.33540224853600253,0.4144889049148074,0.38483140877275557,0.030893225147970604,14.58617875310436,0.3819185613858583,0.3814070663941315,-0.4007858638686852,-0.48939498733823683,38.14070663941315,0.07908665637880485,70.00004467640872,0.021419302769259685,-0.3253122022956736,0.01520935865430363,-0.35478828582216354,-0.2954597333286332,-0.3207320282286895,0.021052067013833387,10.605704030722972,0.32566399909604643,0.3253122022956736,-0.4184069407423966,-0.8107839508806713,32.53122022956736,0.05932855249353036,13.000135379185133,0.0172244184658637,1.489155554252006,0.012450388665429194,1.448461040605468,1.510014117257319,1.4921180949120227,0.010278445914110312,221.77377268157406,1.4892070798971313,1.489155554252006,0.10884218170625791,0.06579399327127716,0.008584442982596209,0.2680155308775411,0.09863970092757496,0.08870962098257335,1.6132181573653124,0.12701252526287762,0.10884218170625791
10_2_2.csv,1970-01-01 00:00:04.800,1970-01-01 00:00:06.780,0,-0.03296551014340307,0.06691850221310308,-0.1415392188902088,0.11001405609837539,-0.04275906141184885,0.09531995816161333,0.5520029938075441,0.07429690396022866,0.06418882476664481,0.5320571877478275,-0.4915037443227366,6.41888247666448,0.25155327498858415,17.00186104666655,0.052934371534675236,0.003985960698257582,0.05564882011032442,-0.17881428735543228,0.1561097511309144,0.007647321112265638,0.06606240465405264,0.3081711150562589,0.05551316195788697,0.04193230871456115,-0.20671453711201623,1.4053347287746996,4.193230871456115,0.33492403848634666,10.005607133580451,0.06314436940141166,0.011724328590639375,0.05269944355550264,-0.10897468214221823,0.18786077326480966,0.009161418006552388,0.04498282124704366,0.28869189184502964,0.053730056006394564,0.03863262231280367,0.5711692251643101,1.0500483085122796,3.863262231280367,0.2968354554070279,33.00133499250578,0.07511790877342987,1.4097670080393672,0.020694289485630738,1.3794079424045496,1.484631918289027,1.4059304466141143,0.01039249144538057,198.78669880374116,1.4099173692232505,1.4097670080393672,2.1388583227353477,5.654390962679086,140.97670080393672,0.10522397588447752,10.00055358893201,0.022084044321433627,0.3834968214463633,0.022965156741117165,0.34528808058335314,0.4441464010568591,0.3765932153999634,0.027597947798853772,14.759193649936645,0.38417695987574063,0.3834968214463633,1.1412458431619694,0.6957299964550829,38.34968214463633,0.09885832047350596,36.00013573540421,0.021419302769259685,-0.3291143331866568,0.026858493961498774,-0.3911509470278757,-0.27440766631479985,-0.3318223945343453,0.044496414370147785,10.903040921979878,0.33019753060826906,0.3291143331866568,0.3001212639916537,-0.5361374044189895,32.91143331866568,0.11674328071307583,41.00016620690204,0.025517656986464687,1.498017843239822,0.02088629853161599,1.4732884625344989,1.5700836228528778,1.4934243478426845,0.012755000924213666,224.44893337565765,1.4981619851526657,1.498017843239822,0.0967597823802457,0.04634308291597992,0.008584442982596209,0.217643308139009,0.09719098023117792,0.0743197602431975,1.1488660007088325,0.1071851669172947,0.0967597823802457
10_2_2.csv,1970-01-01 00:00:05.900,1970-01-01 00:00:07.880,0,-0.006707910058483229,0.07704435480360808,-0.1415392188902088,0.28917768591001936,-0.03114426799409187,0.06976172396604438,0.5921470338385905,0.07695109056008176,0.05902514378642548,1.4981832568450204,2.653984712760774,5.9025143786425485,0.4307169048002282,42.00220847827029,0.052934371534675236,0.003941410713571168,0.05120663906491193,-0.17881428735543228,0.1561097511309144,0.0014679523419670634,0.045886127797114665,0.26114334038939774,0.051102185901328895,0.03468263302380802,-0.11369559117642279,2.852232522262478,3.4682633023808025,0.33492403848634666,10.005607133580451,0.06314436940141166,0.018560763668141043,0.04770263431235903,-0.05445185667619745,0.18786077326480966,0.011277555365200788,0.05215011887128275,0.259728785507985,0.05096359342785642,0.03641020121019836,1.0261166322818804,1.0399968354013533,3.6410201210198365,0.2423126299410071,7.004192702276896,0.07511790877342987,1.4116116752709222,0.021549416424536637,1.3794079424045496,1.484631918289027,1.406363467091005,0.02273357503676987,199.3107255335935,1.4117745058386395,1.4116116752709222,1.676453713545209,3.7137724932293747,141.16116752709223,0.10522397588447752,10.00055358893201,0.022084044321433627,0.36856756741618923,0.03478108442743999,0.2727919789027821,0.4441464010568591,0.36505974467805435,0.026568173627254776,13.703967834669644,0.3701887064007983,0.36856756741618923,0.24526781880842838,0.45552820459572985,36.85675674161892,0.17135442215407698,41.00035807572895,0.0230669414438181,-0.3312482472521499,0.028385451879664892,-0.3911509470278757,-0.27440766631479985,-0.33740438200013445,0.03971185368518565,11.052307784725006,0.33245011332115687,0.3312482472521499,0.27377201833865866,-0.44817524243833073,33.12482472521499,0.11674328071307583,41.00016620690204,0.025517656986464687,1.4967267870588785,0.021994866946857428,1.4732104413796983,1.5700836228528778,1.4897833480746145,0.019050310662728442,224.0670011529882,1.4968867731160838,1.4967267870588785,0.08851080366935778,0.05770028124473353,0.012490134105574155,0.2941792751583839,0.07125749545335053,0.07506831139431644,1.113019159735973,0.1054997232098726,0.08851080366935778
10_2_2.csv,1970-01-01 00:00:07.000,1970-01-01 00:00:08.980,0,0.000996686234386185,0.05034407862961725,-0.08091771406286134,0.28917768591001936,0.003717966665053091,0.055321412849872326,0.25101743739842475,0.05010164043206817,0.03321966942989437,2.4575730983026745,12.18170275696359,3.321966942989437,0.3700953999728807,14.004890952987855,0.0180949379566248,0.000598577625014608,0.017158946980116694,-0.030554459591547397,0.06415083882974985,-0.0028842442418497796,0.01512657980229338,0.029184346202495947,0.017083426530557607,0.012245683982059599,1.1537942517105644,1.8351800090902715,1.2245683982059599,0.09470529842129725,26.000172481996135,0.023336778233914467,-0.0007974299019501737,0.022287675907953764,-0.04960361709394194,0.08487542181058744,-0.0014156984258292234,0.009442388483279496,0.049240898685272705,0.022190290373330562,0.01350141076120042,0.7735743200588396,3.527902885619896,1.350141076120042,0.1344790389045294,55.00016440531705,0.024231262994100704,1.384058582326357,0.03619872019392808,1.2951313320896671,1.424875092478089,1.3975948024339653,0.04583251110091613,191.69154031814875,1.3845271406445911,1.384058582326357,-1.02658075809378,-0.09663021553135209,138.4058582326357,0.12974376038842195,85.00009902019738,0.011691552876053057,0.35592770732431434,0.019928301567197007,0.3156305844413014,0.424374736962158,0.3536807400818852,0.019385498780351618,12.707769867246231,0.3564795908217781,0.35592770732431434,1.6634114044248622,3.5807193027485655,35.59277073243143,0.10874415252085662,11.00053750008187,0.0230669414438181,-0.2110899863501823,0.19572917767886933,-0.3643574071920878,0.2933701694687993,-0.32703783384938323,0.2351985370462397,8.24857942222181,0.2872034021773038,0.26724258905750964,1.2852766888201672,0.2269888484033009,26.724258905750965,0.6577275766608871,55.00393263726786,0.016177795816028184,1.4574384068265422,0.04874367488703127,1.3684701561839223,1.5054057582595801,1.4831102767466071,0.0801041973306662,212.64788960761678,1.4582451426547485,1.4574384068265422,0.04195167282241315,0.03936983373531826,0.012490134105574155,0.2941792751583839,0.03326555357800491,0.025076388341004056,0.32944268228619344,0.05739709768674662,0.04195167282241315
10_2_3.csv,1970-01-01 00:00:00.400,1970-01-01 00:00:02.380,0,0.16511975770352705,0.03930171558546755,0.09806236806296895,0.23217714734408507,0.165119757703527,0.06705738964055805,2.8793712983552844,0.169687103173909,0.16511975770352705,0.0,-1.1999999999999988,16.511975770352706,0.13411477928111612,99.00009084225135,-0.0013546947402132692,-0.16158361723244272,0.007684289084481351,-0.17469470817523325,-0.14847252628965218,-0.16158361723244272,0.01311109094279056,2.61677231736671,0.16176440638677936,0.16158361723244272,0.0,-1.2000000000000008,16.158361723244273,0.026222181885581064,99.00000347274147,0.0002648705240967941,-0.18300393314922705,0.0020529836596753716,-0.18650677578959912,-0.17950109050885504,-0.18300393314922708,0.003502842640372039,3.34946121425746,0.1830153330805225,0.18300393314922705,0.0,-1.2000000000000004,18.300393314922704,0.007005685280744078,99.0000002478769,7.07644977853139e-05,1.319548559112243,0.0037467314305630914,1.3131558094402491,1.3259413087842369,1.319548559112243,0.006392749671993991,174.1222297471645,1.3195538251513825,1.319548559112243,0.0,-1.199999999999997,131.95485591122429,0.01278549934398776,99.00000082560098,0.00012914645802020175,0.511482792151313,0.031028366296243514,0.4585415600030012,0.5644240242996248,0.511482792151313,0.052941232148311757,26.2567778586767,0.5124136791565649,0.511482792151313,0.0,-1.1999999999999995,51.148279215131296,0.10588246429662357,99.00005662168202,-0.001069519841379929,-0.405806811862865,0.019806413752313116,-0.4396009194377027,-0.3720127042880272,-0.40580681186286494,0.03379410757483775,16.506753963977317,0.4062850472756451,0.405806811862865,0.0,-1.1999999999999995,40.5806811862865,0.0675882151496755,99.00002307154695,-0.0006827092439360971,1.4727028348210545,0.0020040384016718105,1.4702481712149533,1.4769380864562165,1.472244076433514,0.0033472551582764964,216.88576156981856,1.472704184722168,1.4727028348210545,0.2961728836471606,0.027296932375102414,0.2527468310124122,0.3452669202641613,0.29472782724094576,0.046764059133587665,8.845604829979452,0.2974156154269552,0.2961728836471606
10_2_3.csv,1970-01-01 00:00:01.500,1970-01-01 00:00:03.480,0,0.09061154699179585,0.03930171558546755,0.02355415735123777,0.1576689366323539,0.09061154699179583,0.06705738964055807,0.9739631047727798,0.09868956909282661,0.09061154699179585,0.0,-1.1999999999999993,9.061154699179585,0.13411477928111612,99.00009084225135,-0.0013546947402132692,-0.14701573840711987,0.007684289084481351,-0.16012682934991043,-0.13390464746432937,-0.1470157384071199,0.013111090942790504,2.167208515513725,0.14721441897836385,0.14701573840711987,0.0,-1.2,14.701573840711987,0.026222181885581064,99.00000347274147,0.0002648705240967941,-0.1791118857710359,0.0020529836596753716,-0.18261472841140797,-0.1756090431306639,-0.17911188577103593,0.003502842640372039,3.208524021894444,0.17912353340347115,0.1791118857710359,0.0,-1.2000000000000002,17.91118857710359,0.007005685280744078,99.0000002478769,7.07644977853139e-05,1.3266516143033473,0.003746731430563089,1.3202588646313533,1.333044363975341,1.3266516143033473,0.006392749671993769,176.00184033501262,1.3266568521475801,1.3266516143033473,0.0,-1.1999999999999984,132.66516143033473,0.01278549934398776,99.00000082560098,0.00012914645802020175,0.4526592008754111,0.031028366296243517,0.39971796872709925,0.5056004330237228,0.45265920087541106,0.0529412321483117,20.58534840570295,0.45371079341032816,0.4526592008754111,0.0,-1.2,45.26592008754111,0.10588246429662357,99.00005662168202,-0.0010695198413799845,-0.4433558202793514,0.019806413752313116,-0.4771499278541891,-0.4095617127045136,-0.44335582027935133,0.03379410757483775,19.695275446104702,0.44379359443444766,0.4433558202793514,0.0,-1.1999999999999995,44.33558202793514,0.0675882151496755,99.00002307154695,-0.0006827092439360971,1.4706544232757353,0.00045965261075021907,1.4701722702232851,1.4718886044891104,1.470517989078578,0.0006853213603168484,216.28246418682025,1.4706544943895568,1.4706544232757353,0.2511908925444228,0.020103065863616133,0.2220895967179475,0.28956559548607436,0.2488081634931087,0.03444750452131162,6.349695642180951,0.2519860242589051,0.2511908925444228
10_2_3.csv,1970-01-01 00:00:02.600,1970-01-01 00:00:04.580,0,0.016382304029125307,0.07186546702406615,-0.13520252793273574,0.13263025520654612,0.03642375738326406,0.05545685045797595,0.5381378782383964,0.0733578815287353,0.06165838169385356,-1.0762773818065627,0.0629939631450056,6.165838169385356,0.2678327831392818,3.011932004498796,0.007339217135496373,-0.04984774573115359,0.12604080041311397,-0.14555895052458762,0.22062731359239243,-0.1324478595817971,0.19642801822782618,1.8212218289568383,0.13495265202865922,0.12814903026479965,0.9890139822637632,-0.6619129751029962,12.814903026479964,0.3661862641169801,82.00081763238722,0.019064622047041402,-0.1098992481932699,0.09427170347634539,-0.1787226810332168,0.08245130201945969,-0.17521983839284477,0.1779775717347008,2.0876127289014614,0.14448573385983343,0.12863704396246742,0.8655376711200244,-1.0773825627815898,12.863704396246742,0.2611739830526765,79.00043171938634,0.014269852704876337,1.3799796054025502,0.06884616848594717,1.3273619198224578,1.5300990683625666,1.3337546694944518,0.12075651870273485,190.90361082930218,1.3816787283203797,1.3799796054025502,0.8967570852500365,-0.9307828452839355,137.997960540255,0.20273714854010882,79.00026014103624,0.010825511922271547,0.424440497979432,0.032861726843758605,0.3815361314236387,0.5018137546664042,0.4152260064271098,0.04320715629467048,18.121883048527046,0.4256980508356486,0.424440497979432,0.8027045328531812,-0.3619386194981882,42.4440497979432,0.12027762324276553,21.00034444257172,0.029108283250532274,-0.4565833118806135,0.028632566993957435,-0.48875598500110307,-0.37009888001404234,-0.46383709759743486,0.025840824681852448,20.92799463416065,0.4574712519291311,0.4565833118806135,1.4662581222320286,1.5107872496094035,45.658331188061354,0.11865710498706072,38.00018525624005,0.0063794142466162,1.5151040829388145,0.06352048092546239,1.4701722702232851,1.6495883689294708,1.4714883166317252,0.10073304318577292,229.95348851198983,1.516421737222168,1.5151040829388145,0.2065442682765146,0.042748850809601203,0.08759673416486329,0.26473178091135446,0.22301386779486362,0.037589119865482634,4.446972436096695,0.21087845874096992,0.2065442682765146
10_2_3.csv,1970-01-01 00:00:03.700,1970-01-01 00:00:05.680,0,-0.017810131333052932,0.10417175600055792,-0.17411307521726574,0.2846514780832529,-0.034164213216213095,0.158719881943759,1.1060437978857975,0.10516861689143761,0.09028544752941768,0.70452599281219,-0.389774823182083,9.028544752941768,0.4587645533005187,13.008092285779842,0.07842458894596216,0.008457710384512733,0.10731877135856902,-0.17881428735543228,0.22062731359239243,0.012634911913364879,0.1589468392197854,1.1473678364001985,0.10711525738195275,0.09001323567005988,0.2034557395898116,-0.8491774365687212,9.001323567005988,0.3994416009478247,34.00234629540391,0.058567059201190486,-0.013912782701913455,0.09367108043233205,-0.20711179401418495,0.1272776483209695,0.011440312684831715,0.15122078666401578,0.8880094118777478,0.0942342513037456,0.07909468253589007,-0.47116253038584127,-1.0356285508558476,7.909468253589007,0.33438944233515444,6.009310800677996,0.04422031635372786,1.4253221291441007,0.04742909488265345,1.334464975013562,1.5300990683625666,1.4234461249043493,0.060664258427951756,203.3770195678846,1.4261031504343737,1.4253221291441007,0.04869382362819306,-0.41132973076013624,142.53221291441008,0.1956340933490046,24.000797334640374,0.015588737168070965,0.3934507269863207,0.07149184240332611,0.17063838108015925,0.5018137546664042,0.3962733440127447,0.08983265273419688,15.986344726098396,0.39982927264144125,0.3934507269863207,-0.9032784289076425,0.8908923862724643,39.34507269863207,0.33117537358624494,50.001096759251894,0.056568927826506216,-0.3866536278633335,0.06145732336992657,-0.48875598500110307,-0.2967356161779564,-0.3643574071920878,0.10861515644356373,15.3240260509715,0.391459142835769,0.3866536278633335,-0.41527978362729456,-1.234003697022075,38.665362786333354,0.19202036882314666,93.00019823539111,0.015948535616540416,1.53091570014051,0.056595521406462686,1.4482868118722636,1.6495883689294708,1.5103492534056167,0.08655552751257334,234.68739034495448,1.5319510120919484,1.53091570014051,0.1697782356440433,0.0511440939571729,0.059971913076154064,0.2869687721307853,0.17077239499244606,0.0855414350547144,3.1414210461637433,0.17724054406832945,0.1697782356440433
10_2_3.csv,1970-01-01 00:00:04.800,1970-01-01 00:00:06.780,0,-0.00011408859520093067,0.08754377713042835,-0.17411307521726574,0.2846514780832529,-0.010338552016627712,0.09901438255005107,0.7587286801327043,0.08710503315725816,0.0654704909066774,0.8072775758687449,0.7031420851965917,6.54704909066774,0.4587645533005187,13.008092285779842,0.07842458894596216,0.0005412412420913363,0.06657594531219099,-0.17881428735543228,0.09708496090970181,0.01794251716915652,0.07823636143451791,0.4388325871351867,0.06624444030522009,0.0516134122374131,-1.1133612711193321,0.504274656929427,5.16134122374131,0.2758992482651341,16.002378585547625,0.058567059201190486,-0.014910060350978525,0.0712038225196218,-0.20711179401418495,0.1272776483209695,-0.012049630165815391,0.0803552659451082,0.5241594397661565,0.07239885632840871,0.054620898953129327,-0.3378137457653596,0.18425160468359225,5.462089895312933,0.33438944233515444,6.009310800677996,0.04422031635372786,1.409944036999038,0.018129235785237233,1.3625201438058063,1.4690431811209563,1.4095028655484638,0.0218134065233766,198.82675699673973,1.4100594207221897,1.409944036999038,0.4915468186143057,1.4132992138897866,140.99440369990378,0.10652303731515,13.000436421808264,0.015588737168070965,0.3425189168776711,0.04875841263915495,0.17063838108015925,0.43532668815186987,0.3419928032342363,0.03542423150300639,11.967281739411225,0.34593759176202904,0.3425189168776711,-0.978903511008136,2.2434125737687745,34.25189168776711,0.26468830707171065,22.001592212835426,0.056568927826506216,-0.34359372722816756,0.02031015637442286,-0.3758403528359969,-0.2954597333286332,-0.34713298872622417,0.02368357539056254,11.846502681797848,0.34418748788702136,0.34359372722816756,0.7016134080050858,-0.08445671644016173,34.35937272281676,0.08038061950736375,6.000538396176829,0.015948535616540416,1.4920316137773435,0.01579789234326698,1.4482868118722636,1.5477778393412482,1.491694907612009,0.012441784218064411,222.6405414179489,1.4921144105528534,1.4920316137773435,0.11115309696441743,0.07008073342606103,0.005503421639228159,0.2869687721307853,0.10894894009729356,0.11309299750570757,1.7217207070340472,0.13121435542782836,0.11115309696441743
10_2_3.csv,1970-01-01 00:00:05.900,1970-01-01 00:00:07.880,0,-0.004209176217646241,0.03807274452574101,-0.06371812432114882,0.10639308983696223,-0.010338552016627712,0.048038399735175666,0.14527557013963177,0.038115032485835795,0.02962984273072299,1.0314439149903083,0.988885168010325,2.962984273072299,0.17011121415811103,44.00032883769373,0.02443410225170809,0.014903408309826074,0.02898475559804318,-0.05115235549254264,0.07513638331028065,0.015056560606853144,0.04466347946801869,0.10538264757569052,0.032462693599837104,0.026956105870558186,-0.02736615260015343,-0.7466787336532694,2.6956105870558185,0.1262887388028233,39.000204471842814,0.018538106310895718,-0.005093101809481132,0.02937519719330636,-0.10049026287327112,0.05822997394253574,-0.008410138840064854,0.03807722589943555,0.08802128740859175,0.02966838172340914,0.02326265485935596,-0.6231351167990602,1.1945366277316682,2.326265485935596,0.15872023681580685,74.00017021678785,0.0226184947724078,1.4092668693885582,0.006317196221870362,1.3962957410032928,1.4274732153394343,1.4092863553100183,0.00600815911686059,198.60726170546522,1.4092808865001512,1.4092668693885582,0.37850609262707824,0.7384475611620176,140.92668693885582,0.031177474336141486,94.0000051703983,0.005629266199581151,0.3406499777144712,0.01978453862940521,0.28597308829924956,0.37494557672540496,0.34034516455967784,0.02649952201581479,11.64299210059603,0.3412182893778707,0.3406499777144712,-0.7652992328847107,0.8330193933930872,34.06499777144712,0.0889724884261554,12.00032983312112,0.01894784475742195,-0.3464822884730694,0.014928675413004537,-0.3752024114113353,-0.3126841517944968,-0.34808990086321656,0.02607585573304355,12.02706129216262,0.34680053766052066,0.3464822884730694,0.21003187255702838,-0.8287764453600257,34.64822884730694,0.06251825961683849,76.00002571402713,0.008931179945262657,1.4908862271900767,0.00563256738368765,1.4743487923684244,1.5083282710770587,1.491611054217031,0.005221095543956,222.27731509822397,1.4908967606719923,1.4908862271900767,0.05119030962996533,0.027822439370999597,0.005503421639228159,0.12270834091696417,0.04658727533257734,0.029868518272245376,0.338679505123914,0.058196177290601656,0.05119030962996533
10_2_3.csv,1970-01-01 00:00:07.000,1970-01-01 00:00:08.980,0,-0.0009285659447802523,0.030160557064241013,-0.06371812432114882,0.05933536846425263,0.003692692246348298,0.04486139757480326,0.09014248451148907,0.030023738027016068,0.025017191528864703,-0.15092344215793257,-0.7412233855508266,2.50171915288647,0.12305349278540145,65.00011647806554,0.023298840288601096,0.02323103632147107,0.029106611767049706,-0.06488428609320614,0.06689722494988257,0.0312167167497979,0.039998468754740016,0.13784039486416866,0.037126862897929935,0.03272774191744393,-0.6237605948585347,-0.27248893871090285,3.2727741917443933,0.13178151104308872,10.000868280637077,0.022871543426678874,-0.004092953697297402,0.02990033133904991,-0.06172421604958068,0.05822997394253574,-0.001945819397057532,0.04196095060578127,0.09018417860113406,0.030030680745053728,0.0247248435664384,-0.1842821737230613,-0.7695745380417138,2.47248435664384,0.11995418999211642,64.0001124140239,0.019989053359627154,1.4100333156326554,0.005970371663207644,1.392398556711275,1.424875092478089,1.4095028655484638,0.005899903997637734,198.82292400784377,1.4100458290702602,1.4100333156326554,-0.17276520853633287,0.8772573028215724,141.00333156326553,0.032476535766813974,9.000058595663441,0.007361348107144616,0.3350562444143451,0.013191167527435125,0.30080183637027547,0.36341210600349594,0.33540224853600253,0.017437509305743337,11.243495375277496,0.3353132173845447,0.3350562444143451,0.050792657730931716,-0.1915870359401617,33.50562444143451,0.06261026963322047,45.00004355604407,0.010984257830389532,-0.3433244784209942,0.014970945702834354,-0.3739265285620121,-0.3069426789725423,-0.34521916445223927,0.023205119322066314,11.80935854061326,0.3436474725734682,0.3433244784209942,0.31626890467031504,-0.6365032162279998,34.33244784209942,0.06698384958946979,73.00003073174769,0.011482945643909115,1.4895380460385925,0.005876561978356098,1.4743487923684244,1.4999470960930958,1.490386988850549,0.008895559344304305,221.87577792373452,1.489549522250719,1.4895380460385925,0.05332709895649601,0.018474418476161124,0.013096327426454777,0.09971709455383578,0.051523893349797185,0.02358292667194742,0.3181670579767918,0.05640629911426487,0.05332709895649601
10_3_1.csv,1970-01-01 00:00:00.000,1970-01-01 00:00:01.980,0,0.03115295398092336,0.08698616788842489,-0.2528394113516789,0.16159798529785144,0.04039068445490462,0.11520358296125435,0.8461434011611638,0.09198605335381901,0.07272140604333259,-1.1881077236854247,2.1045329417779155,7.272140604333259,0.4144373966495304,9.009537077771624,0.07510536987300011,0.016181983302997482,0.03610704965892619,-0.04836376056933414,0.08200234861061241,0.016961748731019997,0.0597061106508613,0.15525384283399296,0.03940226425397314,0.033318904719290214,-0.06248641590277343,-1.0964689083186079,3.3318904719290217,0.13036610917994657,87.00009767421197,0.01207959665625579,0.08454117394082203,0.0835612175030785,-0.14895278886147253,0.20361755190713998,0.09358120345287908,0.11161646598460728,1.4059862391183153,0.11857429059953575,0.1042327890537753,-0.930904988061649,0.7168191434262687,10.42327890537753,0.3525703407686125,15.004142956036832,0.04452333132761884,0.7650014124134726,0.472212990782317,-0.08057472299257482,1.4027910481566557,0.7935515350060789,0.8741262579986538,80.59824185715529,0.8977652357780139,0.7695270614480891,-0.19621618471617472,-1.314429111275666,76.95270614480891,1.4833657711492305,84.01309644341778,0.01602175764496172,0.17835834060109432,0.32815893852709227,-0.41308910809074545,0.6303295712819621,0.2017826136824572,0.6148717217732027,13.84231037078516,0.3720525550347042,0.3198880105008753,-0.21676107837740066,-1.3093378041423573,31.988801050087527,1.0434186793727076,84.00648024135081,0.013730322287986985,0.0412315962824084,0.0848219975156524,-0.11472295345418894,0.1791686866196096,0.04446835158578527,0.14169775503558144,0.8822868081915405,0.09393012339987318,0.08000236795289556,-0.15109713444534456,-1.1249888024185595,8.000236795289556,0.29389164007379853,84.00051411923683,0.014927829337081838,0.8668901152450189,0.45140624098006804,0.29877599202451827,1.5483021383069735,0.8208983092594713,0.9345322379473184,95.322839036132,0.9763341591695539,0.8668901152450189,0.13871105127423541,0.06987058083480549,0.054712794481139936,0.28522481285687434,0.12967717543821625,0.1255892468740793,2.407383483113472,0.15515745174220516,0.13871105127423541
10_3_1.csv,1970-01-01 00:00:01.100,1970-01-01 00:00:03.080,0,-0.062361189474722745,0.06255120417116877,-0.16507549958939435,0.055714402202839464,-0.06174857466538275,0.10570225653146018,0.7762444564532882,0.08810473633427934,0.07230899628815596,0.036462003481726804,-1.1832011816092207,7.230899628815595,0.22078990179223382,5.004872444002287,0.10179515602526064,-0.051326734127649855,0.04702129782659995,-0.18842663877589677,0.0682704180099489,-0.04906618540052074,0.06813520862510054,0.4823326061015291,0.0694501696255329,0.0556770281673602,-0.35789609663572797,0.43717838213899585,5.56770281673602,0.25669705678584565,8.0041172766872,0.06245777287137848,0.008460931833712472,0.07345782110191353,-0.10655056235109048,0.2139200610194329,0.006025399306477933,0.11476909462433664,0.5413678333725056,0.07357770269398914,0.0608880509209375,0.43949134536604784,-0.21300519434825693,6.08880509209375,0.32047062337052334,8.006416265748584,0.1035814464848274,-0.16425214122255952,0.4922781310640107,-0.8796598855350339,0.6964263952284506,-0.177699862770203,0.8741262579986537,26.68931466368321,0.516617021241879,0.4459110427633201,0.10539629437734326,-1.2852417310083966,44.59110427633201,1.5760862807634846,99.01254490196892,0.041569965781522056,-0.474017241614659,0.349169963406861,-0.9860039684598607,0.1334635334854347,-0.481408188287768,0.6148717217732027,34.53928120600631,0.5877012949280128,0.4897154029420501,0.08584358300697024,-1.274995583438373,48.97154029420501,1.1194675019452953,93.00673743061796,0.05354825692314902,-0.12468082037976636,0.09092901509630325,-0.2686661934928453,0.03922028658446744,-0.13396585845902098,0.15219388503821712,2.373071189909147,0.15404775850070482,0.12947539195887883,0.14579292291794593,-1.1585108753503015,12.947539195887884,0.3078864800773128,88.00053860110525,0.05167325539759096,0.717382026255449,0.3501510482167457,0.29877599202451827,1.31473576610015,0.6230395123816113,0.6189848589519027,63.60166705959867,0.7975065332622591,0.717382026255449,0.12151904722666072,0.05714212407529307,0.054712794481139936,0.26215435386618247,0.10607990664179412,0.09893838898362745,1.7999448959273225,0.1341620250267311,0.12151904722666072
10_3_1.csv,1970-01-01 00:00:02.200,1970-01-01 00:00:04.180,0,-0.0798774189889721,0.07360043398449732,-0.22479176285138847,0.05843012689889934,-0.10450454359945653,0.12976883627264446,1.1743255708219091,0.10836630337987492,0.0926214885060534,0.376216658457016,-1.0821566110879406,9.262148850605339,0.28322188975028784,15.002673583026251,0.10179515602526064,0.0016458835513331333,0.10911753877018766,-0.18842663877589677,0.24671798173365303,-0.009742705754968054,0.1309937892556864,1.1790279827255328,0.10858305497293455,0.08540077249799795,0.8492403952573724,0.11921711306383775,8.540077249799795,0.43514462050954983,32.00295847012833,0.06245777287137848,-0.022159416373300184,0.08503839510717613,-0.19862737474523784,0.21816227065390648,-0.03560500832573511,0.07208925962096875,0.7650253089985438,0.0874657252298604,0.06941456861760147,1.151304012016321,1.5317037614485698,6.941456861760146,0.4167896453991443,8.010849743223995,0.1035814464848274,-0.7466326120616881,0.16633794457751025,-0.9095382984405027,-0.2748250025478312,-0.8231507133007776,0.13139803392904414,58.48518860822672,0.7647560958124278,0.7466326120616881,1.537364151728184,1.0854559832777473,74.66326120616881,0.6347132958926716,45.004476010370155,0.041569965781522056,-0.8755394494635764,0.11799078505365704,-0.9991850778563282,-0.5497272684847905,-0.9216495188234943,0.12611515557801767,78.0351934670985,0.8833753079359785,0.8755394494635764,1.318841950998241,0.6833071897058671,87.55394494635765,0.4494578093715377,60.0016834124044,0.05354825692314902,-0.2946863290295786,0.09607729458579385,-0.44665185097343635,-0.15320876346385304,-0.26341812849152746,0.18508026387126145,9.59785705865052,0.3098040841992003,0.2946863290295786,-0.13203675682238122,-1.6205798376281673,29.46863290295786,0.2934430875095833,70.00061506048077,0.05167325539759096,1.1920019578438374,0.20179428427954707,0.6334049075775204,1.3613433406789668,1.2919592129222477,0.18168465100702313,146.11823913397578,1.208793775356143,1.1920019578438374,0.15936426709645898,0.07645437669239455,0.01209083994072188,0.3341787952191598,0.16444846163050303,0.11077397579115998,3.1183788625459856,0.1765893219463166,0.15936426709645898
10_3_1.csv,1970-01-01 00:00:03.300,1970-01-01 00:00:05.280,0,-0.02102239529124252,0.06851099393066087,-0.22479176285138847,0.08558737385949806,0.003059023150600995,0.07673437185655421,0.5088759830254638,0.07133554394728225,0.04969228026673771,-1.1674910057906496,0.7392979305875507,4.969228026673771,0.3103791367108865,52.000926291831625,0.050218646838615356,0.04262021681827138,0.08254315830722952,-0.0978184081731581,0.24671798173365303,0.045036481859719146,0.060011772733135293,0.8561722135135491,0.09252957438103501,0.06444102805938474,1.194968360575067,1.1482863514535837,6.444102805938475,0.3445363899068111,48.00123649786503,0.03363197429080535,0.011717388341354471,0.04548428229153917,-0.16055109502839054,0.08487542181058744,0.027945436876333517,0.05612802422700759,0.2185428925762769,0.04674857137670379,0.03912646863157867,-1.4922477170763058,2.6590359448467003,3.9126468631578666,0.24542651683897798,25.001204654479505,0.03332171221082976,-0.8217486548566731,0.019417867086835114,-0.849781472629565,-0.7696108243366299,-0.8302955511694766,0.019142598081982154,67.56441347853314,0.8219757507282872,0.8217486548566731,1.0819256410593068,0.3925632165678401,82.17486548566731,0.08017064829293519,94.00003418793446,0.00909343001470797,-0.8233078875405881,0.20200905626221044,-0.9991850778563282,-0.27107589429744344,-0.9279247051816759,0.19734150892735802,71.82354599103752,0.8474877343716398,0.8233078875405881,1.4407750686002339,0.7286481799591296,82.33078875405882,0.7281091835588847,94.002819867189,0.019448020783627284,-0.22911017978425552,0.27620181165347046,-0.44665185097343635,0.5234861787695626,-0.3911509470278757,0.27802569508812947,12.80160408338265,0.35779329344445027,0.3381177330348823,1.4291451614338215,0.6894514754363401,33.81177330348823,0.9701380297429989,84.0056020024662,0.026417610067683783,1.2252853958876024,0.14414966322602366,0.9459785374640693,1.3613433406789668,1.307393043460511,0.20715939257440596,152.18956355295333,1.2336513427745837,1.2252853958876024,0.09986978247612024,0.07694900212875694,0.01209083994072188,0.3341787952191598,0.07095573945115133,0.0394301029315753,1.58359108911529,0.12584081568057678,0.09986978247612024
10_3_1.csv,1970-01-01 00:00:04.400,1970-01-01 00:00:06.380,0,-0.04242424569954864,0.07349967742204372,-0.20217556374321774,0.08558737385949806,-0.03041525173346924,0.0961216287145372,0.7147997178508708,0.08454582886522971,0.06435161480478509,-0.45711957952324184,-0.7161285533435366,6.435161480478509,0.2877629376027158,67.0006179636297,0.06741823658032789,0.018594821391624106,0.04294249131579037,-0.0978184081731581,0.06552403188981622,0.04562499317117616,0.05991087359435407,0.2171384367389065,0.04659811549182075,0.043041132740861056,-1.2182736522905335,0.20425286410039822,4.304113274086106,0.16334244006297433,65.00020523623542,0.03363197429080535,0.03312135841255596,0.02718941318280877,-0.04111919782499484,0.07154276295938485,0.03691070613663547,0.02771504814767034,0.18288959304262323,0.04276559283379844,0.03921980654553703,-1.1103308950130488,0.820817318195969,3.921980654553703,0.11266196078437968,7.000906563967825,0.013322723934025851,-0.7599643653128644,0.05315140036708456,-0.8367908583228394,-0.6744081794887693,-0.7583832219715313,0.08880012779668855,58.03426571927567,0.7618022428378356,0.7599643653128644,0.04167994570630761,-1.3088777812429169,75.99643653128643,0.1623826788340701,87.00015154087023,0.011042022160716702,-0.23876687677412015,0.4346763357660571,-0.9299842535248739,0.299154197695717,-0.1641117799874937,0.8375079782316864,24.406370315072373,0.4940280388305139,0.39989643768191757,-0.32082119256565583,-1.439447423557004,39.989643768191755,1.229138451220591,70.01079046355832,0.03624805084028554,0.5732538119971999,0.6048732906380291,-0.42177213541163333,1.258565577147065,0.668783034141823,1.1759168584882,69.0832913719326,0.8311635902271742,0.7059205146079174,-0.32097086450394025,-1.424685317019951,70.59205146079174,1.6803377125586982,81.01742735256562,0.02641761006768384,1.2173628629498414,0.18331111152755267,0.9459785374640693,1.454653748733493,1.2429088224692197,0.3848178151182824,151.52392740628065,1.2309505571154378,1.2173628629498414,0.09414499398865113,0.04804246420480063,0.014794653051175041,0.21847482924333614,0.0831405715755412,0.05201659895849302,1.114827747632401,0.10558540370867561,0.09414499398865113
10_3_1.csv,1970-01-01 00:00:05.500,1970-01-01 00:00:07.480,0,-0.05450602330132234,0.05696394460696568,-0.20217556374321774,0.05120303440173454,-0.044337111626968774,0.048333993989489774,0.6183348651457894,0.07863427148170124,0.05911063573695094,-0.9998413905643453,0.5504344258149318,5.911063573695094,0.2533785981449523,26.0012345998031,0.06741823658032789,0.014194609949375022,0.027895661831830176,-0.09369882899295905,0.06552403188981622,0.016201638535629784,0.031107887866871912,0.09718732211603648,0.03117488125334826,0.02488845339475108,-1.0652408849704738,2.286711831970955,2.488845339475108,0.15922286088277526,7.001810617220927,0.025617929546811573,0.02235458166288117,0.03367959476843351,-0.04111919782499484,0.07154276295938485,0.023572422540169453,0.06352309165480609,0.16226992740506582,0.04028274164019448,0.03377270668775381,-0.17673489500245837,-1.2662169036348323,3.377270668775381,0.11266196078437968,7.000906563967825,0.013322723934025851,-0.7518929346105822,0.0808422791231757,-0.9685071689574261,-0.6744081794887693,-0.7245612297229493,0.08586760563263918,57.18131044702042,0.7561832479433832,0.7518929346105822,-1.3029078923933595,0.5139234365948671,75.18929346105821,0.29409898946865676,61.00070896486045,0.011042022160716702,0.1742755096911594,0.07252765394136002,-0.05714766567754399,0.299154197695717,0.19354325970352892,0.08824320573413771,3.5579611258488697,0.18862558484598185,0.17653748838479444,-1.0043562757304842,0.9604201971240793,17.653748838479444,0.356301863373261,21.00302242578061,0.03624805084028554,1.0640565962117996,0.21174378589666248,0.5381832959181119,1.2623932256950348,1.1848833425986482,0.31343214447310863,117.66035164990335,1.084713564264333,1.0640565962117996,-0.9767314789180803,-0.29749428265487454,106.40565962117995,0.7242099297769229,43.00609817249627,0.02641761006768384,1.3303216910555307,0.11993445404701422,1.1064508313129542,1.4559300069071794,1.4007205915998941,0.21634738697796108,178.39962322277265,1.3356632181159016,1.3303216910555307,0.0778336962266884,0.05241478778113988,0.014103391668514126,0.21847482924333614,0.06150190525667591,0.048737984446096796,0.8777921146668917,0.09369056060601258,0.0778336962266884
10_3_1.csv,1970-01-01 00:00:06.600,1970-01-01 00:00:08.580,0,-0.02642543663423877,0.06369174599912975,-0.1017234300403255,0.15797701903643827,-0.04502699036089799,0.07062176630023323,0.4714375824643651,0.06866131243024452,0.06187543794799082,1.1092314910661036,0.3582090662641595,6.187543794799082,0.25970044907676376,21.001605755828546,0.012366688051274471,0.03014819245817315,0.04297686305838355,-0.016845040352524335,0.14240033189189133,0.01521113862345078,0.03858929771490903,0.27374541592507107,0.05232068576816162,0.03447621974347872,1.1465011475063394,0.055956418995380286,3.4476219743478715,0.15924537224441565,21.000603779143617,0.019224702840928892,0.027553274471341656,0.05289741705488786,-0.101702322768835,0.11154073951299265,0.031343970784810854,0.08850638270284622,0.35293382978610405,0.05940823425974753,0.05063469526230374,-0.3299590631032998,-0.7734259323082746,5.063469526230374,0.21324306228182766,21.00108265313032,0.03332171221082976,-0.9529399408392729,0.1511239746573477,-1.1433693559615636,-0.6796044252114596,-0.99290609815614,0.26521540815061173,93.07046020058294,0.9647303260527418,0.9529399408392729,0.48107474427792146,-1.1944000495929232,95.29399408392729,0.46376493075010405,61.00176290822253,0.012730802020591181,-0.02691843891542056,0.2254409224633868,-0.5124067078447848,0.24148684408617185,0.03939450698705389,0.33223489143024776,5.103997577957458,0.22592028633917444,0.18014582880669988,-0.7928155361691591,-0.673240773958379,18.014582880669987,0.7538935519309566,93.00305562446668,0.022243122106538837,0.4731053015638468,0.48153945537388493,-0.2209736925851428,1.2623932256950348,0.4358564455967744,0.8673254400640662,45.33900709787784,0.6733424618860586,0.5281894181214127,0.18662926381105094,-1.3270716875111541,52.818941812141276,1.4833669182801776,98.01122577243001,0.007655297095939373,1.1932729718928938,0.10652577491525701,1.1006353318656996,1.4559300069071794,1.1439136690294396,0.10090631193956212,143.51346487641825,1.1979710550610905,1.1932729718928938,0.09527966802571763,0.043842615017585906,0.025168052114435308,0.2357497731136475,0.09226015091900902,0.06840088572931667,1.0981168281755405,0.1047910696660522,0.09527966802571763
10_3_1.csv,1970-01-01 00:00:07.700,1970-01-01 00:00:09.680,0,0.05254713647788264,0.07183207637572316,-0.1017234300403255,0.15797701903643827,0.07689853883467263,0.04961960446941162,0.7869450276508471,0.08870992208602413,0.08442308376603565,-1.1776966353177059,0.04965009299817069,8.442308376603565,0.25970044907676376,21.001605755828546,0.012366688051274471,0.018442817174040692,0.06283295479763348,-0.10154749026676779,0.14240033189189133,0.012136258138504073,0.08710096045915934,0.4248637911830529,0.0651815764754929,0.05323111261468701,0.03395703603742532,-0.8891945581745455,5.323111261468701,0.24394782215865912,66.00045083588397,0.007583112964019811,-0.016527425025493845,0.05666329805039952,-0.101702322768835,0.11154073951299265,-0.041313127408285064,0.03058450060124605,0.34517778304622465,0.05875183257109727,0.05372259735249491,1.3143930826488375,0.22925095885964808,5.372259735249491,0.21324306228182766,21.00108265313032,0.03332171221082976,-0.8258788487856347,0.282255480520675,-1.1433693559615636,-0.2688412008327957,-0.899015900852055,0.5034419784469321,76.09473475926032,0.8723229606015213,0.8258788487856347,0.511069669530388,-1.183310984660943,82.58788487856347,0.8745281551287679,87.00439528836525,0.012730802020591181,-0.5924671006732735,0.38564796366486986,-1.2530752133479521,0.013842602296360813,-0.5864735583951015,0.6387832374075442,49.8254373740267,0.7058713577843111,0.593018908759884,0.0033686787802396285,-1.1867814669710697,59.3018908759884,1.266917815644313,99.0081061365765,0.022243122106538837,-0.2367787750455835,0.26892680522569573,-0.6546462730701098,0.33352959527543685,-0.2643409506336395,0.42684296186151816,12.766259861529733,0.35729903248581196,0.3042330484272211,0.3396637213652601,-0.883582936809034,30.423304842722107,0.9881758683455466,99.00493165265446,-0.007884956008817556,1.1745697323843458,0.08557744271565178,1.103079527784225,1.4391090384042553,1.1400235480889003,0.06284884683798242,138.68643199481676,1.177652036871744,1.1745697323843458,0.12078159513203307,0.03148949313568435,0.05335142493946717,0.2357497731136475,0.11800368785150431,0.037147414623960234,1.5569866018801246,0.12477926918683747,0.12078159513203307
10_3_2.csv,1970-01-01 00:00:00.380,1970-01-01 00:00:02.360,0,0.03301216130042979,0.07394528550993146,-0.08348537577561642,0.21769328229843243,0.02808660276188974,0.11688091339959066,0.6503028990379421,0.08064136029593884,0.06483104317677943,0.429266561641605,-0.5388457707036562,6.4831043176779435,0.30117865807404887,99.00045812310204,0.033479097892410235,-0.1537194502260846,0.06963664806635456,-0.2433318498169103,0.014738400029001706,-0.17221590028550843,0.11264966756892658,2.843043950418785,0.16861328389005373,0.15401421822666464,0.7933987600961303,-0.5129531937312555,15.401421822666464,0.25807024984591204,23.001447786038504,0.01549103271742297,-0.01520820225684894,0.04574842584879388,-0.10049026287327112,0.0691385130026106,-0.01694664115966585,0.07620533061713994,0.2303278698851391,0.04799248585821942,0.04077039201856384,0.010271175567703222,-1.0607525674605824,4.077039201856384,0.1696287758758817,19.00075719337535,0.005649656234513575,-0.8957543709373642,0.07648601333085783,-0.997874475726237,-0.7391545821584267,-0.9247579840657689,0.1260029836550215,80.81675021862887,0.8989813692097788,0.8957543709373642,0.5923394287049413,-1.0307207888404508,89.57543709373643,0.25871989356781033,69.00048504165262,0.01255759382983479,0.6459147352899446,0.4231642177113224,-0.1556689691494358,1.1526310311169854,0.7155199800233356,0.7750829342124484,59.448312086440204,0.7710273152518022,0.661263310476148,-0.38047360489454846,-1.2644166004462405,66.1263310476148,1.3083000002664211,99.0086443139724,0.008650103041431878,-0.7371046967949338,0.11249116738977537,-0.9388091614311312,-0.515549524836891,-0.7285277193270459,0.20600071015791854,55.585105415045874,0.7455541926315342,0.7371046967949338,-0.15211324261390688,-1.1651586690166593,73.71046967949339,0.42325963659424026,99.00090478738045,0.008931179945262713,1.3897802031454283,0.16518329013431973,1.1858410412031046,1.630800806484154,1.3776654638343142,0.35352366065069596,195.850167720115,1.3994647824083142,1.3897802031454283,0.18375721757390628,0.05920374154599674,0.024221258564032358,0.28938146399520287,0.18108745405523302,0.05766291032252885,3.7236747193418664,0.19296825436692602,0.18375721757390628
10_3_2.csv,1970-01-01 00:00:01.480,1970-01-01 00:00:03.460,0,-0.10063982710594178,0.09048658674916239,-0.25502988907887014,0.053750234866986574,-0.1006398271059418,0.15439006197292837,1.8234318957612412,0.13503451024687138,0.1104457987360941,0.0,-1.1999999999999997,11.04457987360941,0.30878012394585674,99.00048154006598,-0.0031189911509682255,-0.13409188610372597,0.04253978967396899,-0.2066741438728887,-0.061509628334563214,-0.13409188610372597,0.07258225776916274,1.9772171287305076,0.14061355300007564,0.13409188610372597,0.0,-1.1999999999999995,13.409188610372597,0.1451645155383255,99.00010642790528,0.001466308237760866,0.05544669184256356,0.05458840340045905,-0.03769315668949636,0.1485865403746235,0.05544669184256357,0.09313984853205992,0.6024430484237342,0.07761720482107909,0.06337504262518938,0.0,-1.1999999999999995,6.337504262518937,0.18627969706411984,99.00017525300416,0.0018816131016577975,-0.7185319819464996,0.10878043646729822,-0.904135383853842,-0.5329285800391577,-0.7185319819464998,0.18560340190734226,52.800306060440086,0.7266381909894365,0.7185319819464996,0.0,-1.1999999999999995,71.85319819464996,0.3712068038146843,99.00069592932768,0.0037495636748958727,-0.25246774127974375,0.5105957819879383,-1.1236566904525152,0.6187212078930278,-0.2524677412797437,0.8711889491727715,32.184093244493106,0.5673102611842404,0.4761898239005637,0.0,-1.1999999999999997,47.61898239005637,1.742377898345543,99.01533154386064,-0.017599776750965024,-0.9621737661093629,0.1232440074803954,-1.1724552082134483,-0.7518923240052775,-0.962173766109363,0.21028144210408528,94.08155507151046,0.9699564684639742,0.9621737661093629,0.0,-1.1999999999999995,96.21737661093628,0.4205628842081708,99.00089329465453,-0.004248109941496603,1.32973806579517,0.15060893282345167,1.1858410412031046,1.7091718593190368,1.272741879508574,0.20743048060177527,179.06595437644364,1.3381552764027187,1.32973806579517,0.20633871958535002,0.03833996687047875,0.16732781753888168,0.30149898620382876,0.19399788726145498,0.05256554410571304,4.4030920729154825,0.2098354610859538,0.20633871958535002
10_3_2.csv,1970-01-01 00:00:02.580,1970-01-01 00:00:04.560,0,-0.14107871715451037,0.09396343148987865,-0.27998181828661617,0.14892460338290536,-0.15252125385015677,0.08642184504762926,2.864403962674192,0.1692455010531799,0.1549051812527776,1.0376379587477087,0.9321919715771636,15.490518125277761,0.42890642166952153,44.002090413053665,0.06352124584161029,-0.02644577795686975,0.11193659154468286,-0.21174840943538425,0.26729336627300787,-0.06957432364224796,0.12521165541863788,1.3103881693118813,0.11447218742174368,0.10045112738575916,1.1621073991378557,0.30574310131854254,10.045112738575916,0.4790417757083921,23.004988176977484,0.03431481892723179,0.06719903352426967,0.0717985347665576,-0.16107338781711125,0.1636394451878857,0.08145118702366655,0.08395230807928533,0.9619189405274254,0.09807746634815896,0.08763294256088308,-1.1415408851144753,1.1316749064818388,8.763294256088308,0.324712833004997,7.0075272688672525,0.01726440232390264,-0.5385836306398628,0.08247590292975113,-0.697909381734573,-0.37302592757273506,-0.5195672739605484,0.12651496944615065,29.680657901165304,0.5447995769194879,0.5385836306398628,-0.24790046788294237,-0.8960403322854469,53.85836306398628,0.3248834541618379,59.00089447846353,0.07404650154833609,-0.9539896000865201,0.2536927186142861,-1.264454904460236,-0.34926651341005166,-1.072916908542818,0.35052888695672124,97.38125525963667,0.9868194123528209,0.9539896000865201,1.0131216849823765,-0.3054954510715744,95.39896000865201,0.9151883910501843,52.00805293212882,0.028998440672228565,-1.1294710049931234,0.10950082965514096,-1.4628925404593918,-0.8715208397980729,-1.1207916185950189,0.1285488217365014,128.7575278498389,1.1347137429759053,1.1294710049931234,-0.7896827090507812,1.0078643954040785,112.94710049931234,0.5913717006613188,8.021827752348155,0.07176841027443193,1.5910422042701222,0.1644676577388402,1.2571199158383477,1.8664783119115578,1.6341545940659516,0.24674896351856646,255.8194410106409,1.5994356536311203,1.5910422042701222,0.21838369794617685,0.06093274315482372,0.05988272478101933,0.3280939676448771,0.21521101778816903,0.07988700902868517,5.1367110725135,0.22664313518201915,0.21838369794617685
